participant,group,n_typing,median_typing,mean_typing,acc_typing,error_rate_typing,n_fluency,n_wrong,acc_fluency,composite_fluency,median_fluency,mean_fluency,max_egner,mean_egner,max_wais,mean_wais,max_vpt,mean_vpt,mean_rt__P_0,mean_rt__P_1,mean_rt__P_2,mean_rt__P_5,acc__P_0,acc__P_1,acc__P_2,acc__P_5,mean_rt__P_congruent,mean_rt__P_incongruent,mean_rt__P_neutral,acc__P_congruent,acc__P_incongruent,acc__P_neutral,mean_rt__M_1,mean_rt__M_2,mean_rt__M_5,acc__M_1,acc__M_2,acc__M_5,mean_rt__M_congruent,mean_rt__M_incongruent,mean_rt__M_neutral,acc__M_congruent,acc__M_incongruent,acc__M_neutral,n_trial_correct,n_trial_lure,mean_rt_correct,mean_rt_lure,acc_veri,veri_performance,dob,age,Nationality,lang_mult,date,frameRate,nationality,gender,maritalstatus,eduLevel,ParentsEdu,income,employment,major,handedness,Medicalhistory,developmentHist,nativelanguage,lingualAbility,multilingual_1,multilingual_1_TEXT,multilingual_2,multilingual_2_TEXT,multilingual_3,multilingual_3_TEXT,multilingual_4,multilingual_4_TEXT,multilingual_5,multilingual_5_TEXT,multilingual_6,multilingual_6_TEXT,mathlanguage_1,multiplylanguage,schooltype_1,difficultiesmath,learnmultiplytable,peercomparison,peercomparison2,rateownfluency_1,dyslexia,mathanxious,examanxious,memory,ethnicity_value,major_relabel,country,avg_digitspan
18510,BAC,60,1.35805,1.5285616666666666,96.7741935483871,0.03225806451612905,16,5,26.666666666666668,22.5,2.76275,3.5844,8,7.333333333333333,7,6.333333333333333,9,8.333333333333334,0.4665818181818182,0.47776,0.46025625,0.5170733333333334,91.66666666666666,93.75,100,93.75,0.4376391304347826,0.5313434782608696,0.4665818181818182,95.83333333333334,95.83333333333334,91.66666666666666,0.8402136363636363,0.7089681818181818,0.7570833333333333,91.66666666666666,91.66666666666666,100,0.7697625,0.8003190476190476,0.7378695652173913,100,87.5,95.83333333333334,73,68,0.35377397260273974,0.441489705882353,48.95833333333333,0.08771573327961324,2003-03-26,20.891872518315715,UK,English,2024-02-14T18:09:16Z,60.24096386,UK,Female,Single (never married),Some University but no degree,"Yes, both parents","Less than 20,000 pounds",Student,Psychology,Right,Yes,No,English,No,NA,NA,NA,NA,NA,NA,NA,NA,NA,NA,NA,NA,English,English,State,Yes,No,Yes,Yes,4,No,Yes,Yes,Yes,Black/African/Caribbean,Psychology,UK,7.5
18601,CBA,62,1.149,1.1817903225806452,100,0,30,5,50,45.83333333333333,2.224,2.4899666666666667,7,6.333333333333333,7,6.333333333333333,5,4.333333333333333,0.5199166666666667,0.5602857142857143,0.5222142857142857,0.5314166666666666,100,87.5,87.5,75,0.4950869565217391,0.596764705882353,0.5199166666666667,95.83333333333334,70.83333333333334,100,0.627625,0.5796363636363636,0.499375,100,91.66666666666666,100,0.5706666666666667,0.5925217391304348,0.5424347826086956,100,95.83333333333334,95.83333333333334,132,106,1.8177121212121212,2.257801886792453,82.63888888888889,0.44008976558033175,2001-10-27,22.288159989638,UK,English,2024-02-09T18:00:37Z,62.5,UK,Female,Single (never married),Vocational or Similar,No,"Less than 20,000 pounds",Student,psychology,Right,No,No,English,No,NA,NA,NA,NA,NA,NA,NA,NA,NA,NA,NA,NA,English,English,Public,No,Yes,No,Yes,5,No,Yes,Yes,No,White,Psychology,UK,7
18824,ACB,61,1.333,1.3816229508196722,98.38709677419357,0.01612903225806452,36,7,60,54.166666666666664,1.7075,1.8671111111111112,6,5,5,4.333333333333333,8,7.333333333333333,0.6195,0.619625,0.6375625,0.6115714285714285,100,100,100,87.5,0.556375,0.6965454545454546,0.6195,100,91.66666666666666,100,0.62825,0.662375,0.6083333333333333,100,100,100,0.5795416666666666,0.6811666666666667,0.63825,100,100,100,138,102,0.9047028985507246,1.305313725490196,83.33333333333334,0.4006108269394715,1999-09-18,24.3735594793964,UK,English,2024-02-01T10:37:20Z,58.82352941,UK,Female,Single (never married),Some University but no degree,No,"Less than 20,000 pounds",Student,Psychology with Counselling,Right,No,No,English,No,NA,NA,NA,NA,NA,NA,NA,NA,NA,NA,NA,NA,English,English,State,Yes,Yes,No,No,9,No,Yes,Yes,Yes,White,Psychology,UK,5.5
18826,ACB,61,1.6526,1.781911475409836,98.38709677419357,0.01612903225806452,21,1,35,34.166666666666664,3.1994,4.105333333333333,5,4.666666666666667,5,4.666666666666667,10,9.333333333333334,0.4569875,0.4579625,0.5828125000000001,0.47022,100,100,100,93.75,0.43107083333333335,0.5808695652173913,0.4569875,100,95.83333333333334,100,0.63984,0.5990875,0.5069041666666667,83.33333333333334,100,100,0.5593458333333333,0.5972428571428572,0.5814869565217391,100,87.5,95.83333333333334,131,101,1.6703022900763358,2.3201584158415844,80.55555555555556,0.6498561257652486,2003-02-27,20.948601371840695,UK,English,2024-02-08T11:26:22Z,58.82352941,UK,Male,Single (never married),Completed Secondary School,"Yes, both parents","20,000-39,999 pounds",Student,psychology with counselling,Left,No,No,English,No,NA,NA,NA,NA,NA,NA,NA,NA,NA,NA,NA,NA,English,English,State,Yes,Yes,Yes,No,7,Yes,No,Yes,Yes,White,Psychology,UK,5
18876,CBA,62,1.48325,1.483206451612903,100,0,27,5,45,40.833333333333336,2.2328,2.82027037037037,6,5,5,4.333333333333333,8,7.333333333333333,0.5284083333333334,0.5776,0.5222125,0.6281375,100,100,100,100,0.5483916666666666,0.603575,0.5284083333333334,100,100,100,0.6802208333333334,0.6299826086956521,0.6109458333333333,100,95.83333333333334,100,0.6135958333333333,0.6792130434782608,0.6303916666666667,100,95.83333333333334,100,139,125,1.286759712230216,1.4781152,91.66666666666666,0.1913554877697841,2003-06-25,20.66184177573706,UK,English,2024-02-21T17:42:18Z,60.24096386,UK,Female,Single (never married),Some University but no degree,"Yes, both parents","Less than 20,000 pounds",Student,psychology with forensic investigation,Right,No,No,English,No,NA,NA,NA,NA,NA,NA,NA,NA,NA,NA,NA,NA,English,English,Public,Yes,Yes,No,No,7,No,Yes,Yes,No,White,Psychology,UK,5.5
18887,BAC,60,1.6266,1.7106833333333331,96.7741935483871,0.03225806451612905,24,5,40,35.833333333333336,2.3701,2.6721125,7,6,7,6.333333333333333,9,8.333333333333334,0.5421875,0.5888866666666667,0.5422875,0.50149375,100,93.75,100,100,0.5172208333333334,0.5704565217391304,0.5421875,100,95.83333333333334,100,0.7520142857142857,0.6904227272727272,0.6835583333333334,87.5,91.66666666666666,100,0.7256958333333333,0.70766,0.6877,100,83.33333333333334,95.83333333333334,133,108,1.650242105263158,1.8209277777777777,83.68055555555556,0.17068567251461975,2003-05-30,20.73304018654778,UK,English,2024-02-21T17:49:48Z,59.52380952,UK,Female,Single (never married),Some University but no degree,"Yes, father only","60,000-99,999 pounds",Student,psychology,Right,No,No,English,No,NA,NA,NA,NA,NA,NA,NA,NA,NA,NA,NA,NA,English,English,Public,No,Yes,No,No,7,No,No,Yes,No,White,Psychology,UK,7
19029,BCA,62,1.4252,1.42045,100,0,28,2,46.666666666666664,45,2.2929500000000003,3.0463142857142858,8,7,7,6.666666666666667,8,7.666666666666667,0.5699458333333334,0.678775,0.635425,0.64616875,100,100,100,100,0.5594625,0.74745,0.5699458333333334,100,100,100,0.6888583333333334,0.6212166666666666,0.5837125,100,100,100,0.6226833333333334,0.6570541666666667,0.61405,100,100,100,142,132,1.910550704225352,2.7095621212121213,95.13888888888889,0.799011416986769,NA,NA,NA,NA,NA,NA,Europe,Female,Single (never married),Completed Secondary School,"Yes, father only","40,000-59,999 pounds",Employed full time (40 or more hours per week),psychology,Right,No,No,Spanish,Yes,80,english,NA,NA,NA,NA,NA,NA,NA,NA,NA,NA,spanish,spanish,Private,Yes,Yes,No,No,6.5,No,Yes,Yes,No,White,Psychology,UK,7.5
19114,ABC,57,1.3161,1.355078947368421,91.93548387096774,0.08064516129032259,27,6,45,40,2.0476,2.617088888888889,7,6.333333333333333,5,4.333333333333333,10,9.333333333333334,0.5492,0.54816,0.5211,0.5557875,95.83333333333334,93.75,87.5,100,0.5200041666666667,0.5681095238095238,0.5492,100,87.5,95.83333333333334,0.5282761904761905,0.5175954545454545,0.47112608695652175,87.5,91.66666666666666,95.83333333333334,0.491,0.482821052631579,0.5373565217391304,100,79.16666666666666,95.83333333333334,135,113,1.3204192592592592,1.5498699115044248,86.11111111111111,0.2294506522451656,2003-10-08,20.35161371254468,UK,English,2024-02-13T10:14:44Z,59.17159763,UK,Male,Single (never married),Completed Secondary School,"Yes, mother only","60,000-99,999 pounds",Student,bachelors degree,Right,No,No,English,No,NA,NA,NA,NA,NA,NA,NA,NA,NA,NA,NA,NA,English,English,Public,No,Yes,No,No,8,No,No,Yes,Yes,White,Psychology,UK,6
19116,ABC,59,1.4,1.4715084745762712,95.16129032258064,0.04838709677419356,25,3,41.66666666666667,39.166666666666664,2.066,2.97072,9,8,9,8.666666666666666,9,8.666666666666666,0.590125,0.6353125,0.5365625,0.60675,100,100,100,100,0.544625,0.6411250000000001,0.590125,100,100,100,0.8860833333333333,0.7794782608695652,0.7370833333333333,100,95.83333333333334,100,0.7980833333333334,0.8541739130434782,0.7535,100,95.83333333333334,100,134,125,1.8498656716417912,2.153984,89.93055555555556,0.30411832835820873,2004-04-13,19.843413397881967,UK,English,2024-02-15T19:21:42Z,41.66666667,UK,Female,Single (never married),Vocational or Similar,"Yes, father only","60,000-99,999 pounds",Student,Psychology,Right,No,No,English,No,NA,NA,NA,NA,NA,NA,NA,NA,NA,NA,NA,NA,English,English,State,No,Yes,No,Yes,6,No,No,Yes,Yes,White,Psychology,UK,9
19124,ACB,60,1.97515,2.04734,96.7741935483871,0.03225806451612904,17,5,28.333333333333332,24.166666666666668,3.4191,3.7728882352941175,NA,NA,NA,NA,9,8.333333333333334,0.6135454545454545,0.63344375,0.6411375,0.61106,91.66666666666666,100,100,93.75,0.6593666666666667,0.5971478260869565,0.6135454545454545,100,95.83333333333334,91.66666666666666,0.6828260869565217,0.6475541666666667,0.6636625,95.83333333333334,100,100,0.6557739130434782,0.6499083333333333,0.6872333333333334,95.83333333333334,100,100,72,76,0.11745833333333332,0.343803947368421,51.388888888888886,0.22634561403508768,2003-09-22,20.402214888109363,UK,English,2024-02-15T21:48:56Z,59.88023952,UK,Male,Single (never married),Completed Secondary School,"Yes, mother only","Less than 20,000 pounds",Student,psychology,Right,No,No,English,No,NA,NA,NA,NA,NA,NA,NA,NA,NA,NA,NA,NA,English,English,Public,No,Yes,No,No,8.5,No,No,Yes,Yes,Mixed two or more ethnic groups,Psychology,UK,NA
19125,BAC,61,1.4598,1.5985295081967212,98.38709677419357,0.01612903225806452,24,1,40,39.166666666666664,2.8042499999999997,3.4396666666666667,5,4.666666666666667,6,5.666666666666667,9,8.333333333333334,0.6473458333333333,0.62604,0.6715,0.6386333333333334,100,93.75,93.75,93.75,0.6075375,0.6886523809523809,0.6473458333333333,100,87.5,100,0.9005130434782609,0.7193541666666666,0.7081333333333334,95.83333333333334,100,100,0.7789916666666666,0.8213913043478261,0.7243208333333333,100,95.83333333333334,100,140,135,2.079102142857143,2.6186177777777777,95.48611111111111,0.5395156349206349,2003-03-31,20.861359311196033,UK,English,2024-02-08T14:40:32Z,59.88023952,UK,Female,Single (never married),Some University but no degree,"Yes, father only","40,000-59,999 pounds",Employed part time (up to 39 hours per week),Psychology,Right,Yes,No,English,No,NA,NA,NA,NA,NA,NA,NA,NA,NA,NA,NA,NA,English,English,State,No,Yes,Yes,No,5,No,Yes,Yes,No,Mixed two or more ethnic groups,Psychology,UK,5.5
19127,BAC,61,2.3494,2.385777049180328,98.38709677419357,0.01612903225806452,33,1,55.00000000000001,54.166666666666664,2.582,2.6526666666666667,6,5.333333333333333,5,4.666666666666667,9,8.333333333333334,0.7870173913043478,0.83419375,0.8506533333333334,0.95335,95.83333333333334,100,93.75,100,0.7251583333333333,1.0415956521739131,0.7870173913043478,100,95.83333333333334,95.83333333333334,0.9628045454545454,0.8763521739130434,0.7874125,91.66666666666666,95.83333333333334,100,0.7314333333333334,1.021342857142857,0.8847125,100,87.5,100,142,140,1.0597169014084509,1.1316478571428572,97.91666666666666,0.07193095573440655,2004-01-07,20.08744192153396,UK,English,2024-02-07T22:30:57Z,59.88023952,UK,Female,Single (never married),Some University but no degree,No,"40,000-59,999 pounds",Student,psychology,Right,Yes,No,English,No,NA,NA,NA,NA,NA,NA,NA,NA,NA,NA,NA,NA,English,English,State,No,Yes,No,No,9.5,No,No,Yes,No,White,Psychology,UK,5.5
19135,BCA,60,1.2841,1.2952816666666669,96.7741935483871,0.03225806451612905,22,4,36.666666666666664,33.33333333333333,3.3766,3.560690909090909,6,5,3,2.6666666666666665,8,7.333333333333333,0.6090875,0.5977875,0.5860375,0.608225,100,100,100,100,0.5948666666666667,0.5998333333333333,0.6090875,100,100,100,0.7666708333333333,0.770675,0.7807583333333333,100,100,100,0.7353708333333333,0.8141625,0.7685708333333333,100,100,100,141,140,1.833972340425532,2.081117857142857,97.56944444444444,0.2471455167173251,2003-09-23,20.374584468812586,UK,English,2024-02-06T19:36:26Z,59.52380952,UK,Female,Single (never married),Some University but no degree,No,"Less than 20,000 pounds",Student,Psychology,Right,No,No,English,No,NA,NA,NA,NA,NA,NA,NA,NA,NA,NA,NA,NA,English,English,State,No,Yes,No,No,9,No,No,Yes,Yes,Mixed two or more ethnic groups,Psychology,UK,4.5
19136,ABC,61,1.1434,1.2048049180327869,98.38709677419357,0.01612903225806452,39,4,65,61.66666666666667,1.7426,1.950907692307692,NA,NA,NA,NA,10,9.666666666666666,0.4496217391304348,0.46833125,0.42921333333333334,0.45820666666666665,95.83333333333334,100,93.75,93.75,0.4159291666666667,0.4919227272727273,0.4496217391304348,100,91.66666666666666,95.83333333333334,0.5525458333333333,0.5144333333333333,0.4791625,100,100,100,0.4803875,0.565025,0.5007291666666667,100,100,100,136,137,1.051927205882353,1.3566,94.79166666666666,0.30467279411764703,2001-09-27,22.266425887456585,UK,English,2024-01-02T19:29:21Z,120.4819277,UK,Female,Single (never married),Some University but no degree,"Yes, both parents","20,000-39,999 pounds",Student,Psychology,Right,Yes,No,English,No,NA,NA,NA,NA,NA,NA,NA,NA,NA,NA,NA,NA,English,English,Public,No,Yes,Yes,No,7.5,No,Yes,Yes,Yes,White,Psychology,UK,NA
19137,BAC,57,1.654,1.8895087719298245,91.93548387096774,0.08064516129032258,19,3,31.666666666666664,29.166666666666668,3.432,3.780473684210526,5,4.333333333333333,5,4,7,6.333333333333333,0.51735,0.4784,0.5378333333333333,0.48433333333333334,83.33333333333334,93.75,75,75,0.5111052631578947,0.48655,0.51735,79.16666666666666,83.33333333333334,83.33333333333334,0.6206315789473684,0.6166111111111111,0.5572608695652174,79.16666666666666,75,95.83333333333334,0.5290952380952381,0.5826315789473684,0.67635,87.5,79.16666666666666,83.33333333333334,108,124,1.840111111111111,2.229290322580645,80.55555555555556,0.3891792114695341,2004-05-18,19.727575345558595,UK,English,2024-02-08T11:55:31Z,13.33333333,UK,Female,Single (never married),Some University but no degree,"Yes, both parents","60,000-99,999 pounds",Employed part time (up to 39 hours per week),Psychology,Right,No,No,English,No,NA,NA,NA,NA,NA,NA,NA,NA,NA,NA,NA,NA,English,English,Public,No,Yes,Yes,No,9.5,No,No,Yes,No,White,Psychology,UK,5
19140,CAB,61,1.5314,1.5913393442622952,98.38709677419357,0.01612903225806452,19,3,31.666666666666664,29.166666666666668,3.3549,3.3946894736842106,3,2.6666666666666665,5,4.333333333333333,7,6.333333333333333,0.5564041666666667,0.53939375,0.48099375,0.5965625,100,100,100,100,0.4877416666666667,0.590225,0.5564041666666667,100,100,100,0.842195652173913,0.9720043478260868,0.7333583333333333,95.83333333333334,95.83333333333334,100,0.9113333333333332,0.8650739130434782,0.7634130434782609,100,95.83333333333334,95.83333333333334,125,132,4.0248616,5.170116666666667,89.23611111111111,1.1452550666666663,2002-08-10,21.52144300662915,UK,English,2024-02-16T16:58:09Z,59.88023952,UK,Female,"Married, or in a domestic partnership",Some University but no degree,No,"20,000-39,999 pounds",Student,psychology,Left,No,No,English,No,NA,NA,NA,NA,NA,NA,NA,NA,NA,NA,NA,NA,English,English,State,Yes,Yes,No,Yes,4.5,No,Yes,Yes,Yes,White,Psychology,UK,4
19146,CBA,58,1.34905,1.358646551724138,93.5483870967742,0.0645161290322581,15,5,25,20.833333333333336,1.8408,2.72644,6,5.333333333333333,6,5.666666666666667,9,8.333333333333334,0.6139173913043479,0.6914,0.6530333333333334,0.7112375,95.83333333333334,100,93.75,100,0.7214083333333333,0.6488652173913043,0.6139173913043479,100,95.83333333333334,95.83333333333334,0.9806708333333332,0.886975,0.8700666666666667,100,100,100,0.8104625,0.9261541666666668,1.0010958333333333,100,100,100,125,119,2.4966176,2.8220521008403363,84.72222222222221,0.3254345008403363,2004-07-19,19.549816411862757,UK,English,2024-02-05T13:41:26Z,60.24096386,UK,Female,Single (never married),Some University but no degree,"Yes, father only","Less than 20,000 pounds",Student,Psychology,Right,No,No,English,No,NA,NA,NA,NA,NA,NA,NA,NA,NA,NA,NA,NA,English,English,State,Yes,Yes,No,Yes,8.5,No,Yes,Yes,Yes,White,Psychology,UK,6
19152,ACB,62,1.3322500000000002,1.7357387096774193,100,0,22,4,36.666666666666664,33.33333333333333,2.9089,3.113481818181818,8,7.666666666666667,6,5.666666666666667,8,8,0.5813916666666666,0.5891733333333333,0.64840625,0.69265,100,93.75,100,100,0.6054833333333334,0.6853434782608696,0.5813916666666666,100,95.83333333333334,100,0.695425,0.6982458333333333,0.6552625,100,100,100,0.6394916666666667,0.7502625,0.6591791666666666,100,100,100,136,125,2.2611867647058825,2.895896,90.625,0.6347092352941175,2004-01-17,20.04846444358887,UK,English,2024-02-03T16:50:21Z,60.24096386,UK,Female,Single (never married),Some University but no degree,NA,"20,000-39,999 pounds",Student,Psychology,Right,No,No,English,No,NA,NA,NA,NA,NA,NA,NA,NA,NA,NA,NA,NA,English,English,Faith,No,Yes,No,Yes,7,No,No,Yes,No,White,Psychology,UK,7
19164,BAC,62,1.41065,1.4456064516129032,100,0,20,5,33.33333333333333,29.166666666666668,3.1276,3.314685,6,5,6,5.333333333333333,6,5.333333333333333,0.5839083333333334,0.5836933333333333,0.61281875,0.68296875,100,93.75,100,100,0.6708166666666666,0.582104347826087,0.5839083333333334,100,95.83333333333334,100,1.1676708333333334,1.04575,0.9057916666666668,100,100,100,1.01505,1.0744083333333334,1.0297541666666667,100,100,100,135,120,1.9182940740740744,2.44156,88.54166666666666,0.5232659259259258,2003-02-10,21.01431472874997,UK,English,2024-02-15T11:28:58Z,58.47953216,UK,Female,Single (never married),Some University but no degree,"Yes, both parents","60,000-99,999 pounds",Student,Psychology,Right,No,No,English,No,NA,NA,NA,NA,NA,NA,NA,NA,NA,NA,NA,NA,English,English,Faith,No,Yes,No,No,7,No,Yes,Yes,Yes,White,Psychology,UK,6
19178,BAC,59,1.3982,1.4320050847457626,95.16129032258064,0.04838709677419356,30,4,50,46.666666666666664,2.5328,2.6188066666666665,6,5.666666666666667,6,5.333333333333333,10,10,0.5174166666666666,0.5894375000000001,0.604,0.5329375,100,100,100,100,0.5696708333333333,0.5812458333333334,0.5174166666666666,100,100,100,0.7008,0.7067875,0.5887333333333333,100,100,100,0.603075,0.7600791666666666,0.6331666666666667,100,100,100,141,133,1.842068085106383,2.4388586466165414,95.13888888888889,0.5967905615101583,2002-11-29,21.228088189120843,UK,English,2024-02-20T13:25:15Z,61.34969325,UK,Female,Single (never married),Vocational or Similar,No,"20,000-39,999 pounds",Student,Psychology,Right,No,No,English,No,NA,NA,NA,NA,NA,NA,NA,NA,NA,NA,NA,NA,English,English,State,No,Yes,No,No,8,No,No,Yes,No,Mixed two or more ethnic groups,Psychology,UK,6
19179,CAB,60,1.4685,1.4856833333333332,96.7741935483871,0.03225806451612904,28,2,46.666666666666664,45,2.2975000000000003,2.9596785714285714,7,6.666666666666667,8,7.333333333333333,10,9.333333333333334,0.5876250000000001,0.5755625,0.5791875,0.6218666666666667,100,100,100,93.75,0.5732608695652174,0.609125,0.5876250000000001,95.83333333333334,100,100,0.726909090909091,0.6272916666666667,0.6085,91.66666666666666,100,100,0.646625,0.6781739130434783,0.6319130434782608,100,95.83333333333334,95.83333333333334,139,125,1.418431654676259,1.983336,91.66666666666666,0.564904345323741,2004-03-24,19.87055197556215,UK,English,2024-02-05T17:15:31Z,90.90909091,UK,Female,Single (never married),Some University but no degree,No,"20,000-39,999 pounds",Student,psychology,Right,No,No,English,No,NA,NA,NA,NA,NA,NA,NA,NA,NA,NA,NA,NA,English,English,State,No,Yes,No,No,8,No,No,Yes,No,White,Psychology,UK,7.5
19180,BAC,60,1.466,1.5165333333333333,96.7741935483871,0.03225806451612905,16,8,26.666666666666668,20,2.5335,2.856,7,6,6,5.666666666666667,10,10,0.587125,0.6884375,0.6614,0.5627857142857142,100,100,93.75,87.5,0.597,0.6898571428571428,0.587125,100,87.5,100,0.7674782608695652,0.7242272727272727,0.6774583333333333,95.83333333333334,91.66666666666666,100,0.6942173913043478,0.7278695652173913,0.7450434782608696,95.83333333333334,95.83333333333334,95.83333333333334,135,108,1.6336,2.0227037037037037,84.375,0.3891037037037038,2004-01-11,20.100280655658224,UK,English,2024-02-16T15:03:36Z,58.82352941,UK,Female,Single (never married),Some University but no degree,NA,"40,000-59,999 pounds",Student,Psychology,Right,No,No,English,No,NA,NA,NA,NA,NA,NA,NA,NA,NA,NA,NA,NA,English,English,State,No,Yes,No,No,6,No,Yes,Yes,No,White,Psychology,UK,6.5
19188,CAB,58,1.51485,1.581768965517241,93.5483870967742,0.06451612903225809,26,3,43.333333333333336,40.833333333333336,2.5641499999999997,3.2121346153846155,6,5.333333333333333,6,5.333333333333333,10,10,0.5585083333333334,0.6073733333333333,0.5858687499999999,0.5670999999999999,100,93.75,100,100,0.5477125,0.6266521739130435,0.5585083333333334,100,95.83333333333334,100,0.7015181818181818,0.6332333333333333,0.5815333333333333,91.66666666666666,87.5,100,0.6081772727272727,0.6646739130434782,0.6373045454545454,91.66666666666666,95.83333333333334,91.66666666666666,123,105,1.4256626016260163,1.6901533333333334,79.16666666666666,0.2644907317073171,2004-04-21,19.820755661235328,UK,English,2024-02-15T12:44:38Z,59.88023952,UK,Female,Single (never married),Some University but no degree,No,"40,000-59,999 pounds",Student,Psychology,Right,No,No,English,No,NA,NA,NA,NA,NA,NA,NA,NA,NA,NA,NA,NA,English,English,State,No,Yes,No,No,9,No,No,No,No,White,Psychology,UK,6
19193,CAB,61,1.367,1.4878524590163935,98.38709677419357,0.01612903225806452,12,5,20,15.833333333333332,3.177,5.011416666666666,6,5.333333333333333,6,5.333333333333333,7,6.333333333333333,0.6917083333333334,0.688375,0.7079375,0.7765,100,100,100,100,0.6715833333333333,0.7769583333333333,0.6917083333333334,100,100,100,0.814,0.6898461538461539,0.8269285714285713,54.166666666666664,54.166666666666664,58.333333333333336,0.72525,NA,0.8575625,100,NA,66.66666666666666,102,123,2.8237647058823527,2.7707154471544713,78.125,-0.05304925872788146,2001-11-25,22.19734626711157,UK,English,2024-02-05T13:56:14Z,63.13131313,UK,Female,Single (never married),Vocational or Similar,No,"Less than 20,000 pounds",Student,Psychology,Right,No,No,English,No,NA,NA,NA,NA,NA,NA,NA,NA,NA,NA,NA,NA,English,English,Public,No,Yes,No,Yes,5,No,Yes,Yes,Yes,White,Psychology,UK,6
19196,ABC,62,1.77515,1.8158838709677416,100,0,20,1,33.33333333333333,32.5,3.035,4.3242,7,6.333333333333333,6,5.666666666666667,10,9.333333333333334,0.6527916666666667,0.7270125000000001,0.6102466666666667,0.6252066666666667,100,100,93.75,93.75,0.5935521739130435,0.7179260869565217,0.6527916666666667,95.83333333333334,95.83333333333334,100,0.7725083333333334,0.7914818181818182,0.6598083333333333,100,91.66666666666666,100,0.7005583333333333,0.8406227272727272,0.6867125,100,91.66666666666666,100,132,115,1.8861113636363636,2.2684365217391305,85.76388888888889,0.3823251581027669,2002-12-02,21.220216107023347,UK,English,2024-02-20T16:24:51Z,60.24096386,UK,Female,Single (never married),Some University but no degree,"Yes, mother only","20,000-39,999 pounds",Student,Psychology,Right,No,No,English,Yes,65,Spanish,NA,NA,NA,NA,NA,NA,NA,NA,NA,NA,English,English,State,Yes,Yes,No,No,7.5,No,No,Yes,No,White,Psychology,UK,6.5
19199,CAB,61,1.515,1.592095081967213,98.38709677419357,0.01612903225806453,22,3,36.666666666666664,34.166666666666664,2.65975,3.035659090909091,6,5.333333333333333,5,4.666666666666667,7,6.666666666666667,0.8933,1.0803375,0.9429875,1.16150625,100,100,100,100,0.9355708333333334,1.18765,0.8933,100,100,100,0.9579791666666668,0.9763583333333332,0.8851304347826087,100,100,95.83333333333334,0.8483666666666667,1.045482608695652,0.9323,100,95.83333333333334,100,135,135,3.152331111111111,3.3704622222222222,93.75,0.21813111111111105,2002-01-26,22.030912891823203,UK,English,2024-02-06T18:58:56Z,60.24096386,UK,Female,Single (never married),Prefer not to say,"Yes, mother only","20,000-39,999 pounds",Student,Bachelors degree,Right,No,No,English,Yes,100,English,15,Spanish,NA,NA,NA,NA,NA,NA,NA,NA,English,English,State,Yes,Yes,No,Yes,7.5,No,No,Yes,No,White,Psychology,UK,5.5
19205,CAB,61,1.5723,1.7153622950819671,98.38709677419357,0.01612903225806452,17,4,28.333333333333332,25,3.3997,4.046141176470588,6,5.666666666666667,5,4.666666666666667,6,5.333333333333333,0.5148708333333334,0.5274625,0.5144733333333333,0.51208125,100,100,93.75,100,0.4894875,0.5479173913043478,0.5148708333333334,100,95.83333333333334,100,0.8461625,0.8148833333333333,0.7701260869565217,100,100,95.83333333333334,0.8053041666666667,0.8776565217391304,0.7526916666666666,100,95.83333333333334,100,140,122,2.362872142857143,3.3569639344262296,90.9722222222222,0.9940917915690868,2003-09-13,20.394183476943752,UK,English,2024-02-03T23:24:44Z,59.52380952,UK,Female,Single (never married),Some University but no degree,"Yes, father only","60,000-99,999 pounds",Student,Psychology,Right,No,No,English,No,NA,NA,NA,NA,NA,NA,NA,NA,NA,NA,NA,NA,English,English,State,No,Yes,No,Yes,6.5,No,No,Yes,Yes,White,Psychology,UK,5.5
19206,BAC,61,1.6986,1.8861590163934427,98.38709677419357,0.01612903225806452,29,3,48.333333333333336,45.83333333333333,2.6269,2.7949724137931033,5,4.666666666666667,7,6,10,9.666666666666666,0.6916478260869565,0.5977266666666666,0.58788125,0.6081624999999999,95.83333333333334,93.75,100,100,0.5838125,0.6126565217391304,0.6916478260869565,100,95.83333333333334,95.83333333333334,0.726104347826087,0.7150625,0.6680458333333333,95.83333333333334,100,100,0.6558695652173913,0.74335,0.7070666666666666,95.83333333333334,100,100,142,136,1.3281640845070422,1.476747794117647,96.5277777777778,0.14858370961060485,2003-04-10,20.82951128976855,UK,English,2024-02-06T23:29:45Z,59.88023952,UK,Non-binary/ third gender,Single (never married),Some University but no degree,"Yes, father only","Less than 20,000 pounds",Unable to work,Psychology,Right,Yes,No,English,No,NA,NA,NA,NA,NA,NA,NA,NA,NA,NA,NA,NA,English,English,State,No,Yes,No,No,6,Yes,Yes,Yes,No,White,Psychology,UK,6
19210,ABC,62,1.4492,1.4978629032258064,100,0,26,6,43.333333333333336,38.333333333333336,2.0684,2.681896153846154,5,4.666666666666667,5,4,10,9.666666666666666,0.5149916666666666,0.5206533333333333,0.53015625,0.5053133333333334,100,93.75,100,93.75,0.5121083333333334,0.5264272727272727,0.5149916666666666,100,91.66666666666666,100,0.6786086956521739,0.6305,0.5546608695652174,95.83333333333334,91.66666666666666,95.83333333333334,0.5584782608695652,0.6832857142857143,0.6267583333333333,95.83333333333334,87.5,100,124,134,1.5264112903225806,1.706518656716418,89.58333333333334,0.1801073663938373,2002-12-31,21.097594202379145,UK,English,2024-02-04T21:30:38Z,59.88023952,UK,Male,Single (never married),Some University but no degree,"Yes, mother only","60,000-99,999 pounds",Student,Psychology,Right,No,No,English,No,NA,NA,NA,NA,NA,NA,NA,NA,NA,NA,NA,NA,English,English,State,Yes,Yes,No,No,10,No,No,No,No,White,Psychology,UK,5
19233,ACB,60,1.6579,1.6937783333333334,96.7741935483871,0.03225806451612906,26,2,43.333333333333336,41.66666666666667,2.0576999999999996,3.129876923076923,5,4.666666666666667,6,5.666666666666667,8,7.333333333333333,0.48195,0.48460625,0.47958125,0.5019375,100,100,100,100,0.49999583333333336,0.47742083333333335,0.48195,100,100,100,0.6839625,0.7042363636363637,0.6589217391304347,100,91.66666666666666,95.83333333333334,0.622775,0.6820136363636363,0.7440260869565217,100,91.66666666666666,95.83333333333334,126,132,1.352922222222222,1.8187719696969695,89.58333333333334,0.4658497474747476,2003-12-01,20.17432351224428,UK,English,2024-02-02T16:07:11Z,59.88023952,UK,Female,Single (never married),Some University but no degree,No,"40,000-59,999 pounds",Student,psychology,Right,No,No,English,No,NA,NA,NA,NA,NA,NA,NA,NA,NA,NA,NA,NA,English,English,State,No,Yes,Yes,Yes,7.5,No,Yes,Yes,No,White,Psychology,UK,5.5
19238,BCA,57,1.4334,1.526378947368421,91.93548387096774,0.08064516129032259,29,6,48.333333333333336,43.333333333333336,2.0999,2.471103448275862,8,7.333333333333333,6,5.333333333333333,8,8,0.5873375,0.6589,0.6932625,0.62464,100,100,100,93.75,0.6164625,0.7047434782608696,0.5873375,100,95.83333333333334,100,1.3170166666666667,1.3779928571428572,1.289875,50,58.333333333333336,50,1.0020083333333334,NA,1.894742857142857,100,NA,58.333333333333336,140,127,1.6067064285714283,2.011307874015748,92.70833333333334,0.4046014454443197,NA,NA,NA,NA,NA,NA,Europe,Female,Single (never married),University Bachelors Degree,No,"Less than 20,000 pounds",Employed part time (up to 39 hours per week),Cognitive psychology,Right,No,No,Others,Yes,60,English,NA,NA,NA,NA,NA,NA,NA,NA,NA,NA,Bulgarian,Bulgarian,State,Yes,Yes,No,No,5.5,No,Yes,Yes,No,White,Psychology,UK,7
19248,CAB,60,1.6666,1.6994683333333334,96.7741935483871,0.03225806451612905,19,2,31.666666666666664,30,2.9055,3.854747368421053,6,5.333333333333333,5,4.666666666666667,7,6.333333333333333,0.69655,0.6626875,0.6525125,0.62613125,100,100,100,100,0.6343541666666667,0.6598666666666667,0.69655,100,100,100,1.0124333333333333,1.0072125,0.8641391304347826,87.5,100,95.83333333333334,0.9141130434782608,1.0241952380952382,0.9490291666666668,95.83333333333334,87.5,100,129,95,2.914544186046512,3.358635789473684,77.77777777777779,0.44409160342717247,1989-05-02,34.812942352206754,UK,English,2024-02-23T10:15:09Z,60.60606061,UK,Female,"Married, or in a domestic partnership",Some University but no degree,No,"20,000-39,999 pounds",Student,psychology,Right,Yes,No,English,No,NA,NA,NA,NA,NA,NA,NA,NA,NA,NA,NA,NA,English,English,State,Yes,No,Yes,Yes,5,No,Yes,Yes,Yes,White,Psychology,UK,5.5
19250,BCA,59,1.5323,1.5563915254237288,95.16129032258064,0.04838709677419357,15,4,25,21.666666666666668,3.3494,4.194266666666667,5,4.666666666666667,7,6.333333333333333,10,9.666666666666666,0.6160083333333333,0.65040625,0.72603125,0.7041937500000001,100,100,100,100,0.6365541666666666,0.7505333333333334,0.6160083333333333,100,100,100,0.8790125,0.9050772727272728,0.7597565217391304,100,91.66666666666666,95.83333333333334,0.812808695652174,0.8870521739130435,0.8428521739130435,95.83333333333334,95.83333333333334,95.83333333333334,125,90,2.276276,3.5352344444444443,74.65277777777779,1.2589584444444442,2000-11-24,23.19193832962583,UK,English,2024-02-02T20:31:53Z,59.88023952,UK,Female,Single (never married),Some University but no degree,"Yes, mother only","60,000-99,999 pounds",Student,Psychology,Right,No,No,English,No,NA,NA,NA,NA,NA,NA,NA,NA,NA,NA,NA,NA,English,English,Public,Yes,Yes,Yes,Yes,6.5,No,Yes,Yes,Yes,White,Psychology,UK,6
19263,ACB,60,1.45,1.5441933333333333,96.7741935483871,0.03225806451612905,24,5,40,35.833333333333336,2.1492500000000003,2.6612708333333335,7,6,6,5.333333333333333,8,8,0.5344416666666667,0.5718375,0.57578125,0.55995625,100,100,100,100,0.5489875,0.5893958333333333,0.5344416666666667,100,100,100,0.8796181818181819,0.7407166666666667,0.8074695652173913,91.66666666666666,100,95.83333333333334,0.6408208333333333,0.87105,0.919904347826087,100,91.66666666666666,95.83333333333334,128,109,1.85275234375,2.858534862385321,82.29166666666666,1.005782518635321,2004-07-16,19.574793528341825,UK,English,2024-02-11T16:38:24Z,59.88023952,UK,Female,Single (never married),Some University but no degree,"Yes, both parents","Less than 20,000 pounds",Student,Psychology,Right,No,No,Arabic,Yes,100,English,NA,NA,NA,NA,NA,NA,NA,NA,NA,NA,English,English,State,No,Yes,No,No,8.5,No,No,Yes,No,Other (Arab or any others),Psychology,UK,6.5
19268,BCA,60,1.3335,1.41895,96.7741935483871,0.03225806451612904,24,1,40,39.166666666666664,3.115,3.661458333333333,7,6.333333333333333,6,5,10,9.666666666666666,0.6059166666666667,0.703,0.6154375,0.5625625,100,93.75,100,100,0.5753478260869566,0.6733333333333333,0.6059166666666667,95.83333333333334,100,100,0.7309166666666667,0.6719583333333333,0.6615416666666667,100,100,100,0.6635416666666667,0.7400416666666667,0.6608333333333334,100,100,100,140,138,2.9358785714285713,3.37668115942029,96.5277777777778,0.44080258799171856,2003-06-22,20.62003343391132,UK,English,2024-02-03T11:12:47Z,62.5,UK,Female,Single (never married),Some University but no degree,"Yes, both parents","60,000-99,999 pounds",Student,Psychology,Right,Yes,No,English,No,NA,NA,NA,NA,NA,NA,NA,NA,NA,NA,NA,NA,English,English,Public,Yes,Yes,No,Yes,7,No,Yes,Yes,Yes,White,Psychology,UK,6.5
19269,ACB,60,1.34275,1.3562366666666668,96.7741935483871,0.03225806451612904,25,5,41.66666666666667,37.5,2.5194,2.802272,6,5.666666666666667,7,6,10,9.666666666666666,0.5592291666666667,0.62825625,0.569625,0.60546,100,100,100,93.75,0.5455791666666667,0.6588739130434782,0.5592291666666667,100,95.83333333333334,100,0.7079208333333333,0.7043583333333333,0.6554347826086957,100,100,95.83333333333334,0.65925,0.7421260869565217,0.66995,100,95.83333333333334,100,137,131,1.394061313868613,1.717285496183206,93.05555555555556,0.32322418231459293,2004-06-29,19.61870485379117,UK,English,2024-02-10T17:34:00Z,59.88023952,UK,Female,Single (never married),Completed Secondary School,"Yes, both parents","More than 100,000 pounds",Student,Psychology,Right,No,No,English,No,NA,NA,NA,NA,NA,NA,NA,NA,NA,NA,NA,NA,English,English,State,No,Yes,No,No,7,No,No,Yes,Yes,White,Psychology,UK,6.5
19273,BAC,59,1.182,1.263486440677966,95.16129032258064,0.04838709677419355,41,6,68.33333333333333,63.33333333333333,1.6477,1.8338146341463415,7,6.333333333333333,6,5.333333333333333,10,9.666666666666666,0.4533217391304348,0.4523466666666667,0.5182125,0.4431866666666667,95.83333333333334,93.75,100,93.75,0.460025,0.48562727272727274,0.4533217391304348,100,91.66666666666666,95.83333333333334,0.6884045454545454,0.6624565217391304,0.6041260869565217,91.66666666666666,95.83333333333334,95.83333333333334,0.585175,0.723885,0.6564333333333333,100,83.33333333333334,100,144,121,0.999448611111111,1.2376330578512398,92.01388888888889,0.23818444674012873,2003-03-04,20.92817068696605,UK,English,2024-02-06T00:20:39Z,59.17159763,UK,Female,Single (never married),Some University but no degree,"Yes, both parents","More than 100,000 pounds",Student,Psychology (BSc) Hons,Right,No,No,English,No,NA,NA,NA,NA,NA,NA,NA,NA,NA,NA,NA,NA,English,English,Public,No,Yes,Yes,No,7,No,No,Yes,Yes,White,Psychology,UK,6.5
19281,CAB,62,1.333,1.4455483870967742,100,0,17,2,28.333333333333332,26.666666666666668,2.865,4.2989411764705885,7,6.333333333333333,5,4.666666666666667,8,7.333333333333333,0.6,0.6721875,0.583875,0.666625,100,100,100,100,0.58675,0.6950416666666667,0.6,100,100,100,0.8742608695652174,0.8040416666666667,0.7786666666666666,95.83333333333334,100,100,0.7449166666666667,0.8715217391304347,0.8404166666666667,100,95.83333333333334,100,132,112,2.292,3.0010714285714286,84.72222222222221,0.7090714285714288,2003-10-21,20.302693177111056,UK,English,2024-02-08T13:24:30Z,58.82352941,UK,Female,Single (never married),Some University but no degree,"Yes, father only","60,000-99,999 pounds",Student,Psychology,Right,No,No,English,No,NA,NA,NA,NA,NA,NA,NA,NA,NA,NA,NA,NA,English,English,Public,Yes,No,Yes,Yes,5,No,Yes,Yes,No,White,Psychology,UK,6
19294,CAB,59,1.404,1.4469491525423728,95.16129032258064,0.04838709677419357,25,3,41.66666666666667,39.166666666666664,2.406,3.11424,6,5.666666666666667,7,6.333333333333333,8,7.333333333333333,0.6388260869565218,0.653,0.6869999999999999,0.7213125,95.83333333333334,100,100,100,0.60875,0.7654583333333334,0.6388260869565218,100,100,95.83333333333334,0.9870434782608696,0.866625,0.8429583333333334,95.83333333333334,100,100,0.8019999999999999,1.0922608695652174,0.80675,100,95.83333333333334,100,133,115,1.8839097744360904,2.3958173913043477,86.11111111111111,0.5119076168682575,2003-11-18,20.22164071187289,UK,English,2024-02-06T22:54:08Z,62.5,UK,Female,Single (never married),Some University but no degree,"Yes, mother only","20,000-39,999 pounds",Student,Psychology,Right,No,No,English,No,NA,NA,NA,NA,NA,NA,NA,NA,NA,NA,NA,NA,English,English,Faith,No,Yes,No,Yes,6.5,No,Yes,Yes,No,White,Psychology,UK,6.5
19298,CBA,59,1.4158,1.4234033898305083,95.16129032258064,0.04838709677419356,26,1,43.333333333333336,42.5,2.42575,3.4572846153846153,5,4.666666666666667,5,4.333333333333333,7,6.333333333333333,0.7213583333333333,0.71954375,0.78448125,0.69679375,100,100,100,100,0.6442833333333333,0.8229291666666667,0.7213583333333333,100,100,100,0.7811692307692307,0.8989466666666667,0.8344933333333333,54.166666666666664,62.5,62.5,0.7238,0.4854,1.0166777777777778,100,4.166666666666666,75,74,71,2.3974635135135136,2.748080281690141,50.34722222222222,0.35061676817662724,2003-09-09,20.425839935799935,UK,English,2024-02-11T12:54:46Z,56.81818182,UK,Female,Single (never married),"Graduate or professional degree (MA, MS, MBA, PhD, JD, MD, DDS)",No,"60,000-99,999 pounds",Student,psychology,Right,No,No,English,No,NA,NA,NA,NA,NA,NA,NA,NA,NA,NA,NA,NA,English,English,State,No,Yes,No,No,8,No,Yes,Yes,Yes,White,Psychology,UK,5
19308,CBA,60,1.3998499999999998,1.44101,96.7741935483871,0.03225806451612904,22,6,36.666666666666664,31.666666666666664,2.66655,2.945331818181818,7,6.333333333333333,6,5.333333333333333,9,8.666666666666666,0.4689875,0.51150625,0.479425,0.5473466666666666,100,100,100,93.75,0.4990333333333334,0.5255782608695652,0.4689875,100,95.83333333333334,100,0.7304363636363637,0.6380652173913044,0.6083541666666666,91.66666666666666,95.83333333333334,100,0.5965208333333334,0.6792318181818182,0.6993913043478261,100,91.66666666666666,95.83333333333334,136,125,1.6606544117647055,1.9832576,90.625,0.3226031882352942,2001-01-24,23.041101994448244,UK,English,2024-02-08T18:18:00Z,57.47126437,UK,Female,Single (never married),Some University but no degree,"Yes, both parents","20,000-39,999 pounds",Employed full time (40 or more hours per week),Psychology,Right,No,No,English,No,NA,NA,NA,NA,NA,NA,NA,NA,NA,NA,NA,NA,English,English,Public,No,Yes,Yes,Yes,6,No,No,Yes,No,White,Psychology,UK,6.5
19310,ACB,60,1.433,1.4778833333333332,96.7741935483871,0.03225806451612905,28,1,46.666666666666664,45.83333333333333,2.948,3.0735714285714284,4,3.3333333333333335,4,3.6666666666666665,8,8,0.5835217391304348,0.6310625,0.585875,0.6452666666666667,95.83333333333334,100,100,93.75,0.5745,0.6679130434782609,0.5835217391304348,100,95.83333333333334,95.83333333333334,0.8730869565217391,0.801304347826087,0.7253333333333334,95.83333333333334,95.83333333333334,100,0.7702083333333334,0.8653181818181818,0.7665416666666667,100,91.66666666666666,100,111,85,1.1793153153153153,1.847541176470588,68.05555555555556,0.6682258611552727,2003-10-08,20.33388536736,UK,English,2024-02-06T22:50:20Z,58.82352941,UK,Female,Single (never married),Completed Secondary School,"Yes, both parents","40,000-59,999 pounds",Student,psychology,Right,No,No,English,No,NA,NA,NA,NA,NA,NA,NA,NA,NA,NA,NA,NA,English,English,State,No,Yes,No,No,7,No,No,Yes,Yes,White,Psychology,UK,4
19326,ABC,61,1.233,1.2891081967213114,98.38709677419357,0.01612903225806452,25,2,41.66666666666667,40,2.2184,3.13934,7,6,8,7.333333333333333,8,7.333333333333333,0.5403958333333333,0.50046,0.58703125,0.56596875,100,93.75,100,100,0.5262583333333333,0.5793347826086956,0.5403958333333333,100,95.83333333333334,100,0.881595652173913,0.7421869565217392,0.7488652173913043,95.83333333333334,95.83333333333334,95.83333333333334,0.7077521739130435,0.91275,0.7588374999999999,95.83333333333334,91.66666666666666,100,139,123,2.1938877697841725,2.6928439024390243,90.9722222222222,0.4989561326548517,1998-11-26,25.2016641545935,UK,English,2024-02-07T21:47:16Z,60.24096386,UK,Female,Single (never married),Some University but no degree,No,"40,000-59,999 pounds",Student,Psychology,Right,Yes,No,English,Yes,50,French,NA,NA,NA,NA,NA,NA,NA,NA,NA,NA,English,English,Public,Yes,Yes,Yes,Yes,4.5,No,Yes,Yes,Yes,White,Psychology,UK,7.5
19355,BCA,60,1.59125,1.666655,96.7741935483871,0.03225806451612905,23,5,38.333333333333336,34.166666666666664,2.9621,3.105517391304348,6,5,7,6,10,9.333333333333334,0.5257666666666667,0.48762666666666665,0.50706875,0.5477125,100,93.75,100,100,0.4980791666666667,0.5320434782608696,0.5257666666666667,100,95.83333333333334,100,0.7060304347826087,0.6778772727272727,0.6299416666666666,95.83333333333334,91.66666666666666,100,0.6600333333333334,0.7324863636363637,0.622395652173913,100,91.66666666666666,95.83333333333334,128,116,2.46823125,2.699269827586207,84.72222222222221,0.23103857758620672,2002-09-25,21.36876148816767,UK,English,2024-02-06T22:33:47Z,60.97560976,UK,Male,Single (never married),University Bachelors Degree,"Yes, mother only","20,000-39,999 pounds",Student,Psychology,Right,No,No,English,No,NA,NA,NA,NA,NA,NA,NA,NA,NA,NA,NA,NA,English,English,Public,No,Yes,No,No,9,No,Yes,Yes,Yes,White,Psychology,UK,6.5
19363,ACB,60,1.44965,1.5345283333333333,96.7741935483871,0.03225806451612906,15,4,25,21.666666666666668,3.3829,4.21942,8,7.333333333333333,6,5.666666666666667,8,7.333333333333333,0.5362956521739131,0.51644,0.54270625,0.5149875,95.83333333333334,93.75,100,100,0.5109347826086956,0.5382583333333333,0.5362956521739131,95.83333333333334,100,95.83333333333334,1.028318181818182,1.0095173913043478,0.8070333333333333,91.66666666666666,95.83333333333334,100,0.8985125,0.9849714285714286,0.95675,100,87.5,100,104,104,1.7804596153846153,1.7325548076923076,72.22222222222221,-0.04790480769230765,2003-07-22,20.571618868164876,UK,English,2024-02-15T18:48:39Z,59.17159763,UK,Female,Single (never married),Completed Secondary School,No,"40,000-59,999 pounds",Student,Psychology,Right,No,No,English,No,NA,NA,NA,NA,NA,NA,NA,NA,NA,NA,NA,NA,English,English,State,Yes,Yes,No,Yes,5,No,Yes,Yes,No,White,Psychology,UK,7
19374,BAC,62,1.3898,1.4260354838709677,100,0,30,5,50,45.83333333333333,1.97145,2.3432,9,8.666666666666666,9,8.666666666666666,8,7.333333333333333,0.53775,0.54223125,0.55711875,0.538175,100,100,100,100,0.5194041666666667,0.5722791666666667,0.53775,100,100,100,0.7142666666666667,0.6697208333333333,0.6404166666666666,100,100,100,0.6662375,0.6972125,0.6609541666666666,100,100,100,139,134,1.7378827338129497,2.09975,94.79166666666666,0.3618672661870501,2003-03-09,20.910971135130684,UK,English,2024-02-04T17:34:22Z,59.17159763,UK,Female,Single (never married),Some University but no degree,"Yes, both parents","Less than 20,000 pounds",Student,Psychology with counselling,Right,Yes,No,English,No,NA,NA,NA,NA,NA,NA,NA,NA,NA,NA,NA,NA,English,English,Public,No,Yes,No,No,8,No,No,Yes,Yes,White,Psychology,UK,9
19377,ABC,59,1.2026,1.9535101694915251,95.16129032258064,0.04838709677419357,28,1,46.666666666666664,45.83333333333333,2.2313,2.9506107142857143,7,6,7,6.333333333333333,9,8.333333333333334,0.5042217391304348,0.5380642857142857,0.50643125,0.5579933333333333,95.83333333333334,87.5,100,93.75,0.5251636363636364,0.5413956521739131,0.5042217391304348,91.66666666666666,95.83333333333334,95.83333333333334,0.6857285714285715,0.8106541666666667,0.7078083333333334,87.5,100,100,0.7199083333333334,0.8600857142857143,0.6459916666666666,100,87.5,100,129,124,2.2748232558139536,2.399826612903226,87.84722222222221,0.12500335708927235,2002-11-22,21.23431349548128,UK,English,2024-02-15T19:59:31Z,59.99880002,UK,Female,Single (never married),Completed Secondary School,"Yes, mother only","40,000-59,999 pounds",Employed part time (up to 39 hours per week),Psychology,Right,No,No,English,No,NA,NA,NA,NA,NA,NA,NA,NA,NA,NA,NA,NA,English,English,Public,No,Yes,Yes,No,7,No,No,No,Yes,White,Psychology,UK,7
19377,CBA,60,1.2583,1.3434283333333334,96.7741935483871,0.03225806451612905,20,4,33.33333333333333,30,2.7409,3.727465,8,7.333333333333333,7,6.333333333333333,3,2.3333333333333335,0.5185041666666667,0.54893125,0.5114062500000001,0.48616,100,100,100,93.75,0.4953916666666667,0.5377565217391305,0.5185041666666667,100,95.83333333333334,100,0.8388095238095238,0.7807681818181819,0.8264125,87.5,91.66666666666666,100,0.7646727272727273,0.8945952380952381,0.7923541666666667,91.66666666666666,87.5,100,134,120,2.2367776119402984,2.8371775,88.19444444444444,0.6003998880597017,2002-11-22,21.195031100527288,UK,English,2024-02-01T11:38:33Z,59.99880002,UK,Female,Single (never married),Completed Secondary School,"Yes, mother only","40,000-59,999 pounds",Employed part time (up to 39 hours per week),Psychology,Right,No,No,English,No,NA,NA,NA,NA,NA,NA,NA,NA,NA,NA,NA,NA,English,English,Public,No,Yes,Yes,No,7,No,No,No,Yes,White,Psychology,UK,7.5
19391,ABC,62,1.2985,1.3600209677419357,100,0,20,5,33.33333333333333,29.166666666666668,2.3636,2.762745,6,5.666666666666667,6,5.666666666666667,10,9.333333333333334,0.41801739130434784,0.43086,0.4573875,0.4293384615384616,95.83333333333334,93.75,100,81.25,0.4351833333333333,0.445905,0.41801739130434784,100,83.33333333333334,95.83333333333334,0.5984130434782609,0.5950285714285715,0.5435478260869565,95.83333333333334,87.5,95.83333333333334,0.5091416666666667,0.686905,0.5566608695652174,100,83.33333333333334,95.83333333333334,132,119,1.9443181818181816,2.2544050420168067,87.15277777777779,0.31008686019862486,2003-04-29,20.815069362625803,UK,English,2024-02-20T16:53:52Z,60.24096386,UK,Male,Single (never married),Completed Secondary School,"Yes, both parents","40,000-59,999 pounds",Student,psychology with counselling,Right,Yes,No,English,No,NA,NA,NA,NA,NA,NA,NA,NA,NA,NA,NA,NA,English,English,Public,No,Yes,Yes,Yes,5,No,Yes,Yes,Yes,White,Psychology,UK,6
19423,ABC,61,1.6184,1.6551131147540985,98.38709677419357,0.01612903225806452,20,4,33.33333333333333,30,2.2322,3.3356700000000004,6,5.666666666666667,7,6,10,9.333333333333334,0.5988916666666667,0.61595625,0.6091375,0.59029375,100,100,100,100,0.5677375,0.6425208333333333,0.5988916666666667,100,100,100,0.8877375,0.9078869565217392,0.8172041666666666,100,95.83333333333334,100,0.790575,0.9278130434782608,0.8952708333333333,100,95.83333333333334,100,140,126,2.101809285714286,2.4238007936507935,92.36111111111111,0.32199150793650766,1983-12-16,40.14631823573402,UK,English,2024-02-07T10:37:32Z,60.97560976,UK,Male,"Married, or in a domestic partnership",Some University but no degree,"Yes, both parents","40,000-59,999 pounds",Student,Psychology with Counselling,Right,No,No,English,No,NA,NA,NA,NA,NA,NA,NA,NA,NA,NA,NA,NA,English,English,State,No,Yes,No,Yes,8,Yes,No,Yes,Yes,White,Psychology,UK,6.5
19424,CBA,59,1.2839,1.3330016949152543,95.16129032258064,0.04838709677419355,24,5,40,35.833333333333336,2.40885,2.813529166666666,9,8,5,4.666666666666667,8,7.333333333333333,0.47380416666666664,0.476225,0.4651125,0.50835625,100,100,100,100,0.45061666666666667,0.5158458333333333,0.47380416666666664,100,100,100,0.6518739130434783,0.5822708333333333,0.5431416666666666,95.83333333333334,100,100,0.558475,0.6322521739130434,0.5857416666666667,100,95.83333333333334,100,132,107,1.4690060606060606,1.965478504672897,82.98611111111111,0.4964724440668365,1987-07-17,36.60068387222096,UK,English,2024-02-21T09:35:41Z,59.52380952,UK,Male,"Married, or in a domestic partnership",University Bachelors Degree,No,"Less than 20,000 pounds",Employed part time (up to 39 hours per week),Psychology with Counselling,Right,No,No,English,No,NA,NA,NA,NA,NA,NA,NA,NA,NA,NA,NA,NA,English,English,Public,Yes,Yes,No,Yes,4,No,Yes,Yes,Yes,White,Psychology,UK,7
19431,BCA,62,1.2328,1.2463354838709677,100,0,22,3,36.666666666666664,34.166666666666664,2.7117500000000003,3.639527272727273,7,6,6,5.333333333333333,10,10,0.4925434782608696,0.67285,0.525375,0.5355714285714286,95.83333333333334,100,100,87.5,0.5160652173913044,0.6434826086956522,0.4925434782608696,95.83333333333334,95.83333333333334,95.83333333333334,0.6693347826086956,0.6676904761904762,0.5715916666666667,95.83333333333334,87.5,100,0.5854541666666667,0.6748809523809524,0.6483043478260869,100,87.5,95.83333333333334,116,106,2.006240517241379,2.46415,77.08333333333334,0.457909482758621,2004-03-16,19.889189289204506,UK,English,2024-02-04T12:37:59Z,59.88023952,UK,Female,Single (never married),Some University but no degree,No,"20,000-39,999 pounds",Student,psychology,Right,No,No,English,No,NA,NA,NA,NA,NA,NA,NA,NA,NA,NA,NA,NA,English,English,Public,Yes,No,Yes,Yes,5,No,Yes,Yes,Yes,White,Psychology,UK,6.5
19456,CBA,62,1.6418,1.6801596774193548,100,0,24,4,40,36.666666666666664,2.3897000000000004,2.8928291666666666,8,7,8,7,8,7.333333333333333,0.6057208333333334,0.63445,0.6468375,0.62796875,100,100,100,100,0.6294166666666667,0.6434208333333333,0.6057208333333334,100,100,100,0.8951705882352942,0.8396772727272728,0.93699375,70.83333333333334,91.66666666666666,66.66666666666666,0.7335625,0.9076384615384616,1.0709944444444444,100,54.166666666666664,75,135,104,1.7650607407407408,2.336333653846154,82.98611111111111,0.5712729131054131,2003-08-19,20.50848591230005,UK,English,2024-02-20T17:23:15Z,60.24096386,UK,Female,Single (never married),Some University but no degree,No,"Less than 20,000 pounds",Student,PSYCHOLOGY,Right,No,No,English,No,NA,NA,NA,NA,NA,NA,NA,NA,NA,NA,NA,NA,English,English,Public,Yes,Yes,No,Yes,5.5,No,Yes,Yes,Yes,White,Psychology,UK,8
19461,CBA,59,1.333,1.358,95.16129032258064,0.04838709677419357,20,2,33.33333333333333,31.666666666666664,3.4245,4.00955,5,4.333333333333333,6,5.333333333333333,9,8.333333333333334,0.60720833333333335,0.5654375,0.6093125,0.6224000000000001,100,100,100,93.75,0.5859583333333334,0.6116956521739131,0.60720833333333335,100,95.83333333333334,100,0.8484090909090909,0.8339166666666666,0.7832083333333333,91.66666666666666,100,100,0.800304347826087,0.8699565217391304,0.7941666666666667,95.83333333333334,95.83333333333334,100,112,121,3.772017857142857,4.45303305785124,80.90277777777779,0.6810152007083827,2004-04-17,19.826414626143936,UK,English,2024-02-13T14:21:02Z,142.8571429,UK,Female,Single (never married),Vocational or Similar,No,"40,000-59,999 pounds",Student,psychology with counselling,Right,No,No,English,No,NA,NA,NA,NA,NA,NA,NA,NA,NA,NA,NA,NA,English,English,State,No,Yes,No,Yes,4,No,No,Yes,Yes,White,Psychology,UK,5.5
19475,CAB,58,1.483,1.5188948275862069,93.5483870967742,0.06451612903225808,16,6,26.666666666666668,21.666666666666668,2.56455,3.54263125,6,5.666666666666667,6,5,10,9.333333333333334,0.5543208333333334,0.5858875,0.61158125,0.64541875,100,100,100,100,0.6164208333333333,0.6121708333333333,0.5543208333333334,100,100,100,0.649375,0.6315333333333333,0.5954333333333334,100,100,100,0.5801208333333333,0.6729166666666667,0.6233041666666667,100,100,100,140,134,2.7609914285714288,3.4612537313432834,95.13888888888889,0.7002623027718546,1999-11-17,24.212250877348087,UK,English,2024-02-02T12:35:28Z,59.88023952,UK,Female,Single (never married),Some University but no degree,No,"Less than 20,000 pounds",Student,psychology with counselling,Left,Yes,No,English,Yes,25,french,NA,NA,NA,NA,NA,NA,NA,NA,NA,NA,English,English,Public,Yes,Yes,Yes,No,9,Yes,Yes,Yes,Yes,White,Psychology,UK,6
19480,CAB,60,1.7601,1.8689916666666664,96.7741935483871,0.03225806451612904,16,2,26.666666666666668,25,3.54805,4.3144,9,8,9,8.666666666666666,10,9.333333333333334,0.6871541666666667,0.80740625,0.7501375,0.65486,100,100,100,93.75,0.6676958333333334,0.8138652173913044,0.6871541666666667,100,95.83333333333334,100,1.2904375,1.0981291666666666,0.9500454545454544,100,100,91.66666666666666,1.166191304347826,1.101708695652174,1.0860375,95.83333333333334,95.83333333333334,100,131,126,2.9656,2.657524603174603,89.23611111111111,-0.3080753968253971,2003-07-17,20.578817020907803,UK,English,2024-02-13T09:54:36Z,59.88023952,UK,Female,Single (never married),Some University but no degree,No,"Less than 20,000 pounds",Student,Psychology with forensic investigation,Right,Yes,No,English,No,NA,NA,NA,NA,NA,NA,NA,NA,NA,NA,NA,NA,English,English,Public,No,No,Yes,Yes,5,Yes,No,Yes,Yes,Mixed two or more ethnic groups,Psychology,UK,9
19489,ACB,59,1.467,1.5612542372881355,95.16129032258064,0.04838709677419356,20,3,33.33333333333333,30.833333333333336,2.582,3.5382,7,6.666666666666667,6,5.333333333333333,8,7.666666666666667,0.7176521739130435,0.745,0.806,0.6842857142857143,95.83333333333334,100,100,87.5,0.6741666666666667,0.828,0.7176521739130435,100,91.66666666666666,95.83333333333334,0.8810833333333333,0.7665217391304348,0.7235,100,95.83333333333334,100,0.725875,0.8148260869565217,0.8324166666666667,100,95.83333333333334,100,139,134,3.3169928057553957,4.0674925373134325,94.79166666666666,0.7504997315580368,2003-08-31,20.447761586812685,UK,English,2024-02-10T13:04:41Z,30.3030303,UK,Female,Single (never married),Some University but no degree,"Yes, father only","60,000-99,999 pounds",Employed part time (up to 39 hours per week),Psychology with Forensic investigation,Left,No,No,English,No,NA,NA,NA,NA,NA,NA,NA,NA,NA,NA,NA,NA,English,English,Public,Yes,Yes,No,No,7,No,Yes,Yes,Yes,White,Psychology,UK,6.5
19492,ACB,61,1.6989,1.7932016393442622,98.38709677419357,0.01612903225806452,20,2,33.33333333333333,31.666666666666664,3.1639999999999997,3.17386,6,5.666666666666667,5,4.666666666666667,10,9.333333333333334,0.5335541666666667,0.54873125,0.5445875,0.52104375,100,100,100,100,0.49593333333333334,0.5803083333333333,0.5335541666666667,100,100,100,0.6739130434782609,0.6315125,0.6053333333333334,95.83333333333334,100,100,0.6203875,0.6789565217391305,0.611625,100,95.83333333333334,100,138,138,2.169231884057971,3.079844927536232,95.83333333333334,0.9106130434782608,2004-06-13,19.66854633042437,UK,English,2024-02-12T22:28:37Z,30.12048193,UK,Female,Single (never married),Some University but no degree,"Yes, mother only","60,000-99,999 pounds",Employed part time (up to 39 hours per week),psychology with forensic investigation,Right,No,No,English,No,NA,NA,NA,NA,NA,NA,NA,NA,NA,NA,NA,NA,English,English,Public,Yes,Yes,No,Yes,9,No,Yes,Yes,Yes,White,Psychology,UK,5.5
19493,CBA,60,1.383,1.5600666666666667,96.7741935483871,0.03225806451612905,22,3,36.666666666666664,34.166666666666664,2.366,2.648909090909091,7,6.333333333333333,7,6,7,7,0.6209583333333334,0.6631333333333334,0.7041875,0.6708125,100,93.75,100,100,0.6287083333333333,0.7329565217391304,0.6209583333333334,100,95.83333333333334,100,0.7256190476190476,0.7968333333333333,0.633875,87.5,100,100,0.7185,0.732904761904762,0.7058333333333333,100,87.5,100,133,108,1.6269323308270678,2.182212962962963,83.68055555555556,0.5552806321358952,2004-06-02,19.686251746837527,UK,English,2024-02-08T09:40:58Z,30.3030303,UK,Female,Single (never married),Vocational or Similar,NA,"Less than 20,000 pounds",Student,Psychology with Forensic Investigation,Right,Yes,No,English,No,NA,NA,NA,NA,NA,NA,NA,NA,NA,NA,NA,NA,English,English,State,No,Yes,No,Yes,6,No,No,Yes,Yes,"Asian (Indian, Pakistani, Bangladeshi, Chinese, any other Asian background)",Psychology,UK,7
19503,BCA,59,1.6,1.6523322033898304,95.16129032258064,0.04838709677419356,30,3,50,47.5,2.1829,2.6403866666666667,4,3.6666666666666665,7,6,10,10,0.6554916666666667,0.7568928571428571,0.82180625,0.8608125,100,87.5,100,100,0.6805666666666667,0.9629454545454544,0.6554916666666667,100,91.66666666666666,100,0.7603708333333333,0.6647826086956522,0.6116083333333333,100,95.83333333333334,100,0.6114583333333333,0.6661173913043478,0.7592416666666667,100,95.83333333333334,100,143,138,1.339041958041958,1.6036057971014492,97.56944444444444,0.2645638390594911,NA,NA,NA,NA,NA,NA,NA,NA,NA,NA,NA,NA,NA,NA,NA,NA,NA,NA,NA,NA,NA,NA,NA,NA,NA,NA,NA,NA,NA,NA,NA,NA,NA,NA,NA,NA,NA,NA,NA,NA,NA,NA,NA,NA,NA,UK,5.5
19506,BCA,60,1.4596,1.5037266666666669,96.7741935483871,0.03225806451612904,26,4,43.333333333333336,40,2.42025,2.64185,6,5.666666666666667,7,6.333333333333333,10,9.333333333333334,0.6003875,0.59008125,0.52850625,0.5871,100,100,100,100,0.5656791666666666,0.5714458333333333,0.6003875,100,100,100,0.8313,0.7986375,0.7202208333333333,95.83333333333334,100,100,0.7446791666666667,0.8562826086956522,0.7502375,100,95.83333333333334,100,136,132,1.3791411764705883,1.5442681818181818,93.05555555555556,0.1651270053475935,2004-01-21,20.03448203887494,UK,English,2024-02-02T14:16:10Z,59.52380952,UK,Female,Single (never married),Some University but no degree,NA,"More than 100,000 pounds",Student,Psychology with Forensic Investigation,Right,No,No,English,No,NA,NA,NA,NA,NA,NA,NA,NA,NA,NA,NA,NA,English,English,State,No,Yes,No,No,6.5,No,Yes,Yes,Yes,White,Psychology,UK,6.5
19521,BCA,59,1.6405,1.716118644067797,95.16129032258064,0.04838709677419355,16,7,26.666666666666668,20.833333333333336,2.71035,3.1067,6,5.333333333333333,3,2.6666666666666665,9,8.333333333333334,0.5050652173913044,0.5469066666666667,0.52645625,0.52806875,95.83333333333334,93.75,100,100,0.4665125,0.6034652173913043,0.5050652173913044,100,95.83333333333334,95.83333333333334,0.6537499999999999,0.7185652173913043,0.6096391304347826,83.33333333333334,95.83333333333334,95.83333333333334,0.5753208333333333,0.7433526315789474,0.6822739130434783,100,79.16666666666666,95.83333333333334,135,100,2.096403703703704,2.278428,81.59722222222221,0.18202429629629613,2002-10-13,21.326924037379264,UK,English,2024-02-09T15:48:58Z,72.99270073,UK,Non-binary/ third gender,Single (never married),Some University but no degree,No,"Less than 20,000 pounds",Employed part time (up to 39 hours per week),Psychology with forensics,Left,No,No,English,No,NA,NA,NA,NA,NA,NA,NA,NA,NA,NA,NA,NA,English,English,Public,No,Yes,Yes,Yes,9,No,Yes,Yes,Yes,White,Psychology,UK,4.5
19525,CAB,61,1.4508,1.4582868852459017,98.38709677419357,0.01612903225806452,24,5,40,35.833333333333336,2.0826,2.532216666666667,7,6,6,5.666666666666667,9,9,0.5715749999999999,0.6149249999999999,0.6147625,0.5681533333333333,100,100,100,93.75,0.5755083333333333,0.6254391304347826,0.5715749999999999,100,95.83333333333334,100,0.6133208333333333,0.61375,0.561425,100,100,100,0.5821083333333333,0.6197541666666667,0.5866333333333333,100,100,100,138,133,1.2934188405797102,1.5247503759398495,94.0972222222222,0.23133153536013928,2004-03-27,19.873558131702033,UK,English,2024-02-09T19:36:38Z,59.88023952,UK,Female,Single (never married),Some University but no degree,"Yes, mother only","60,000-99,999 pounds",Student,psychology with forensic investigation,Right,No,No,English,No,NA,NA,NA,NA,NA,NA,NA,NA,NA,NA,NA,NA,English,English,Faith,Yes,Yes,Yes,Yes,4,No,Yes,Yes,Yes,White,Psychology,UK,6.5
19533,CBA,60,1.19555,1.476225,96.7741935483871,0.03225806451612905,16,5,26.666666666666668,22.5,2.78315,3.9127,7,6.666666666666667,6,5.333333333333333,8,7.666666666666667,0.7039909090909091,0.6280866666666667,0.7726375,0.69726875,91.66666666666666,93.75,100,100,0.7605999999999999,0.638495652173913,0.7039909090909091,100,95.83333333333334,91.66666666666666,0.6533076923076923,0.5722272727272727,0.7397,54.166666666666664,45.83333333333333,58.333333333333336,0.5763,1.2778,0.7718692307692308,100,4.166666666666666,54.166666666666664,131,98,3.0866297709923662,3.869885714285714,79.51388888888889,0.7832559432933479,2004-03-31,19.86214889887064,UK,English,2024-02-09T15:35:50Z,58.47953216,UK,Female,Single (never married),Some University but no degree,No,"20,000-39,999 pounds",Student,Psychology with Forensic Investigation,Right,No,No,English,No,NA,NA,NA,NA,NA,NA,NA,NA,NA,NA,NA,NA,English,English,State,Yes,No,Yes,Yes,4,No,Yes,Yes,No,White,Psychology,UK,6.5
19542,ACB,61,1.2663,1.2963491803278688,98.38709677419357,0.01612903225806452,22,3,36.666666666666664,34.166666666666664,2.4171,3.1707,9,8,7,6.666666666666667,8,7.333333333333333,0.5624208333333334,0.5434687500000001,0.5478866666666666,0.54490625,100,100,93.75,100,0.51865000000000006,0.5732478260869566,0.5624208333333334,100,95.83333333333334,100,0.6596260869565217,0.5976833333333333,0.5653333333333334,95.83333333333334,100,100,0.5602333333333334,0.6523695652173913,0.6097375,100,95.83333333333334,100,135,116,2.5848940740740742,2.5101051724137933,87.15277777777779,-0.07478890166028096,2004-02-05,19.996537029273455,UK,English,2024-02-03T17:38:36Z,58.47953216,UK,Male,Single (never married),Completed Secondary School,"Yes, both parents","40,000-59,999 pounds",Student,BS,Left,No,No,English,No,NA,NA,NA,NA,NA,NA,NA,NA,NA,NA,NA,NA,English,English,Private,Yes,Yes,Yes,Yes,7,No,Yes,No,No,White,Psychology,UK,8
19543,CAB,59,1.55,1.5836220338983051,95.16129032258064,0.04838709677419357,21,2,35,33.33333333333333,2.2655,3.8640857142857143,5,4.666666666666667,7,6,10,10,0.6301875,0.7308125,0.572,0.58291875,100,100,93.75,100,0.5961347826086957,0.662025,0.6301875,95.83333333333334,100,100,0.8164761904761905,0.8311045454545455,0.8065913043478261,87.5,91.66666666666666,95.83333333333334,0.7398833333333333,0.9193055555555556,0.8198833333333333,100,75,100,136,133,2.4930654411764706,2.8673308270676694,93.4027777777778,0.3742653858911989,2004-02-03,20.015010376074223,UK,English,2024-02-08T11:34:51Z,60.60606061,UK,Female,Single (never married),Some University but no degree,No,"Less than 20,000 pounds",Employed part time (up to 39 hours per week),psychology,Right,No,No,English,No,NA,NA,NA,NA,NA,NA,NA,NA,NA,NA,NA,NA,English,English,Public,No,Yes,No,Yes,8.5,Yes,No,Yes,No,White,Psychology,UK,6
19550,BCA,58,1.49155,1.5411241379310343,93.5483870967742,0.06451612903225809,31,6,51.66666666666667,46.666666666666664,1.9944,2.1571612903225805,7,6.666666666666667,7,6.666666666666667,10,9.333333333333334,0.5092083333333334,0.529125,0.5618125,0.5325466666666666,100,100,100,93.75,0.4998708333333333,0.5846217391304348,0.5092083333333334,100,95.83333333333334,100,0.5879954545454545,0.598295652173913,0.508925,91.66666666666666,95.83333333333334,100,0.5224826086956522,0.5980624999999999,0.5700136363636363,95.83333333333334,100,91.66666666666666,121,120,1.0542702479338844,1.2029541666666663,83.68055555555556,0.1486839187327822,2004-01-16,20.06566563186047,UK,English,2024-02-08T23:37:29Z,59.88023952,UK,Non-binary/ third gender,Single (never married),Some University but no degree,"Yes, mother only","40,000-59,999 pounds",Student,Psychology with Forensic Investigation,Right,Yes,No,English,No,NA,NA,NA,NA,NA,NA,NA,NA,NA,NA,NA,NA,English,English,Private,No,Yes,No,No,7,No,Yes,Yes,No,White,Psychology,UK,7
19617,ABC,58,1.3,1.3305689655172417,93.5483870967742,0.06451612903225809,26,2,43.333333333333336,41.66666666666667,2.6494999999999997,3.2062307692307694,5,4.333333333333333,5,4.666666666666667,8,7.333333333333333,0.5268333333333334,0.50775,0.502625,0.538375,100,100,100,100,0.4518333333333333,0.5806666666666667,0.5268333333333334,100,100,100,0.9308461538461538,0.5387,0.7003333333333334,54.166666666666664,41.66666666666667,62.5,0.556375,NA,1.0457142857142856,100,NA,58.333333333333336,135,137,2.751251851851852,2.9588686131386863,94.44444444444444,0.20761676128683423,1999-12-06,24.214958534521,UK,English,2024-02-22T12:19:35Z,76.92307692,UK,Female,Single (never married),Some University but no degree,"Yes, father only","20,000-39,999 pounds",Employed part time (up to 39 hours per week),psychology,Right,No,No,English,No,NA,NA,NA,NA,NA,NA,NA,NA,NA,NA,NA,NA,English,English,Public,No,Yes,Yes,Yes,6,Yes,Yes,Yes,Yes,White,Psychology,UK,5
19631,CBA,59,1.2484,1.3528033898305083,95.16129032258064,0.04838709677419355,26,5,43.333333333333336,39.166666666666664,1.98475,2.7557576923076925,8,7.666666666666667,6,5.333333333333333,10,10,0.4945695652173913,0.47615,0.48566875,0.53211875,95.83333333333334,100,100,100,0.4659875,0.5299708333333333,0.4945695652173913,100,100,95.83333333333334,0.8279727272727273,0.8943,0.710378947368421,91.66666666666666,91.66666666666666,79.16666666666666,0.6856708333333333,0.8950529411764706,0.8961454545454546,100,70.83333333333334,91.66666666666666,136,123,1.2508867647058823,1.6702357723577237,89.93055555555556,0.41934900765184113,NA,NA,NA,NA,NA,NA,Europe,Female,Single (never married),Completed Secondary School,"Yes, both parents","Less than 20,000 pounds",Student,psychology,Right,No,No,Others,Yes,90,english,20,russian,NA,NA,NA,NA,NA,NA,NA,NA,estonian,estonian,Public,Yes,Yes,No,No,6,No,Yes,Yes,No,White,Psychology,UK,7
19641,BAC,57,1.3825,1.46359649122807,91.93548387096774,0.08064516129032259,39,8,65,58.333333333333336,1.6989,1.7564102564102564,NA,NA,NA,NA,9,8.333333333333334,0.5670304347826087,0.5759357142857143,0.5535733333333334,0.5286,95.83333333333334,87.5,93.75,81.25,0.5035130434782609,0.6135631578947368,0.5670304347826087,95.83333333333334,79.16666666666666,95.83333333333334,0.5289809523809523,0.5416764705882353,0.54755,87.5,70.83333333333334,83.33333333333334,0.5304318181818182,0.5928684210526316,0.49024117647058824,91.66666666666666,79.16666666666666,70.83333333333334,101,78,0.8460287128712871,1.1954910256410256,62.15277777777778,0.3494623127697385,2003-08-12,20.51651800916419,UK,English,2024-02-16T15:47:48Z,60.24096386,UK,Male,Single (never married),Some University but no degree,"Yes, father only","40,000-59,999 pounds",Student,Psychology with Forensic Investigation,Right,No,No,English,Yes,100,English,100,French,NA,NA,NA,NA,NA,NA,NA,NA,English,English,State,No,Yes,No,Yes,7,No,No,Yes,Yes,Black/African/Caribbean,Psychology,UK,NA
19694,CAB,62,1.483,1.5021935483870967,100,0,25,3,41.66666666666667,39.166666666666664,2.466,2.95656,7,6.666666666666667,6,5.666666666666667,10,9.666666666666666,0.690875,0.8970666666666667,0.636375,0.739625,100,93.75,100,100,0.8222916666666666,0.6842173913043478,0.690875,100,95.83333333333334,100,0.9674347826086956,0.911375,0.768375,95.83333333333334,100,100,0.789125,0.9936521739130436,0.8655,100,95.83333333333334,100,143,136,1.829951048951049,2.248985294117647,96.875,0.4190342451665978,2002-08-16,21.46891661850077,UK,English,2024-02-03T12:31:23Z,58.82352941,UK,Male,Single (never married),Some University but no degree,"Yes, mother only","60,000-99,999 pounds",Student,Psychology,Right,No,No,English,No,NA,NA,NA,NA,NA,NA,NA,NA,NA,NA,NA,NA,English,English,Public,No,Yes,No,No,8,No,No,Yes,No,Mixed two or more ethnic groups,Psychology,UK,6.5
19726,CBA,62,1.40695,1.5132112903225807,100,0,22,2,36.666666666666664,35,3.36045,3.671286363636364,7,6,6,5.666666666666667,8,8,0.49674166666666664,0.531675,0.4895,0.59200625,100,100,100,100,0.5074375,0.5680166666666666,0.49674166666666664,100,100,100,0.6737809523809524,0.6543826086956521,0.5574958333333333,87.5,95.83333333333334,100,0.5916173913043479,0.6656952380952381,0.6247208333333333,95.83333333333334,87.5,100,131,118,2.518685496183206,2.957816101694915,86.45833333333334,0.4391306055117088,2004-03-31,19.8792551550815,UK,English,2024-02-15T21:33:02Z,59.88023952,UK,Female,Single (never married),Completed Secondary School,"Yes, both parents","40,000-59,999 pounds",Student,psychology,Right,No,No,English,No,NA,NA,NA,NA,NA,NA,NA,NA,NA,NA,NA,NA,English,English,Public,Yes,Yes,No,Yes,2,No,Yes,Yes,Yes,Mixed two or more ethnic groups,Psychology,UK,6.5
19757,ABC,61,1.265,1.333770491803279,98.38709677419357,0.01612903225806452,33,1,55.00000000000001,54.166666666666664,2.364,2.696878787878788,9,8.333333333333334,9,8.666666666666666,10,10,0.6034583333333333,0.638375,0.70025,0.6121875,100,100,100,100,0.6383333333333333,0.6622083333333333,0.6034583333333333,100,100,100,0.7842083333333333,0.862875,0.7533333333333333,100,100,100,0.7982916666666666,0.8687083333333333,0.7334166666666666,100,100,100,141,138,1.843581560283688,2.302768115942029,96.875,0.4591865556583408,1996-06-01,27.73065158716125,UK,English,2024-02-23T14:53:30Z,60.0240096,UK,Male,Single (never married),Some University but no degree,"Yes, mother only","Less than 20,000 pounds",Student,Psychology,Right,Yes,No,English,No,NA,NA,NA,NA,NA,NA,NA,NA,NA,NA,NA,NA,English,English,Public,No,Yes,No,No,8.5,No,No,Yes,No,White,Psychology,UK,9
19760,CBA,59,1.3332,1.3635932203389831,95.16129032258064,0.04838709677419356,26,3,43.333333333333336,40.833333333333336,2.4582499999999996,3.227088461538462,9,8,7,6.333333333333333,10,9.666666666666666,0.6100875,0.6060875,0.6063866666666666,0.636825,100,100,93.75,100,0.5461333333333334,0.6902260869565218,0.6100875,100,95.83333333333334,100,0.6441458333333333,0.6132818181818182,0.6449304347826087,100,91.66666666666666,95.83333333333334,0.6139166666666667,0.6872727272727273,0.6057,100,91.66666666666666,95.83333333333334,137,102,1.339214598540146,1.678950980392157,82.98611111111111,0.33973638185201094,2003-09-04,20.426980213450957,UK,English,2024-02-06T22:54:30Z,59.88023952,UK,Female,Single (never married),Some University but no degree,No,"40,000-59,999 pounds",Student,Psychology,Right,No,No,English,No,NA,NA,NA,NA,NA,NA,NA,NA,NA,NA,NA,NA,English,English,State,No,Yes,No,No,8,No,Yes,Yes,Yes,White,Psychology,UK,8
19767,CBA,61,1.5818,1.6056131147540984,98.38709677419357,0.01612903225806452,17,5,28.333333333333332,24.166666666666668,2.4961,3.1678,7,6,7,6,9,8.666666666666666,0.4889333333333334,0.5162933333333334,0.49935,0.56415,100,93.75,100,100,0.5119416666666666,0.5423391304347827,0.4889333333333334,100,95.83333333333334,100,0.6044333333333334,0.5717791666666666,0.5232478260869565,87.5,100,95.83333333333334,0.5355913043478261,0.6356857142857143,0.5326041666666667,95.83333333333334,87.5,100,120,123,1.7190633333333334,2.2560073170731707,84.375,0.5369439837398373,2003-07-31,20.51136775661014,UK,English,2024-02-02T18:38:59Z,60.06006006,UK,Female,Single (never married),Completed Secondary School,"Yes, both parents","20,000-39,999 pounds",Student,Psychology,Right,No,Yes,English,No,NA,NA,NA,NA,NA,NA,NA,NA,NA,NA,NA,NA,English,English,Private,Yes,Yes,Yes,Yes,6,No,Yes,Yes,Yes,White,Psychology,UK,7
19769,BCA,61,1.3483,1.413183606557377,98.38709677419357,0.01612903225806452,25,5,41.66666666666667,37.5,2.2708,3.107456,7,6,8,7.333333333333333,10,9.666666666666666,0.5737583333333334,0.509275,0.6331,0.6610874999999999,100,100,100,100,0.5454708333333333,0.6568375,0.5737583333333334,100,100,100,0.8620739130434782,0.8873708333333333,0.7750272727272727,95.83333333333334,100,91.66666666666666,0.9267791666666668,0.8081782608695652,0.7883818181818182,100,95.83333333333334,91.66666666666666,135,133,2.1177414814814814,2.4465736842105263,93.05555555555556,0.3288322027290449,2005-02-03,19.04687087877405,UK,English,2024-02-20T20:52:12Z,60.60606061,UK,Female,Single (never married),Completed Secondary School,"Yes, father only","40,000-59,999 pounds",Student,Psychology with Forensic Investigation,Right,No,No,English,No,NA,NA,NA,NA,NA,NA,NA,NA,NA,NA,NA,NA,English,English,State,Yes,Yes,No,No,8.5,No,Yes,Yes,Yes,White,Psychology,UK,7.5
19777,CAB,61,1.35,1.551655737704918,98.38709677419357,0.01612903225806452,25,5,41.66666666666667,37.5,2.532,2.90576,6,5.666666666666667,8,7.333333333333333,9,8.666666666666666,0.541375,0.5701875000000001,0.5737333333333333,0.658,100,100,93.75,100,0.5579583333333333,0.6463478260869565,0.541375,100,95.83333333333334,100,0.6817916666666667,0.6257391304347826,0.6118333333333333,100,95.83333333333334,100,0.6089583333333334,0.69525,0.6146956521739131,100,100,95.83333333333334,122,91,1.2026639344262295,1.840681318681319,73.95833333333334,0.6380173842550891,2005-08-08,18.512653782385225,UK,English,2024-02-11T17:55:23Z,40,UK,Female,Single (never married),Some University but no degree,"Yes, both parents","40,000-59,999 pounds",Student,Psychology,Right,No,No,English,Yes,75,Greek,NA,NA,NA,NA,NA,NA,NA,NA,NA,NA,English,English,Public,Yes,Yes,Yes,Yes,6,No,Yes,Yes,Yes,Mixed two or more ethnic groups,Psychology,UK,7
19779,ACB,60,1.342,1.3775666666666666,96.7741935483871,0.03225806451612905,27,4,45,41.66666666666667,2.699,2.720925925925926,4,3.6666666666666665,6,5,9,8.333333333333334,0.5441739130434783,0.567875,0.7153125,0.6311875,95.83333333333334,100,100,100,0.6237083333333333,0.6525416666666667,0.5441739130434783,100,100,95.83333333333334,0.7294347826086957,0.7103333333333334,0.562625,95.83333333333334,100,100,0.607625,0.7358260869565217,0.6592083333333333,100,95.83333333333334,100,137,125,1.803875912408759,2.143648,90.9722222222222,0.3397720875912411,2004-10-16,19.336901693601547,UK,English,2024-02-16T19:16:48Z,58.82352941,UK,Female,Single (never married),Completed Secondary School,No,"40,000-59,999 pounds",Student,psychology,Right,No,No,English,No,NA,NA,NA,NA,NA,NA,NA,NA,NA,NA,NA,NA,English,English,Public,No,Yes,No,Yes,5,No,Yes,Yes,No,White,Psychology,UK,5
19790,ACB,58,1.48505,1.5130655172413794,93.5483870967742,0.06451612903225808,23,2,38.333333333333336,36.666666666666664,2.8386,3.253082608695652,6,5.333333333333333,8,7,9,8.333333333333334,0.5056833333333334,0.51461875,0.53295,0.52723125,100,100,100,100,0.5060833333333333,0.5437833333333333,0.5056833333333334,100,100,100,0.8371391304347826,0.7791,0.777875,95.83333333333334,100,100,0.7944043478260869,0.8121083333333333,0.7858208333333333,95.83333333333334,100,100,139,134,2.520530215827338,3.3179067164179106,94.79166666666666,0.7973765005905724,2005-04-21,18.835783284153415,UK,English,2024-02-20T18:28:34Z,60.60606061,UK,Female,Single (never married),Some University but no degree,NA,"Less than 20,000 pounds",Student,Psychology,Right,No,No,English,No,NA,NA,NA,NA,NA,NA,NA,NA,NA,NA,NA,NA,English,English,Public,No,Yes,No,Yes,6,No,No,Yes,Yes,White,Psychology,UK,7
19800,CBA,61,1.7997,1.8633081967213112,98.38709677419357,0.01612903225806452,22,4,36.666666666666664,33.33333333333333,2.82045,2.9445727272727273,6,5.666666666666667,4,3.6666666666666665,8,7.333333333333333,0.8040541666666666,0.8932,0.76549375,0.67855625,100,93.75,100,100,0.6606625,0.8976913043478261,0.8040541666666666,100,95.83333333333334,100,0.787675,0.7811333333333333,0.7063826086956522,100,100,95.83333333333334,0.7073166666666667,0.7943958333333333,0.776395652173913,100,100,95.83333333333334,132,115,2.294282575757576,2.6092695652173914,85.76388888888889,0.3149869894598156,2005-04-17,18.83257148769235,UK,English,2024-02-15T14:19:17Z,56.81818182,UK,Female,Single (never married),Some University but no degree,"Yes, mother only","More than 100,000 pounds",Student,Psychology and counselling,Right,No,No,Portugese,Yes,100,English,80,Portuguese,NA,NA,NA,NA,NA,NA,NA,NA,English,English,State,Yes,No,Yes,Yes,6.5,No,Yes,Yes,No,White,Psychology,UK,5
19803,BAC,58,1.2933,1.3242793103448276,93.5483870967742,0.0645161290322581,20,7,33.33333333333333,27.500000000000004,1.89505,2.819125,6,5.666666666666667,7,6,10,10,0.5735652173913044,0.5785625,0.6426625,0.57255625,95.83333333333334,100,100,100,0.5590958333333333,0.6367583333333333,0.5735652173913044,100,100,95.83333333333334,0.5383826086956521,0.5184913043478261,0.46555,95.83333333333334,95.83333333333334,100,0.476325,0.5389272727272727,0.5080458333333333,100,91.66666666666666,100,135,128,2.263587407407407,2.93025703125,91.31944444444444,0.6666696238425929,2004-11-19,19.260046913231673,UK,English,2024-02-22T17:34:16Z,59.52380952,UK,Female,Single (never married),Some University but no degree,"Yes, mother only","40,000-59,999 pounds",Student,Psychology,Right,No,No,English,No,NA,NA,NA,NA,NA,NA,NA,NA,NA,NA,NA,NA,English,English,State,No,Yes,Yes,No,6.5,No,Yes,Yes,No,White,Psychology,UK,6.5
19808,BCA,61,1.6326,1.6816688524590164,98.38709677419357,0.01612903225806452,26,3,43.333333333333336,40.833333333333336,2.40275,2.634369230769231,7,6.333333333333333,7,6.333333333333333,10,9.333333333333334,0.5735416666666666,0.641525,0.6004625,0.57485,100,100,100,100,0.5812041666666666,0.6300208333333334,0.5735416666666666,100,100,100,0.7193363636363637,0.771275,0.644725,91.66666666666666,100,100,0.670225,0.73740000000000006,0.7292166666666666,100,91.66666666666666,100,141,137,1.7246248226950354,2.208383211678832,96.5277777777778,0.48375838898379686,2004-12-07,19.16367589129085,UK,English,2024-02-05T12:46:58Z,59.88023952,UK,Female,Single (never married),Completed Secondary School,"Yes, father only","Less than 20,000 pounds",Student,Psychology With Counselling Undergraduate,Right,No,No,English,No,NA,NA,NA,NA,NA,NA,NA,NA,NA,NA,NA,NA,English,English,State,No,Yes,No,No,7.5,No,Yes,Yes,Yes,White,Psychology,UK,7
19814,ABC,61,1.383,1.3972950819672132,98.38709677419357,0.01612903225806452,23,4,38.333333333333336,35,2.148,2.9893478260869566,6,5.666666666666667,8,7,10,9.333333333333334,0.4787391304347826,0.5117333333333334,0.5160666666666667,0.5185333333333333,95.83333333333334,93.75,93.75,93.75,0.4990869565217391,0.5325454545454545,0.4787391304347826,95.83333333333334,91.66666666666666,95.83333333333334,0.6178095238095238,0.5943181818181819,0.5899583333333334,87.5,91.66666666666666,100,0.5615,0.65875,0.5894347826086956,100,83.33333333333334,95.83333333333334,126,111,1.669579365079365,2.3773693693693696,82.29166666666666,0.7077900042900045,2005-06-13,18.654374239897837,UK,English,2024-02-07T12:14:40Z,58.82352941,UK,Female,Single (never married),Some University but no degree,No,"60,000-99,999 pounds",Student,psychology with counselling,Right,No,No,English,Yes,45,French,10,Spanish,NA,NA,NA,NA,NA,NA,NA,NA,English,English,Public,No,Yes,No,Yes,7,No,Yes,Yes,No,White,Psychology,UK,7
19815,CAB,56,1.4149500000000002,1.5010571428571429,90.32258064516128,0.0967741935483871,27,3,45,42.5,2.1872,2.947225925925926,4,3.6666666666666665,4,3.6666666666666665,5,4.333333333333333,0.5517458333333334,0.53188125,0.60315625,0.59834375,100,100,100,100,0.5339458333333333,0.6216416666666666,0.5517458333333334,100,100,100,1.0514272727272729,0.9114416666666668,0.8103625,91.66666666666666,100,100,0.8509583333333334,1.0292636363636365,0.8911625,100,91.66666666666666,100,131,87,1.1561335877862595,1.936087356321839,75.69444444444444,0.7799537685355795,2005-04-12,18.810533600685737,UK,English,2024-02-02T13:08:15Z,59.88023952,UK,Female,"Married, or in a domestic partnership",Some University but no degree,"Yes, mother only","60,000-99,999 pounds",Student,bsc psychology with counselling,Right,No,No,Others,Yes,100,english,75,malayalam,NA,NA,NA,NA,NA,NA,NA,NA,English,English,Public,No,Yes,No,No,8,No,Yes,Yes,Yes,"Asian (Indian, Pakistani, Bangladeshi, Chinese, any other Asian background)",Psychology,UK,4
19817,ABC,59,1.6332,1.684542372881356,95.16129032258064,0.04838709677419357,30,5,50,45.83333333333333,2.39885,2.4858366666666667,6,5.333333333333333,6,5,10,9.666666666666666,0.6038260869565217,0.5295,0.54638125,0.5796,95.83333333333334,87.5,100,100,0.5517521739130434,0.5538434782608695,0.6038260869565217,95.83333333333334,95.83333333333334,95.83333333333334,0.7529136363636364,0.66872857142857145,0.7044541666666667,91.66666666666666,87.5,100,0.6282583333333334,0.7759045454545455,0.7317238095238096,100,91.66666666666666,87.5,104,103,1.8370461538461536,1.7162563106796116,71.875,-0.12078984316654218,2004-12-10,19.181425291688843,UK,English,2024-02-15T00:22:26Z,30.03003003,UK,Male,Single (never married),Completed Secondary School,"Yes, both parents","60,000-99,999 pounds",Student,Psychology with forensic investigation,Right,Yes,No,English,No,NA,NA,NA,NA,NA,NA,NA,NA,NA,NA,NA,NA,English,English,Faith,Yes,Yes,Yes,Yes,9.5,No,No,Yes,Yes,White,Psychology,UK,6
19818,BCA,59,1.865,1.9401694915254235,95.16129032258064,0.04838709677419355,27,5,45,40.833333333333336,2.299,2.6906666666666665,7,6.333333333333333,7,6.333333333333333,10,10,0.8328333333333333,0.896375,0.996625,1.19075,100,100,100,100,0.9334583333333332,1.122375,0.8328333333333333,100,100,100,0.8181304347826087,0.7998333333333334,0.80975,95.83333333333334,100,100,0.825375,0.7958260869565218,0.8055833333333333,100,95.83333333333334,100,137,139,3.242430656934306,3.7503956834532377,95.83333333333334,0.5079650265189315,2003-03-06,20.94468049145056,UK,English,2024-02-14T01:04:09Z,29.41176471,UK,Male,Single (never married),Some University but no degree,No,"40,000-59,999 pounds",Student,Bsc Hons Psychology,Right,No,No,English,No,NA,NA,NA,NA,NA,NA,NA,NA,NA,NA,NA,NA,English,English,Public,No,Yes,No,No,6.5,No,No,Yes,No,White,Psychology,UK,7
19821,CAB,62,1.5985,1.6200290322580646,100,0,24,3,40,37.5,2.54195,3.3879083333333333,6,5.666666666666667,7,6.333333333333333,10,9.333333333333334,0.5636333333333333,0.71895,0.62303125,0.6809125,100,100,100,100,0.6758833333333334,0.6727125,0.5636333333333333,100,100,100,0.7541652173913044,0.8454625,1.1061782608695652,95.83333333333334,100,95.83333333333334,0.7820083333333333,0.9618869565217392,0.9646695652173912,100,95.83333333333334,95.83333333333334,136,131,2.9578242647058826,3.1456503816793893,92.70833333333334,0.1878261169735067,2005-08-31,18.45009297104342,UK,English,2024-02-11T21:30:53Z,30.12048193,UK,Male,Single (never married),Completed Secondary School,"Yes, mother only","60,000-99,999 pounds",Student,Psychology,Right,No,No,English,No,NA,NA,NA,NA,NA,NA,NA,NA,NA,NA,NA,NA,English,English,State,No,Yes,Yes,Yes,7,No,No,Yes,No,White,Psychology,UK,6.5
19826,CAB,61,1.4669,1.5024032786885246,98.38709677419357,0.01612903225806452,21,2,35,33.33333333333333,2.9489,3.335895238095238,7,6,8,7,8,8,0.6237291666666667,0.6196625,0.61378125,0.6814875,100,100,100,100,0.6191333333333333,0.6574875,0.6237291666666667,100,100,100,0.928225,0.8658190476190476,0.83635,100,87.5,100,0.8095833333333333,0.9460857142857144,0.8847583333333333,100,87.5,100,136,119,2.5271426470588234,2.708629411764706,88.54166666666666,0.18148676470588265,2005-06-05,18.67629448085406,UK,English,2024-02-07T12:23:50Z,60.24096386,UK,Female,Single (never married),Some University but no degree,No,"More than 100,000 pounds",Student,psychology,Right,No,No,English,No,NA,NA,NA,NA,NA,NA,NA,NA,NA,NA,NA,NA,English,English,State,Yes,Yes,No,Yes,6.5,No,Yes,Yes,No,White,Psychology,UK,7.5
19829,BAC,57,1.2666,1.2729543859649124,91.93548387096774,0.08064516129032259,23,5,38.333333333333336,34.166666666666664,2.2666,3.0409521739130434,NA,NA,NA,NA,7,6.333333333333333,0.5224391304347826,0.5387466666666667,0.5480533333333334,0.53261875,95.83333333333334,93.75,93.75,100,0.5043041666666667,0.5782090909090909,0.5224391304347826,100,91.66666666666666,95.83333333333334,0.6233608695652174,0.58713,0.5586458333333333,95.83333333333334,83.33333333333334,100,0.5791652173913043,0.588425,0.5999208333333333,95.83333333333334,83.33333333333334,100,72,69,0.30648888888888887,0.45766956521739127,48.95833333333333,0.1511806763285024,2005-05-19,18.717658904954742,UK,English,2024-02-05T14:59:52Z,59.88023952,UK,Female,Single (never married),Completed Secondary School,No,"60,000-99,999 pounds",Employed part time (up to 39 hours per week),psychology,Right,No,No,English,No,NA,NA,NA,NA,NA,NA,NA,NA,NA,NA,NA,NA,English,English,Public,No,No,No,No,7,No,No,Yes,No,White,Psychology,UK,NA
19833,ACB,58,1.51705,1.5255103448275862,93.5483870967742,0.06451612903225808,19,6,31.666666666666664,26.666666666666668,2.886,3.686536842105263,7,6,9,8,10,9.333333333333334,0.6547565217391305,0.68223125,0.6342749999999999,0.64520625,95.83333333333334,100,100,100,0.5967375,0.7110708333333333,0.6547565217391305,100,100,95.83333333333334,0.7162913043478261,0.6911826086956522,0.6391625,95.83333333333334,95.83333333333334,100,0.6411521739130435,0.6818875,0.7217391304347827,95.83333333333334,100,95.83333333333334,137,128,2.4084014598540144,2.7710609375,92.01388888888889,0.3626594776459857,2005-05-23,18.706654228838698,UK,English,2024-02-05T14:31:51Z,30.03003003,UK,Female,Single (never married),Completed Secondary School,"Yes, both parents","40,000-59,999 pounds",Student,Psychology,Left,No,No,English,No,NA,NA,NA,NA,NA,NA,NA,NA,NA,NA,NA,NA,English,English,State,No,Yes,No,No,7,No,Yes,Yes,Yes,White,Psychology,UK,8
19835,CAB,58,1.48385,1.5364362068965518,93.5483870967742,0.06451612903225809,29,8,48.333333333333336,41.66666666666667,1.9813,2.2042551724137933,6,5.666666666666667,6,5,9,8.333333333333334,0.5749541666666667,0.63779375,0.6541,0.63415,100,100,100,100,0.6365666666666666,0.6474625,0.5749541666666667,100,100,100,0.8513681818181819,0.9352428571428572,0.8379833333333333,91.66666666666666,87.5,100,0.8053608695652174,0.8067619047619048,1.000717391304348,95.83333333333334,87.5,95.83333333333334,135,103,1.29398,1.5892436893203885,82.63888888888889,0.2952636893203884,2005-03-20,18.922922995031307,UK,English,2024-02-20T14:20:34Z,59.88023952,UK,Female,Single (never married),Some University but no degree,"Yes, father only","40,000-59,999 pounds",Student,psychology with forensics,Right,No,No,English,No,NA,NA,NA,NA,NA,NA,NA,NA,NA,NA,NA,NA,English,English,Public,No,Yes,No,Yes,5.5,No,Yes,No,No,White,Psychology,UK,6
19844,CBA,61,1.25,1.2672770491803278,98.38709677419357,0.01612903225806453,41,6,68.33333333333333,63.33333333333333,1.7494,1.8588878048780488,8,7,6,5,10,10,0.4200083333333333,0.40658125,0.43385,0.4572,100,100,100,87.5,0.4253208333333333,0.4381818181818182,0.4200083333333333,100,91.66666666666666,100,0.5540416666666667,0.5999304347826087,0.502295652173913,100,95.83333333333334,95.83333333333334,0.6001666666666666,0.5653636363636364,0.491925,100,91.66666666666666,100,140,138,1.0010242857142857,1.0955971014492754,96.5277777777778,0.09457281573498966,2005-02-26,18.954115012041473,UK,English,2024-02-09T23:46:19Z,59.88023952,UK,Male,Single (never married),Some University but no degree,"Yes, both parents","60,000-99,999 pounds",Student,Psychology with counselling,Right,Yes,No,English,No,NA,NA,NA,NA,NA,NA,NA,NA,NA,NA,NA,NA,English,English,Public,No,Yes,Yes,No,9,No,Yes,Yes,Yes,White,Psychology,UK,7
19854,CAB,59,1.383,1.4577186440677965,95.16129032258064,0.04838709677419357,35,3,58.333333333333336,55.833333333333336,2.2198,2.3472114285714287,7,6.666666666666667,8,7.333333333333333,10,9.666666666666666,0.48207083333333334,0.526875,0.4752875,0.49633125,100,100,100,100,0.49166666666666664,0.5073291666666667,0.48207083333333334,100,100,100,0.8376391304347826,0.7501636363636364,0.738504347826087,95.83333333333334,91.66666666666666,95.83333333333334,0.7185958333333333,0.83762,0.7815083333333334,100,83.33333333333334,100,136,116,1.1339860294117647,1.3568758620689656,87.5,0.2228898326572009,2005-04-07,18.84682660043856,UK,English,2024-02-10T19:16:55Z,59.88023952,UK,Female,Single (never married),Completed Secondary School,No,"20,000-39,999 pounds",Student,Psychology with counselling,Right,No,No,English,No,NA,NA,NA,NA,NA,NA,NA,NA,NA,NA,NA,NA,English,English,Public,Yes,Yes,No,Yes,5.5,No,Yes,Yes,Yes,White,Psychology,UK,7.5
19865,CAB,60,1.383,1.3677683333333333,96.7741935483871,0.03225806451612905,36,4,60,56.666666666666664,1.84095,2.1417027777777777,6,5.666666666666667,7,6.666666666666667,10,9.666666666666666,0.526725,0.522825,0.4738466666666667,0.50164375,100,100,93.75,100,0.4777541666666667,0.5231782608695652,0.526725,100,95.83333333333334,100,0.6395857142857143,0.6123916666666667,0.5727533333333333,58.333333333333336,50,62.5,0.5729916666666667,0.563,0.6612125,100,4.166666666666666,66.66666666666666,137,120,1.211353284671533,1.457125,89.23611111111111,0.2457717153284671,2005-03-21,18.905689739967556,UK,English,2024-02-15T07:16:34Z,59.52380952,UK,Male,Single (never married),Some University but no degree,NA,"20,000-39,999 pounds",Unemployed and currently looking for work,Psychology,Right,No,No,English,Yes,65,Tigrinya,NA,NA,NA,NA,NA,NA,NA,NA,NA,NA,English,English,State,No,Yes,No,No,9.5,No,No,Yes,No,Black/African/Caribbean,Psychology,UK,6.5
19873,BAC,61,1.749,1.796377049180328,98.38709677419357,0.01612903225806452,13,2,21.666666666666668,20,3.013,3.921923076923077,5,4.666666666666667,5,4,8,7.333333333333333,0.588625,0.6119375,0.73425,0.595875,100,100,100,100,0.63375,0.6609583333333333,0.588625,100,100,100,0.8223333333333334,0.757125,0.7722916666666667,87.5,100,100,0.7547916666666666,0.8617142857142857,0.7401666666666666,100,87.5,100,140,132,1.7708285714285714,2.1452272727272725,94.44444444444444,0.3743987012987011,2005-03-17,18.86051900087459,UK,English,2024-01-25T19:18:34Z,38.46153846,UK,Female,Single (never married),Some University but no degree,NA,"60,000-99,999 pounds",Student,Psychology Undergraduate Degree,Right,No,No,English,No,NA,NA,NA,NA,NA,NA,NA,NA,NA,NA,NA,NA,English,English,Public,Yes,Yes,No,No,8.5,No,No,Yes,No,White,Psychology,UK,5
19880,BCA,59,1.8127,1.9720661016949153,95.16129032258064,0.04838709677419357,24,1,40,39.166666666666664,3.2628500000000003,3.6536916666666666,5,4.666666666666667,5,4.333333333333333,10,9.333333333333334,0.5311,0.572325,0.575775,0.53093125,100,100,100,100,0.5362708333333334,0.5830833333333333,0.5311,100,100,100,0.9136173913043478,0.812104347826087,0.8536782608695652,95.83333333333334,95.83333333333334,95.83333333333334,0.8557875,0.8786380952380952,0.8473291666666667,100,87.5,100,132,132,3.0105833333333334,4.0694,91.66666666666666,1.0588166666666663,NA,NA,NA,NA,NA,NA,NA,NA,NA,NA,NA,NA,NA,NA,NA,NA,NA,NA,NA,NA,NA,NA,NA,NA,NA,NA,NA,NA,NA,NA,NA,NA,NA,NA,NA,NA,NA,NA,NA,NA,NA,NA,NA,NA,NA,UK,5
19882,ACB,62,1.39775,1.5042467741935484,100,0,15,4,25,21.666666666666668,2.8838,3.805793333333334,5,4.666666666666667,5,4.333333333333333,10,9.666666666666666,0.47656666666666664,0.58956,0.5702142857142857,0.46859375,100,93.75,87.5,100,0.5167636363636363,0.5632652173913043,0.47656666666666664,91.66666666666666,95.83333333333334,100,0.6136590909090909,0.6518565217391304,0.5574083333333333,91.66666666666666,95.83333333333334,100,0.5343636363636364,0.6110173913043478,0.6692333333333333,91.66666666666666,95.83333333333334,100,136,100,2.4191551470588237,3.355751,81.94444444444444,0.9365958529411764,2005-07-09,18.57773964731158,UK,English,2024-02-05T12:27:56Z,59.52380952,UK,Female,Single (never married),Some University but no degree,No,"40,000-59,999 pounds",Student,psychology,Right,No,No,English,No,NA,NA,NA,NA,NA,NA,NA,NA,NA,NA,NA,NA,English,English,State,No,Yes,Yes,Yes,4.5,No,Yes,Yes,Yes,White,Psychology,UK,5
19884,ABC,59,1.334,1.356135593220339,95.16129032258064,0.04838709677419356,25,5,41.66666666666667,37.5,2.466,2.63396,7,6,7,6.333333333333333,10,10,0.6244166666666667,0.6395714285714286,0.60575,0.5941333333333333,100,87.5,100,93.75,0.5286666666666666,0.7080952380952381,0.6244166666666667,100,87.5,100,0.6355833333333334,0.6663043478260869,0.6027916666666667,100,95.83333333333334,100,0.6264166666666666,0.6496086956521739,0.6279583333333333,100,95.83333333333334,100,142,129,1.6315422535211268,1.8532325581395348,94.0972222222222,0.221690304618408,2004-09-29,19.34420650214211,UK,English,2024-02-02T11:18:51Z,62.5,UK,Female,Single (never married),Some University but no degree,NA,"60,000-99,999 pounds",Unemployed and currently looking for work,Cyberpsychology,Right,No,No,English,No,NA,NA,NA,NA,NA,NA,NA,NA,NA,NA,NA,NA,English,English,Public,No,Yes,Yes,No,7,No,Yes,Yes,Yes,White,Psychology,UK,7
19890,ACB,59,1.2,1.256,95.16129032258064,0.04838709677419355,36,7,60,54.166666666666664,1.681,1.99075,7,6.666666666666667,4,3.6666666666666665,8,8,0.4565909090909091,0.4708125,0.4812142857142857,0.47015384615384614,91.66666666666666,100,87.5,81.25,0.43975,0.5172631578947369,0.4565909090909091,100,79.16666666666666,91.66666666666666,0.5268181818181819,0.509625,0.4535416666666667,91.66666666666666,100,100,0.4585416666666667,0.539,0.4893181818181818,100,100,91.66666666666666,135,117,1.2155333333333334,1.6273162393162393,87.5,0.4117829059829059,2005-01-15,19.048619345672673,UK,English,2024-02-02T12:11:49Z,30.3030303,UK,Female,Single (never married),Some University but no degree,No,"20,000-39,999 pounds",Student,Psychology with Counselling,Right,No,No,English,No,NA,NA,NA,NA,NA,NA,NA,NA,NA,NA,NA,NA,English,English,State,No,Yes,Yes,No,8,No,Yes,Yes,Yes,White,Psychology,UK,5.5
19901,CBA,61,1.7311,1.7830393442622952,98.38709677419357,0.01612903225806452,19,4,31.666666666666664,28.333333333333332,2.0974,3.4843789473684215,7,6.333333333333333,5,4.333333333333333,10,9.666666666666666,0.6034,0.5935625,0.60671875,0.636375,100,100,100,100,0.6122833333333333,0.6121541666666667,0.6034,100,100,100,0.7330130434782609,0.7124791666666667,0.6116333333333334,95.83333333333334,100,100,0.6789708333333333,0.700825,0.6749086956521739,100,100,95.83333333333334,139,133,2.497573381294964,3.417493233082707,94.44444444444444,0.9199198517877428,2005-07-11,18.589329759455723,UK,English,2024-02-11T18:03:52Z,59.17159763,UK,Female,Single (never married),Some University but no degree,"Yes, father only","20,000-39,999 pounds",Student,psychology,Right,No,No,English,No,NA,NA,NA,NA,NA,NA,NA,NA,NA,NA,NA,NA,English,English,State,No,Yes,No,Yes,5,No,No,Yes,No,White,Psychology,UK,6
19905,ABC,59,1.3319,1.3924186440677966,95.16129032258064,0.04838709677419356,21,3,35,32.5,3.5296,3.7983571428571423,8,7,7,6,8,7.333333333333333,0.5287217391304347,0.56794375,0.5303625,0.5895312500000001,95.83333333333334,100,100,100,0.5546666666666666,0.5705583333333334,0.5287217391304347,100,100,95.83333333333334,0.7688166666666667,0.8268318181818182,0.7267416666666666,100,91.66666666666666,100,0.731725,0.8040363636363637,0.7847291666666667,100,91.66666666666666,100,105,80,1.384664761904762,1.27424625,64.23611111111111,-0.11041851190476204,NA,NA,NA,NA,NA,NA,Europe,Female,Single (never married),Some University but no degree,No,"40,000-59,999 pounds",Student,Psychology with Forensic Investigation,Right,No,No,Portugese,Yes,100,English,85,Portuguese,NA,NA,NA,NA,NA,NA,NA,NA,English,English,State,No,Yes,No,No,10,No,No,Yes,No,White,Psychology,UK,7.5
19912,BAC,60,1.499,1.60551,96.7741935483871,0.03225806451612904,33,2,55.00000000000001,53.333333333333336,2.2664,2.59689696969697,6,5,5,4.666666666666667,10,10,0.556525,0.5920375,0.531975,0.55524375,100,100,100,100,0.5113541666666667,0.60815,0.556525,100,100,100,0.5348125,0.5372041666666667,0.5234416666666667,100,100,100,0.5107291666666667,0.5624125,0.5223166666666667,100,100,100,142,139,1.392838028169014,1.6049179856115108,97.56944444444444,0.21207995744249675,2004-05-29,19.70392575075417,UK,English,2024-02-10T20:36:47Z,57.47126437,UK,Female,Single (never married),Some University but no degree,NA,"40,000-59,999 pounds",Unemployed and currently looking for work,psychology,Left,Yes,No,English,No,NA,NA,NA,NA,NA,NA,NA,NA,NA,NA,NA,NA,English,English,State,No,Yes,No,No,8,Yes,No,Yes,No,White,Psychology,UK,5.5
19922,ACB,58,1.366,1.4079827586206897,93.5483870967742,0.06451612903225808,28,2,46.666666666666664,45,2.433,3.0225714285714287,6,5.666666666666667,5,4.333333333333333,10,9.333333333333334,0.506375,0.5254,0.4859333333333334,0.4826875,100,93.75,93.75,100,0.482875,0.5138181818181818,0.506375,100,91.66666666666666,100,0.7599166666666667,0.6710869565217391,0.5826956521739131,100,95.83333333333334,95.83333333333334,0.6073478260869565,0.7221304347826087,0.687375,95.83333333333334,95.83333333333334,100,139,138,1.9841726618705036,2.3190579710144927,96.18055555555556,0.3348853091439892,NA,NA,NA,NA,NA,NA,Europe,Female,Single (never married),Some University but no degree,"Yes, father only","40,000-59,999 pounds",Student,Psychology with Counselling,Right,No,No,English,Yes,75,Portuguese,NA,NA,NA,NA,NA,NA,NA,NA,NA,NA,English,English,Public,No,Yes,Yes,No,10,No,No,Yes,No,White,Psychology,UK,5.5
19924,BAC,61,1.4153,1.4669360655737704,98.38709677419357,0.01612903225806452,44,2,73.33333333333333,71.66666666666667,1.78335,1.9336477272727273,8,7,7,6.666666666666667,9,9,0.5025458333333334,0.5742625,0.575325,0.64943125,100,100,100,100,0.5622166666666667,0.6371291666666666,0.5025458333333334,100,100,100,0.7000043478260869,0.6379695652173913,0.5687375,95.83333333333334,95.83333333333334,100,0.5682166666666667,0.7086590909090908,0.6331416666666667,100,91.66666666666666,100,144,138,1.0655770833333331,1.221236231884058,97.91666666666666,0.1556591485507246,2004-12-31,19.11427011062311,UK,English,2024-02-11T11:41:30Z,60.0024001,UK,Female,Single (never married),Some University but no degree,"Yes, both parents","60,000-99,999 pounds",Student,psychology with forensic investigation,Right,No,No,English,No,NA,NA,NA,NA,NA,NA,NA,NA,NA,NA,NA,NA,English,English,State,No,Yes,No,No,10,No,No,Yes,No,White,Psychology,UK,7.5
19928,BCA,60,0.966,0.98805,96.7741935483871,0.03225806451612905,28,5,46.666666666666664,42.5,2.391,2.7961785714285714,6,5.666666666666667,7,6.666666666666667,10,9.666666666666666,0.529875,0.5373125,0.52575,0.5085714285714286,100,100,100,87.5,0.49575,0.5559545454545455,0.529875,100,91.66666666666666,100,0.6781666666666667,0.6923478260869566,0.6876521739130435,100,95.83333333333334,95.83333333333334,0.6324583333333333,0.7063636363636363,0.7207083333333333,100,91.66666666666666,100,136,118,1.268764705882353,1.8390169491525423,88.19444444444444,0.5702522432701893,2004-04-17,19.820074682833926,UK,English,2024-02-11T06:46:28Z,60.0240096,UK,Non-binary/ third gender,Single (never married),Completed Secondary School,"Yes, both parents","40,000-59,999 pounds",Student,BSc (Hons) Cyberpsychology,Right,No,No,English,No,NA,NA,NA,NA,NA,NA,NA,NA,NA,NA,NA,NA,English,English,Public,No,Yes,No,Yes,5,No,Yes,Yes,No,White,Psychology,UK,6.5
19938,CBA,61,1.4688,1.5208524590163934,98.38709677419357,0.01612903225806452,15,4,25,21.666666666666668,2.1736,3.78108,5,4.333333333333333,6,5.666666666666667,7,6.333333333333333,0.5289608695652174,0.58866875,0.65855625,0.582525,95.83333333333334,100,100,100,0.5945916666666666,0.6252416666666667,0.5289608695652174,100,100,95.83333333333334,0.6939826086956522,0.774604347826087,0.6487875,95.83333333333334,95.83333333333334,100,0.6951791666666667,0.7180409090909091,0.7028,100,91.66666666666666,100,113,104,1.30148407079646,1.6047278846153847,75.34722222222221,0.3032438138189246,2003-10-07,20.34940708412554,UK,English,2024-02-11T14:54:08Z,60.0024001,UK,Female,Single (never married),Some University but no degree,"Yes, father only","40,000-59,999 pounds",Student,psychology,Right,No,No,English,No,NA,NA,NA,NA,NA,NA,NA,NA,NA,NA,NA,NA,English,English,State,No,Yes,No,Yes,5.5,No,Yes,Yes,Yes,White,Psychology,UK,5.5
19945,ABC,62,1.2409,1.2790983870967745,100,0,20,3,33.33333333333333,30.833333333333336,2.74105,3.94468,7,6.666666666666667,7,6.666666666666667,9,8.333333333333334,0.61475,0.6554733333333334,0.64124375,0.6849,100,93.75,100,100,0.6340208333333334,0.6884304347826087,0.61475,100,95.83333333333334,100,0.7581521739130435,0.8488826086956522,0.8456434782608696,95.83333333333334,95.83333333333334,95.83333333333334,0.7457416666666666,0.7782476190476191,0.923775,100,87.5,100,125,129,2.253752,2.405343410852713,88.19444444444444,0.151591410852713,NA,NA,NA,NA,NA,NA,Europe,Female,"Married, or in a domestic partnership",Completed Secondary School,"Yes, father only","40,000-59,999 pounds",Self-employed,Psychology,Right,No,No,Others,Yes,90,English,30,Romanian,NA,NA,NA,NA,NA,NA,NA,NA,Bulgarian,Bulgarian,Public,Yes,Yes,Yes,Yes,5,No,Yes,Yes,Yes,White,Psychology,UK,7
19946,ABC,60,1.57515,1.690095,96.7741935483871,0.03225806451612905,32,2,53.333333333333336,51.66666666666667,2.21685,2.542234375,8,7.333333333333333,5,4.666666666666667,10,10,0.62495,0.616725,0.6696,0.66036,100,100,93.75,93.75,0.6115173913043478,0.6848739130434782,0.62495,95.83333333333334,95.83333333333334,100,0.7303363636363637,0.6229333333333333,0.6218416666666666,91.66666666666666,100,100,0.6128708333333334,0.6845318181818182,0.6738916666666667,100,91.66666666666666,100,141,140,1.2132900709219858,1.4170064285714286,97.56944444444444,0.2037163576494427,2004-11-06,19.248534846312776,UK,English,2024-02-05T12:39:23Z,59.88023952,UK,Female,Single (never married),Completed Secondary School,NA,"Less than 20,000 pounds",Student,Psychology,Right,No,No,English,No,NA,NA,NA,NA,NA,NA,NA,NA,NA,NA,NA,NA,English,English,Public,No,Yes,No,No,8,No,No,Yes,No,White,Psychology,UK,6.5
19951,BCA,57,1.3667,1.389219298245614,91.93548387096774,0.08064516129032262,32,3,53.333333333333336,50.83333333333333,2.16315,2.524421875,6,5,7,6.333333333333333,8,7.333333333333333,0.6330416666666666,0.61434375,0.8453133333333334,0.626475,100,100,93.75,100,0.6682086956521739,0.7151666666666666,0.6330416666666666,95.83333333333334,100,100,0.8512739130434782,0.7602375,0.671575,95.83333333333334,100,100,0.7581565217391304,0.7697916666666667,0.7512583333333334,95.83333333333334,100,100,138,122,1.5793195652173913,2.10067868852459,90.2777777777778,0.5213591233071988,2004-05-13,19.774410986355115,UK,English,2024-02-20T14:29:12Z,59.88023952,UK,Female,Single (never married),Completed Secondary School,NA,"60,000-99,999 pounds",Student,Psychology with counselling,Right,No,No,English,No,NA,NA,NA,NA,NA,NA,NA,NA,NA,NA,NA,NA,English,English,Public,Yes,Yes,Yes,Yes,7.5,No,No,Yes,Yes,White,Psychology,UK,6.5
