participant,group,n_trial_correct,n_trial_lure,mean_rt_correct,mean_rt_lure,acc_veri,veri_performance
10010,CAB,139,136,1.1785223021582734,1.413847794117647,95.48611111111111,0.2353254919593737
10011,BCA,143,134,0.8742426573426574,1.0802746268656716,96.18055555555556,0.20603196952301417
10012,CAB,134,137,1.1275432835820896,1.3225722627737226,94.09722222222221,0.1950289791916331
10013,BCA,103,89,2.172077669902913,3.051959550561798,66.66666666666666,0.8798818806588851
10014,CAB,131,88,3.356587786259542,4.018648863636364,76.04166666666666,0.6620610773768218
10015,ACB,135,123,4.856040740740741,4.870020325203252,89.58333333333334,0.013979584462511241
10016,BAC,139,125,0.823263309352518,1.0531456,91.66666666666666,0.2298822906474819
10017,CBA,127,136,1.7344984251732285,2.4105654411544117,91.31944444444444,0.6760670159811832
10018,BAC,137,131,0.9185474452554745,1.1254427480916032,93.05555555555556,0.20689530283612867
10019,ACB,136,139,3.0922595588235295,3.9339712230215826,95.48611111111111,0.8417116641980531
10020,BCA,134,122,1.542039552238806,1.9843155737704918,88.88888888888889,0.4422760215316859
10021,ABC,142,139,1.5046830985915494,2.2221079136690647,97.56944444444444,0.7174248150775153
10022,BCA,78,93,1.3291166666666665,1.5384225806451615,59.375,0.20930591397849496
10023,CBA,39,29,0.7852179487179487,1.6099724137931035,23.61111111111111,0.8247544650751548
10024,BAC,140,137,1.0146635714285714,1.1652401459854014,96.18055555555556,0.15057657455682993
10025,ABC,141,134,1.3090347517730496,1.712476119402985,95.48611111111111,0.4034413676299353
10026,BCA,142,129,1.3517845070422536,1.8129806201550387,94.09722222222221,0.4611961131127851
10027,CAB,139,123,1.2772079136690648,1.9119569105691057,90.97222222222221,0.6347489969000408
10028,CAB,136,137,1.0250735294117648,1.2225094890437955,94.79166666666666,0.19743595963203076
10029,CBA,136,130,0.9886433823529411,1.3118376923076922,92.36111111111111,0.32319430995475107
10030,BAC,139,140,1.1115287769784172,1.3960735714285715,96.875,0.28454479445015424
10031,BAC,141,134,2.1119482269503544,3.1669783582089552,95.48611111111111,1.0550301312586008
10032,BCA,142,126,2.872587323943662,3.9244246031746033,93.05555555555556,1.0518372792309414
119238710566,CAB,140,136,0.8050021428571429,0.9332639705882353,95.83333333333334,0.1282618277310924
134423588053,CBA,143,143,0.9464433566433567,1.1878223776223777,99.30555555555556,0.24137902097902109
176876591960,ABC,140,135,0.7382442857142857,0.8494377777777777,95.48611111111111,0.11119349206349205
181625310168,BCA,139,139,0.7979992805755396,0.8691971223021583,96.52777777777779,0.0711978417266187
191352558881,BCA,137,131,1.2567693430656934,1.7557801526717558,93.05555555555556,0.49901080960606237
230068048695,CAB,141,129,1.2737475177304964,1.5831736434108528,93.75,0.3094261256803563
231023528450,ACB,129,128,1.3569992248062015,1.4801,89.23611111111111,0.12310077519379847
277529272856,CAB,135,122,1.1831348148148149,1.5645327868852459,89.23611111111111,0.381397972070431
294874663208,CAB,128,133,1.59938125,2.126496992481203,90.625,0.527115742481203
318020814820,ABC,139,135,0.8350589928057554,0.9764311111111111,95.13888888888889,0.1413721183053558
392002593306,BCA,135,133,1.0754348148148147,1.2701676691729324,93.05555555555556,0.1947328543581177
414654074748,CAB,142,141,3.090873943661972,3.670467375886525,98.26388888888889,0.5795934322245531
458214205270,CAB,143,137,1.0740951048951048,1.1744262773722627,97.22222222222221,0.10033117247715784
483748594322,ACB,137,132,2.023906569343066,2.573240909090909,93.40277777777779,0.5493343397478432
484025127976,BAC,136,136,0.9839551470588235,1.1442110294117647,94.44444444444444,0.1602558823529412
501104472111,BCA,134,140,1.2109932835820896,1.4958185714285714,95.13888888888889,0.28482528784648187
517308643925,BCA,142,133,1.1465852112676056,1.3636924812030076,95.48611111111111,0.21710726993540197
560520040965,CAB,134,122,1.1247932835820895,1.4626909836065574,88.88888888888889,0.33789770002446784
582545690541,BAC,142,135,0.86675,1.0744140740740742,96.18055555555556,0.20766407407407417
604128320491,ABC,138,101,1.1322471013913042,1.6274346534356436,82.98611111111111,0.4951875520443394
651964771235,ACB,119,111,1.2928789915966385,1.6248198198198198,79.86111111111111,0.3319408282231813
675296385237,ACB,69,65,1.9305710144927537,2.169503076923077,46.52777777777778,0.23893206243032328
678536750213,BCA,141,136,1.0820503546099292,1.322710294117647,96.18055555555556,0.2406599395077178
692323212348,CBA,143,139,0.8857657342657342,1.0438827338129495,97.91666666666666,0.15811699954721525
697608015709,BCA,140,140,1.2299414285714285,1.3862692857142858,97.22222222222221,0.15632785714285724
730858445772,CBA,140,130,1.0957214285714285,1.4175523076923078,93.75,0.32183087912087927
771719516720,BCA,141,138,1.1214141843971632,1.2597007246376812,96.875,0.138286540240518
798938289447,BCA,125,126,0.8789776,0.9714539682539682,87.15277777777779,0.09247636825396821
822385097411,BAC,139,127,0.8084280575539569,0.9293409448818898,92.36111111111111,0.12091288732793293
8233,ABC,142,133,1.345350704225352,1.6523353383458648,95.48611111111111,0.3069846341205127
8242,CBA,131,124,0.9110114503816794,1.1176177419354838,88.54166666666666,0.2066062915538044
8251,CBA,140,134,0.9605814285714286,1.125423880597015,95.13888888888889,0.16484245202558634
838440669607,CBA,124,101,1.7396298387096774,2.2322841584158417,78.125,0.49265431970616436
848199286335,CAB,140,135,2.2723628571428574,2.5157237037037037,95.48611111111111,0.24336084656084633
8485,BAC,132,122,2.6651128787878786,3.319804918032787,88.19444444444444,0.6546920392449085
8488,CBA,143,135,1.1754895104895104,1.377197037037037,96.52777777777779,0.20170752654752655
8497,CBA,108,91,2.5927898148148145,2.6899175824175825,69.09722222222221,0.09712776760276798
8506,CBA,137,132,0.8122912408759124,1.0260234848484848,93.40277777777779,0.2137322439725724
8509,BAC,130,128,0.8201384615384616,0.93752890625,89.58333333333334,0.11739044471153837
8515,ABC,141,141,0.881758865248227,1.130177304964539,97.91666666666666,0.24841843971631195
8533,ABC,136,129,1.1307220588235294,1.3187007751937985,92.01388888888889,0.18797871637026908
857677498017,CBA,62,39,1.2976258064516129,0.7794179487179487,35.06944444444444,-0.5182078577336642
8596,ABC,137,138,1.307507299270073,1.3388021739130436,95.48611111111111,0.03129487464297065
8644,BCA,128,111,1.5215453125,1.942254954954955,82.98611111111111,0.420709642454955
8665,BAC,140,135,2.0007442857142856,2.517817037037037,95.48611111111111,0.5170727513227513
8668,CAB,124,101,1.0448548387096774,1.4143534653465346,78.125,0.3694986266368572
8761,BAC,128,121,1.0925390625,1.3553471074380166,86.45833333333334,0.26280804493801657
8767,CAB,143,134,2.2656783216783216,2.454738805970149,96.18055555555556,0.18906048429182754
8791,CAB,143,138,2.290839160839161,2.7640420289855077,97.56944444444444,0.4732028681463465
8800,ACB,142,139,1.6042239435774648,2.344137410057554,97.56944444444444,0.7399134664800893
8803,CBA,142,139,0.7806514084507042,1.0858805755395684,97.56944444444444,0.30522916708886416
8812,ABC,133,132,0.9289812030075187,1.061119696969697,92.01388888888889,0.13213849396217825
8815,ACB,137,127,1.2153992700729928,1.4953535433070866,91.66666666666666,0.27995427323409383
8824,CBA,142,132,1.4058887323943663,1.7242522727272727,95.13888888888889,0.31836354033290637
8827,ACB,139,142,2.1369546762589926,2.672298591549296,97.56944444444444,0.5353439152903032
8833,BAC,141,137,1.3364950354609928,1.413436496350365,96.52777777777779,0.07694146088937215
8842,CAB,127,136,1.1146456692913387,1.2760514705882353,91.31944444444444,0.16140580129689663
8845,BCA,142,137,1.1330767605633802,1.2837328467153284,96.875,0.15065608615194814
8857,CAB,137,130,1.0431372262773722,1.2795507692307693,92.70833333333334,0.23641354295339712
8863,CAB,141,144,1.6150106382978724,1.9378472222222223,98.95833333333334,0.3228365839243499
8866,BCA,142,139,0.9914394366197183,1.2742172661870503,97.56944444444444,0.282777829567332
8875,CBA,134,133,2.552307462686567,2.8740812030075187,92.70833333333334,0.3217737403209515
8896,ACB,129,127,0.9184813953488372,1.2352,88.88888888888889,0.31671860465116286
8902,CAB,140,127,1.56276,2.0499944881889767,92.70833333333334,0.48723448818897674
8917,BCA,138,135,1.2164115942028986,1.5233585185185186,94.79166666666666,0.30694692431562
8926,CAB,130,134,1.2140676923076923,1.4539373134328357,91.66666666666666,0.23986962112514343
8929,CAB,140,141,1.0254192857142856,1.3089751773049645,97.56944444444444,0.28355589159067884
8932,CBA,139,142,1.4681755395683453,1.8108767605633802,97.56944444444444,0.34270122099503486
8935,CAB,141,137,1.2266943262411347,1.3660270072992702,96.52777777777779,0.13933268105813545
8953,CBA,142,141,1.042443661971831,1.478255319148936,98.26388888888889,0.4358116571771051
8971,CBA,137,132,2.93254598540146,3.0899757575757576,93.40277777777779,0.15742977217429743
8986,BAC,143,129,1.265423776223776,1.6176193798449612,94.44444444444444,0.35219560362118507
916438355576,CBA,141,128,1.5766262411347518,2.23742890625,93.40277777777779,0.6608026651152481
933126141410,CAB,139,134,1.3934553956834532,2.0136798507462688,94.79166666666666,0.6202244550628155
939257332379,CAB,37,51,1.8292702702702703,2.3223333333333334,30.555555555555557,0.493063063063063
957558488938,CAB,130,137,1.4019615384615385,1.6959569343065692,92.70833333333334,0.29399539584503076
