windowSize,participant,group,DOB (DD/MM/YEAR),session,date,expName,psychopyVersion,OS,frameRate,typing_instr_resp.keys,typing_instr_resp.rt,typing_response,typing_rt,typing_score,typingSpeed_input_resp.keys,typingSpeed_input_resp.rt,typing_speed_trials.thisRepN,typing_speed_trials.thisTrialN,typing_speed_trials.thisN,typing_speed_trials.thisIndex,typing_speed_trials.ran,typing_speed_stim,typing_report_resp.keys,typing_report_resp.rt,vpt_trial_resp1.keys,vpt_trial_resp1.rt,typedResponse,fluency_rt,fluency_score,fluencyInputResp.keys,fluencyInputResp.rt,fluencyPracLoop.thisRepN,fluencyPracLoop.thisTrialN,fluencyPracLoop.thisN,fluencyPracLoop.thisIndex,fluencyPracLoop.ran,problem,answers,fluencyLoop.thisRepN,fluencyLoop.thisTrialN,fluencyLoop.thisN,fluencyLoop.thisIndex,fluencyLoop.ran,vptCorrect,vpt_rt,respMouse.x,respMouse.y,respMouse.leftButton,respMouse.midButton,respMouse.rightButton,vptPracticeLoop.thisRepN,vptPracticeLoop.thisTrialN,vptPracticeLoop.thisN,vptPracticeLoop.thisIndex,vptPracticeLoop.ran,trialType,tiles,rows,cols,vptTrialLoop.thisRepN,vptTrialLoop.thisTrialN,vptTrialLoop.thisN,vptTrialLoop.thisIndex,vptTrialLoop.ran,noOfBlocks,TASK_B.thisRepN,TASK_B.thisTrialN,TASK_B.thisN,TASK_B.thisIndex,TASK_B.ran,controlTaskOrder.thisRepN,controlTaskOrder.thisTrialN,controlTaskOrder.thisN,controlTaskOrder.thisIndex,controlTaskOrder.ran,nRepsTask1,nRepsTask2,nRepsTask3,stroopResp.keys,stroopResp.corr,stroopResp.rt,stroopPracLoop.thisRepN,stroopPracLoop.thisTrialN,stroopPracLoop.thisN,stroopPracLoop.thisIndex,stroopPracLoop.ran,stroopCond,leftNo,rightNo,displayProblem,numDistance,leftNo_size,rightNo_size,Dims,keyAnswer,stroopLoop.thisRepN,stroopLoop.thisTrialN,stroopLoop.thisN,stroopLoop.thisIndex,stroopLoop.ran,stroopBlocks.thisRepN,stroopBlocks.thisTrialN,stroopBlocks.thisN,stroopBlocks.thisIndex,stroopBlocks.ran,stroop_condition,stroop_pracFile,ActionInst,instrImage,TASK_A.thisRepN,TASK_A.thisTrialN,TASK_A.thisN,TASK_A.thisIndex,TASK_A.ran,sampleAudio_resp.keys,sampleAudio_resp.rt,subjResponse,audio_rt,DS_score,inputResp.keys,inputResp.rt,audioPracticeLoop.thisRepN,audioPracticeLoop.thisTrialN,audioPracticeLoop.thisN,audioPracticeLoop.thisIndex,audioPracticeLoop.ran,digitSpan,digits_audioStim,soundsFile,typeDS,audioTrials_Loop.thisRepN,audioTrials_Loop.thisTrialN,audioTrials_Loop.thisN,audioTrials_Loop.thisIndex,audioTrials_Loop.ran,audioBlocks_loop.thisRepN,audioBlocks_loop.thisTrialN,audioBlocks_loop.thisN,audioBlocks_loop.thisIndex,audioBlocks_loop.ran,ConditionFile,digitSpanTask_loop.thisRepN,digitSpanTask_loop.thisTrialN,digitSpanTask_loop.thisN,digitSpanTask_loop.thisIndex,digitSpanTask_loop.ran,dsFile,TASK_C.thisRepN,TASK_C.thisTrialN,TASK_C.thisN,TASK_C.thisIndex,TASK_C.ran,veriStim_resp.keys,veriStim_resp.corr,veriStim_resp.rt,verificationPracLoop.thisRepN,verificationPracLoop.thisTrialN,verificationPracLoop.thisN,verificationPracLoop.thisIndex,verificationPracLoop.ran,mult_problem,mult_answer,mult_type,error_distance,interferenceScore,problemType,interferenceLevel,problemSize,img_leftButton,img_rightButton,veriLoop.thisRepN,veriLoop.thisTrialN,veriLoop.thisN,veriLoop.thisIndex,veriLoop.ran,veriBlock.thisRepN,veriBlock.thisTrialN,veriBlock.thisN,veriBlock.thisIndex,veriBlock.ran,verificationFiles,end_resp.keys,end_resp.rt
"[1920,872]",8485,BAC,30/12/2003,001,2023-03-30_15h48.08.286,OS3_Mult_verification,2022.2.4,Win32,59.53089654,,,,,,,,,,,,,,,,,,,,,,,,,,,,,,,,,,,,,,,,,,,,,,,,,,,,,,,,,,,,,,,,,,,,,,,,,,,,,,,,,,,,,,,,,,,,,,,,,,,,,,,,,,,,,,,,,,,,,,,,,,,,,,,,,,,,,,,,,,,,,,,,,,,,,,,,,,,,,,,,,,,,,,,,,,,,,,
,8485,BAC,30/12/2003,001,2023-03-30_15h48.08.286,OS3_Mult_verification,2022.2.4,Win32,59.53089654,,,,,,,,,,,,,,,,,,,,,,,,,,,,,,,,,,,,,,,,,,,,,,,,,,,,,,,,,,,,,,,,,,,,,,,,,,,,,,,,,,,,,,,,,,,,,,,,,,,,,,,,,,,,,,,,,,,,,,,,,,,,,,,,,,,,,,,,,,,,,,,,,,,,,,,,,,,,,,,,,,,,,,,,,,,,,,
,8485,BAC,30/12/2003,001,2023-03-30_15h48.08.286,OS3_Mult_verification,2022.2.4,Win32,59.53089654,space,31.016,,,,,,,,,,,,,,,,,,,,,,,,,,,,,,,,,,,,,,,,,,,,,,,,,,,,,,,,,,,,,,,,,,,,,,,,,,,,,,,,,,,,,,,,,,,,,,,,,,,,,,,,,,,,,,,,,,,,,,,,,,,,,,,,,,,,,,,,,,,,,,,,,,,,,,,,,,,,,,,,,,,,,,,,,,,,
,8485,BAC,30/12/2003,001,2023-03-30_15h48.08.286,OS3_Mult_verification,2022.2.4,Win32,59.53089654,,,40,2.4522,1,"[""4"",""0"",""return""]","[1.1838999998569477,1.3504999999999967,2.4008999998569465]",0,0,0,20,1,40,,,,,,,,,,,,,,,,,,,,,,,,,,,,,,,,,,,,,,,,,,,,,,,,,,,,,,,,,,,,,,,,,,,,,,,,,,,,,,,,,,,,,,,,,,,,,,,,,,,,,,,,,,,,,,,,,,,,,,,,,,,,,,,,,,,,,,,,,,,,,,,,,,,,,,,,,,,,,,,,,
,8485,BAC,30/12/2003,001,2023-03-30_15h48.08.286,OS3_Mult_verification,2022.2.4,Win32,59.53089654,,,18,1.4573,1,"[""1"",""8"",""return""]","[0.7964999999999947,1.258499999999998,1.41729999995232]",0,1,1,9,1,18,,,,,,,,,,,,,,,,,,,,,,,,,,,,,,,,,,,,,,,,,,,,,,,,,,,,,,,,,,,,,,,,,,,,,,,,,,,,,,,,,,,,,,,,,,,,,,,,,,,,,,,,,,,,,,,,,,,,,,,,,,,,,,,,,,,,,,,,,,,,,,,,,,,,,,,,,,,,,,,,,
,8485,BAC,30/12/2003,001,2023-03-30_15h48.08.286,OS3_Mult_verification,2022.2.4,Win32,59.53089654,,,45,1.3909,1,"[""4"",""5"",""return""]","[1.0347000000476783,1.1509999999999962,1.334400000095357]",0,2,2,22,1,45,,,,,,,,,,,,,,,,,,,,,,,,,,,,,,,,,,,,,,,,,,,,,,,,,,,,,,,,,,,,,,,,,,,,,,,,,,,,,,,,,,,,,,,,,,,,,,,,,,,,,,,,,,,,,,,,,,,,,,,,,,,,,,,,,,,,,,,,,,,,,,,,,,,,,,,,,,,,,,,,,
,8485,BAC,30/12/2003,001,2023-03-30_15h48.08.286,OS3_Mult_verification,2022.2.4,Win32,59.53089654,,,32,1.4413,1,"[""3"",""2"",""return""]","[1.1171999998092588,1.2849999999999966,1.4000999999046257]",0,3,3,17,1,32,,,,,,,,,,,,,,,,,,,,,,,,,,,,,,,,,,,,,,,,,,,,,,,,,,,,,,,,,,,,,,,,,,,,,,,,,,,,,,,,,,,,,,,,,,,,,,,,,,,,,,,,,,,,,,,,,,,,,,,,,,,,,,,,,,,,,,,,,,,,,,,,,,,,,,,,,,,,,,,,,
,8485,BAC,30/12/2003,001,2023-03-30_15h48.08.286,OS3_Mult_verification,2022.2.4,Win32,59.53089654,,,4,1.3493,1,"[""4"",""return""]","[1.0340999999046403,1.301899999856957]",0,4,4,0,1,4,,,,,,,,,,,,,,,,,,,,,,,,,,,,,,,,,,,,,,,,,,,,,,,,,,,,,,,,,,,,,,,,,,,,,,,,,,,,,,,,,,,,,,,,,,,,,,,,,,,,,,,,,,,,,,,,,,,,,,,,,,,,,,,,,,,,,,,,,,,,,,,,,,,,,,,,,,,,,,,,,
,8485,BAC,30/12/2003,001,2023-03-30_15h48.08.286,OS3_Mult_verification,2022.2.4,Win32,59.53089654,,,72,1.6241,1,"[""7"",""2"",""return""]","[0.9837000000476763,1.4509999999999934,1.5842999999523073]",0,5,5,29,1,72,,,,,,,,,,,,,,,,,,,,,,,,,,,,,,,,,,,,,,,,,,,,,,,,,,,,,,,,,,,,,,,,,,,,,,,,,,,,,,,,,,,,,,,,,,,,,,,,,,,,,,,,,,,,,,,,,,,,,,,,,,,,,,,,,,,,,,,,,,,,,,,,,,,,,,,,,,,,,,,,,
,8485,BAC,30/12/2003,001,2023-03-30_15h48.08.286,OS3_Mult_verification,2022.2.4,Win32,59.53089654,,,48,1.3902,1,"[""4"",""8"",""return""]","[0.8180999999046321,1.2177000000476852,1.3504999999999967]",0,6,6,23,1,48,,,,,,,,,,,,,,,,,,,,,,,,,,,,,,,,,,,,,,,,,,,,,,,,,,,,,,,,,,,,,,,,,,,,,,,,,,,,,,,,,,,,,,,,,,,,,,,,,,,,,,,,,,,,,,,,,,,,,,,,,,,,,,,,,,,,,,,,,,,,,,,,,,,,,,,,,,,,,,,,,
,8485,BAC,30/12/2003,001,2023-03-30_15h48.08.286,OS3_Mult_verification,2022.2.4,Win32,59.53089654,,,27,1.6321,1,"[""2"",""7"",""return""]","[0.8072999999523205,1.4377999999523183,1.5900999999046377]",0,7,7,14,1,27,,,,,,,,,,,,,,,,,,,,,,,,,,,,,,,,,,,,,,,,,,,,,,,,,,,,,,,,,,,,,,,,,,,,,,,,,,,,,,,,,,,,,,,,,,,,,,,,,,,,,,,,,,,,,,,,,,,,,,,,,,,,,,,,,,,,,,,,,,,,,,,,,,,,,,,,,,,,,,,,,
,8485,BAC,30/12/2003,001,2023-03-30_15h48.08.286,OS3_Mult_verification,2022.2.4,Win32,59.53089654,,,56,1.6411,1,"[""5"",""6"",""return""]","[1.1383999998569436,1.4586999998092693,1.600799999952315]",0,8,8,26,1,56,,,,,,,,,,,,,,,,,,,,,,,,,,,,,,,,,,,,,,,,,,,,,,,,,,,,,,,,,,,,,,,,,,,,,,,,,,,,,,,,,,,,,,,,,,,,,,,,,,,,,,,,,,,,,,,,,,,,,,,,,,,,,,,,,,,,,,,,,,,,,,,,,,,,,,,,,,,,,,,,,
,8485,BAC,30/12/2003,001,2023-03-30_15h48.08.286,OS3_Mult_verification,2022.2.4,Win32,59.53089654,,,54,2.6294,1,"[""5"",""4"",""return""]","[1.175699999809268,2.2075999999046445,2.591399999856961]",0,9,9,25,1,54,,,,,,,,,,,,,,,,,,,,,,,,,,,,,,,,,,,,,,,,,,,,,,,,,,,,,,,,,,,,,,,,,,,,,,,,,,,,,,,,,,,,,,,,,,,,,,,,,,,,,,,,,,,,,,,,,,,,,,,,,,,,,,,,,,,,,,,,,,,,,,,,,,,,,,,,,,,,,,,,,
,8485,BAC,30/12/2003,001,2023-03-30_15h48.08.286,OS3_Mult_verification,2022.2.4,Win32,59.53089654,,,8,1.7493,1,"[""8"",""return""]","[1.3845000000000027,1.70760000014306]",0,10,10,2,1,8,,,,,,,,,,,,,,,,,,,,,,,,,,,,,,,,,,,,,,,,,,,,,,,,,,,,,,,,,,,,,,,,,,,,,,,,,,,,,,,,,,,,,,,,,,,,,,,,,,,,,,,,,,,,,,,,,,,,,,,,,,,,,,,,,,,,,,,,,,,,,,,,,,,,,,,,,,,,,,,,,
,8485,BAC,30/12/2003,001,2023-03-30_15h48.08.286,OS3_Mult_verification,2022.2.4,Win32,59.53089654,,,16,1.2993,1,"[""1"",""6"",""return""]","[0.6511999998092648,1.1405999999046372,1.2502999999523183]",0,11,11,8,1,16,,,,,,,,,,,,,,,,,,,,,,,,,,,,,,,,,,,,,,,,,,,,,,,,,,,,,,,,,,,,,,,,,,,,,,,,,,,,,,,,,,,,,,,,,,,,,,,,,,,,,,,,,,,,,,,,,,,,,,,,,,,,,,,,,,,,,,,,,,,,,,,,,,,,,,,,,,,,,,,,,
,8485,BAC,30/12/2003,001,2023-03-30_15h48.08.286,OS3_Mult_verification,2022.2.4,Win32,59.53089654,,,24,4.2695,1,"[""3"",""backspace"",""2"",""4"",""return""]","[0.6682000000476904,1.22170000004769,2.717300000190747,2.9342000000476958,4.221600000143056]",0,12,12,12,1,24,,,,,,,,,,,,,,,,,,,,,,,,,,,,,,,,,,,,,,,,,,,,,,,,,,,,,,,,,,,,,,,,,,,,,,,,,,,,,,,,,,,,,,,,,,,,,,,,,,,,,,,,,,,,,,,,,,,,,,,,,,,,,,,,,,,,,,,,,,,,,,,,,,,,,,,,,,,,,,,,,
,8485,BAC,30/12/2003,001,2023-03-30_15h48.08.286,OS3_Mult_verification,2022.2.4,Win32,59.53089654,,,81,1.7494,1,"[""8"",""1"",""return""]","[1.1840999999046318,1.551000000000002,1.701299999952326]",0,13,13,30,1,81,,,,,,,,,,,,,,,,,,,,,,,,,,,,,,,,,,,,,,,,,,,,,,,,,,,,,,,,,,,,,,,,,,,,,,,,,,,,,,,,,,,,,,,,,,,,,,,,,,,,,,,,,,,,,,,,,,,,,,,,,,,,,,,,,,,,,,,,,,,,,,,,,,,,,,,,,,,,,,,,,
,8485,BAC,30/12/2003,001,2023-03-30_15h48.08.286,OS3_Mult_verification,2022.2.4,Win32,59.53089654,,,36,1.374,1,"[""3"",""6"",""return""]","[0.8335999999046351,1.2340000000000089,1.3336999998092836]",0,14,14,19,1,36,,,,,,,,,,,,,,,,,,,,,,,,,,,,,,,,,,,,,,,,,,,,,,,,,,,,,,,,,,,,,,,,,,,,,,,,,,,,,,,,,,,,,,,,,,,,,,,,,,,,,,,,,,,,,,,,,,,,,,,,,,,,,,,,,,,,,,,,,,,,,,,,,,,,,,,,,,,,,,,,,
,8485,BAC,30/12/2003,001,2023-03-30_15h48.08.286,OS3_Mult_verification,2022.2.4,Win32,59.53089654,,,14,1.1164,1,"[""1"",""4"",""return""]","[0.5360000000000014,0.9960999999046294,1.073399999856946]",0,15,15,6,1,14,,,,,,,,,,,,,,,,,,,,,,,,,,,,,,,,,,,,,,,,,,,,,,,,,,,,,,,,,,,,,,,,,,,,,,,,,,,,,,,,,,,,,,,,,,,,,,,,,,,,,,,,,,,,,,,,,,,,,,,,,,,,,,,,,,,,,,,,,,,,,,,,,,,,,,,,,,,,,,,,,
,8485,BAC,30/12/2003,001,2023-03-30_15h48.08.286,OS3_Mult_verification,2022.2.4,Win32,59.53089654,,,10,1.2908,1,"[""1"",""0"",""return""]","[0.6839000000953774,1.0730000000000075,1.2495000000000118]",0,16,16,4,1,10,,,,,,,,,,,,,,,,,,,,,,,,,,,,,,,,,,,,,,,,,,,,,,,,,,,,,,,,,,,,,,,,,,,,,,,,,,,,,,,,,,,,,,,,,,,,,,,,,,,,,,,,,,,,,,,,,,,,,,,,,,,,,,,,,,,,,,,,,,,,,,,,,,,,,,,,,,,,,,,,,
,8485,BAC,30/12/2003,001,2023-03-30_15h48.08.286,OS3_Mult_verification,2022.2.4,Win32,59.53089654,,,28,4.9403,1,"[""3"",""2"",""backspace"",""backspace"",""2"",""8"",""return""]","[0.756799999952321,2.1518999998569512,3.3130000000000024,3.468399999856942,4.0362999999523055,4.533599999904638,4.899199999809255]",0,17,17,15,1,28,,,,,,,,,,,,,,,,,,,,,,,,,,,,,,,,,,,,,,,,,,,,,,,,,,,,,,,,,,,,,,,,,,,,,,,,,,,,,,,,,,,,,,,,,,,,,,,,,,,,,,,,,,,,,,,,,,,,,,,,,,,,,,,,,,,,,,,,,,,,,,,,,,,,,,,,,,,,,,,,,
,8485,BAC,30/12/2003,001,2023-03-30_15h48.08.286,OS3_Mult_verification,2022.2.4,Win32,59.53089654,,,6,1.2574,1,"[""6"",""return""]","[1.0507999999523179,1.2017999999523]",0,18,18,1,1,6,,,,,,,,,,,,,,,,,,,,,,,,,,,,,,,,,,,,,,,,,,,,,,,,,,,,,,,,,,,,,,,,,,,,,,,,,,,,,,,,,,,,,,,,,,,,,,,,,,,,,,,,,,,,,,,,,,,,,,,,,,,,,,,,,,,,,,,,,,,,,,,,,,,,,,,,,,,,,,,,,
,8485,BAC,30/12/2003,001,2023-03-30_15h48.08.286,OS3_Mult_verification,2022.2.4,Win32,59.53089654,,,25,1.6337,1,"[""2"",""5"",""return""]","[0.8334999999999866,1.3202999999523115,1.5854999999999961]",0,19,19,13,1,25,,,,,,,,,,,,,,,,,,,,,,,,,,,,,,,,,,,,,,,,,,,,,,,,,,,,,,,,,,,,,,,,,,,,,,,,,,,,,,,,,,,,,,,,,,,,,,,,,,,,,,,,,,,,,,,,,,,,,,,,,,,,,,,,,,,,,,,,,,,,,,,,,,,,,,,,,,,,,,,,,
,8485,BAC,30/12/2003,001,2023-03-30_15h48.08.286,OS3_Mult_verification,2022.2.4,Win32,59.53089654,,,49,1.5914,1,"[""4"",""9"",""return""]","[0.9235999999046385,1.4370000000000118,1.5510999999046362]",0,20,20,24,1,49,,,,,,,,,,,,,,,,,,,,,,,,,,,,,,,,,,,,,,,,,,,,,,,,,,,,,,,,,,,,,,,,,,,,,,,,,,,,,,,,,,,,,,,,,,,,,,,,,,,,,,,,,,,,,,,,,,,,,,,,,,,,,,,,,,,,,,,,,,,,,,,,,,,,,,,,,,,,,,,,,
,8485,BAC,30/12/2003,001,2023-03-30_15h48.08.286,OS3_Mult_verification,2022.2.4,Win32,59.53089654,,,35,1.5162,1,"[""3"",""5"",""return""]","[0.8489999999999895,1.3386000001430318,1.4672000000476828]",0,21,21,18,1,35,,,,,,,,,,,,,,,,,,,,,,,,,,,,,,,,,,,,,,,,,,,,,,,,,,,,,,,,,,,,,,,,,,,,,,,,,,,,,,,,,,,,,,,,,,,,,,,,,,,,,,,,,,,,,,,,,,,,,,,,,,,,,,,,,,,,,,,,,,,,,,,,,,,,,,,,,,,,,,,,,
,8485,BAC,30/12/2003,001,2023-03-30_15h48.08.286,OS3_Mult_verification,2022.2.4,Win32,59.53089654,,,12,0.9977,1,"[""1"",""2"",""return""]","[0.5843000001907228,0.7839000000953433,0.9509999999999934]",0,22,22,5,1,12,,,,,,,,,,,,,,,,,,,,,,,,,,,,,,,,,,,,,,,,,,,,,,,,,,,,,,,,,,,,,,,,,,,,,,,,,,,,,,,,,,,,,,,,,,,,,,,,,,,,,,,,,,,,,,,,,,,,,,,,,,,,,,,,,,,,,,,,,,,,,,,,,,,,,,,,,,,,,,,,,
,8485,BAC,30/12/2003,001,2023-03-30_15h48.08.286,OS3_Mult_verification,2022.2.4,Win32,59.53089654,,,64,1.6238,1,"[""6"",""4"",""return""]","[1.1174000000953583,1.401700000047697,1.5834999999999866]",0,23,23,28,1,64,,,,,,,,,,,,,,,,,,,,,,,,,,,,,,,,,,,,,,,,,,,,,,,,,,,,,,,,,,,,,,,,,,,,,,,,,,,,,,,,,,,,,,,,,,,,,,,,,,,,,,,,,,,,,,,,,,,,,,,,,,,,,,,,,,,,,,,,,,,,,,,,,,,,,,,,,,,,,,,,,
,8485,BAC,30/12/2003,001,2023-03-30_15h48.08.286,OS3_Mult_verification,2022.2.4,Win32,59.53089654,,,15,1.033,1,"[""1"",""5"",""return""]","[0.5627999999523183,0.8960999999046351,1.0002000000476983]",0,24,24,7,1,15,,,,,,,,,,,,,,,,,,,,,,,,,,,,,,,,,,,,,,,,,,,,,,,,,,,,,,,,,,,,,,,,,,,,,,,,,,,,,,,,,,,,,,,,,,,,,,,,,,,,,,,,,,,,,,,,,,,,,,,,,,,,,,,,,,,,,,,,,,,,,,,,,,,,,,,,,,,,,,,,,
,8485,BAC,30/12/2003,001,2023-03-30_15h48.08.286,OS3_Mult_verification,2022.2.4,Win32,59.53089654,,,42,1.3996,1,"[""4"",""2"",""return""]","[0.9007000000476921,1.2512000000476746,1.3564000000953627]",0,25,25,21,1,42,,,,,,,,,,,,,,,,,,,,,,,,,,,,,,,,,,,,,,,,,,,,,,,,,,,,,,,,,,,,,,,,,,,,,,,,,,,,,,,,,,,,,,,,,,,,,,,,,,,,,,,,,,,,,,,,,,,,,,,,,,,,,,,,,,,,,,,,,,,,,,,,,,,,,,,,,,,,,,,,,
,8485,BAC,30/12/2003,001,2023-03-30_15h48.08.286,OS3_Mult_verification,2022.2.4,Win32,59.53089654,,,9,1.3849,1,"[""9"",""return""]","[1.117299999952337,1.350299999952341]",0,26,26,3,1,9,,,,,,,,,,,,,,,,,,,,,,,,,,,,,,,,,,,,,,,,,,,,,,,,,,,,,,,,,,,,,,,,,,,,,,,,,,,,,,,,,,,,,,,,,,,,,,,,,,,,,,,,,,,,,,,,,,,,,,,,,,,,,,,,,,,,,,,,,,,,,,,,,,,,,,,,,,,,,,,,,
,8485,BAC,30/12/2003,001,2023-03-30_15h48.08.286,OS3_Mult_verification,2022.2.4,Win32,59.53089654,,,30,2.5395,1,"[""4"",""backspace"",""3"",""0"",""return""]","[0.7000999999046371,1.7527000000476676,1.899899999856956,2.2328999998569543,2.4989999999999952]",0,27,27,16,1,30,,,,,,,,,,,,,,,,,,,,,,,,,,,,,,,,,,,,,,,,,,,,,,,,,,,,,,,,,,,,,,,,,,,,,,,,,,,,,,,,,,,,,,,,,,,,,,,,,,,,,,,,,,,,,,,,,,,,,,,,,,,,,,,,,,,,,,,,,,,,,,,,,,,,,,,,,,,,,,,,,
,8485,BAC,30/12/2003,001,2023-03-30_15h48.08.286,OS3_Mult_verification,2022.2.4,Win32,59.53089654,,,63,1.8491,1,"[""6"",""3"",""return""]","[1.151199999809279,1.6505999999046423,1.8013999998569545]",0,28,28,27,1,63,,,,,,,,,,,,,,,,,,,,,,,,,,,,,,,,,,,,,,,,,,,,,,,,,,,,,,,,,,,,,,,,,,,,,,,,,,,,,,,,,,,,,,,,,,,,,,,,,,,,,,,,,,,,,,,,,,,,,,,,,,,,,,,,,,,,,,,,,,,,,,,,,,,,,,,,,,,,,,,,,
,8485,BAC,30/12/2003,001,2023-03-30_15h48.08.286,OS3_Mult_verification,2022.2.4,Win32,59.53089654,,,21,1.0738,1,"[""2"",""1"",""return""]","[0.762799999952307,0.8842000000476844,1.0334000000953552]",0,29,29,11,1,21,,,,,,,,,,,,,,,,,,,,,,,,,,,,,,,,,,,,,,,,,,,,,,,,,,,,,,,,,,,,,,,,,,,,,,,,,,,,,,,,,,,,,,,,,,,,,,,,,,,,,,,,,,,,,,,,,,,,,,,,,,,,,,,,,,,,,,,,,,,,,,,,,,,,,,,,,,,,,,,,,
,8485,BAC,30/12/2003,001,2023-03-30_15h48.08.286,OS3_Mult_verification,2022.2.4,Win32,59.53089654,,,20,1.2169,1,"[""2"",""0"",""return""]","[0.717899999856968,0.9505999999046537,1.167700000047688]",0,30,30,10,1,20,,,,,,,,,,,,,,,,,,,,,,,,,,,,,,,,,,,,,,,,,,,,,,,,,,,,,,,,,,,,,,,,,,,,,,,,,,,,,,,,,,,,,,,,,,,,,,,,,,,,,,,,,,,,,,,,,,,,,,,,,,,,,,,,,,,,,,,,,,,,,,,,,,,,,,,,,,,,,,,,,
,8485,BAC,30/12/2003,001,2023-03-30_15h48.08.286,OS3_Mult_verification,2022.2.4,Win32,59.53089654,,,10,1.0905,1,"[""1"",""0"",""return""]","[0.5347999999522983,0.8175999999046155,1.0398999998569423]",1,0,31,4,1,10,,,,,,,,,,,,,,,,,,,,,,,,,,,,,,,,,,,,,,,,,,,,,,,,,,,,,,,,,,,,,,,,,,,,,,,,,,,,,,,,,,,,,,,,,,,,,,,,,,,,,,,,,,,,,,,,,,,,,,,,,,,,,,,,,,,,,,,,,,,,,,,,,,,,,,,,,,,,,,,,,
,8485,BAC,30/12/2003,001,2023-03-30_15h48.08.286,OS3_Mult_verification,2022.2.4,Win32,59.53089654,,,36,1.2831,1,"[""3"",""6"",""return""]","[0.767400000095364,1.11720000004766,1.2339000000953604]",1,1,32,19,1,36,,,,,,,,,,,,,,,,,,,,,,,,,,,,,,,,,,,,,,,,,,,,,,,,,,,,,,,,,,,,,,,,,,,,,,,,,,,,,,,,,,,,,,,,,,,,,,,,,,,,,,,,,,,,,,,,,,,,,,,,,,,,,,,,,,,,,,,,,,,,,,,,,,,,,,,,,,,,,,,,,
,8485,BAC,30/12/2003,001,2023-03-30_15h48.08.286,OS3_Mult_verification,2022.2.4,Win32,59.53089654,,,25,1.0335,1,"[""2"",""5"",""return""]","[0.6361000001430455,0.8841000001430359,0.9881000001430493]",1,2,33,13,1,25,,,,,,,,,,,,,,,,,,,,,,,,,,,,,,,,,,,,,,,,,,,,,,,,,,,,,,,,,,,,,,,,,,,,,,,,,,,,,,,,,,,,,,,,,,,,,,,,,,,,,,,,,,,,,,,,,,,,,,,,,,,,,,,,,,,,,,,,,,,,,,,,,,,,,,,,,,,,,,,,,
,8485,BAC,30/12/2003,001,2023-03-30_15h48.08.286,OS3_Mult_verification,2022.2.4,Win32,59.53089654,,,27,1.5008,1,"[""2"",""7"",""return""]","[0.7334999999999923,1.1189999999999998,1.4506999998092738]",1,3,34,14,1,27,,,,,,,,,,,,,,,,,,,,,,,,,,,,,,,,,,,,,,,,,,,,,,,,,,,,,,,,,,,,,,,,,,,,,,,,,,,,,,,,,,,,,,,,,,,,,,,,,,,,,,,,,,,,,,,,,,,,,,,,,,,,,,,,,,,,,,,,,,,,,,,,,,,,,,,,,,,,,,,,,
,8485,BAC,30/12/2003,001,2023-03-30_15h48.08.286,OS3_Mult_verification,2022.2.4,Win32,59.53089654,,,16,1.2819,1,"[""1"",""6"",""return""]","[0.5393000001907353,1.152200000047685,1.2502000000476983]",1,4,35,8,1,16,,,,,,,,,,,,,,,,,,,,,,,,,,,,,,,,,,,,,,,,,,,,,,,,,,,,,,,,,,,,,,,,,,,,,,,,,,,,,,,,,,,,,,,,,,,,,,,,,,,,,,,,,,,,,,,,,,,,,,,,,,,,,,,,,,,,,,,,,,,,,,,,,,,,,,,,,,,,,,,,,
,8485,BAC,30/12/2003,001,2023-03-30_15h48.08.286,OS3_Mult_verification,2022.2.4,Win32,59.53089654,,,24,1.2659,1,"[""2"",""4"",""return""]","[0.9017000000476685,1.0552000000476767,1.218900000095374]",1,5,36,12,1,24,,,,,,,,,,,,,,,,,,,,,,,,,,,,,,,,,,,,,,,,,,,,,,,,,,,,,,,,,,,,,,,,,,,,,,,,,,,,,,,,,,,,,,,,,,,,,,,,,,,,,,,,,,,,,,,,,,,,,,,,,,,,,,,,,,,,,,,,,,,,,,,,,,,,,,,,,,,,,,,,,
,8485,BAC,30/12/2003,001,2023-03-30_15h48.08.286,OS3_Mult_verification,2022.2.4,Win32,59.53089654,,,45,1.3076,1,"[""4"",""5"",""return""]","[0.8904000000953545,1.0340999999046119,1.2672999999523142]",1,6,37,22,1,45,,,,,,,,,,,,,,,,,,,,,,,,,,,,,,,,,,,,,,,,,,,,,,,,,,,,,,,,,,,,,,,,,,,,,,,,,,,,,,,,,,,,,,,,,,,,,,,,,,,,,,,,,,,,,,,,,,,,,,,,,,,,,,,,,,,,,,,,,,,,,,,,,,,,,,,,,,,,,,,,,
,8485,BAC,30/12/2003,001,2023-03-30_15h48.08.286,OS3_Mult_verification,2022.2.4,Win32,59.53089654,,,72,1.6663,1,"[""7"",""2"",""return""]","[1.1344000000953542,1.3681000001430448,1.6297000000476771]",1,7,38,29,1,72,,,,,,,,,,,,,,,,,,,,,,,,,,,,,,,,,,,,,,,,,,,,,,,,,,,,,,,,,,,,,,,,,,,,,,,,,,,,,,,,,,,,,,,,,,,,,,,,,,,,,,,,,,,,,,,,,,,,,,,,,,,,,,,,,,,,,,,,,,,,,,,,,,,,,,,,,,,,,,,,,
,8485,BAC,30/12/2003,001,2023-03-30_15h48.08.286,OS3_Mult_verification,2022.2.4,Win32,59.53089654,,,63,1.6006,1,"[""6"",""3"",""return""]","[0.9749999999999943,1.4174999999999898,1.5672000000476771]",1,8,39,27,1,63,,,,,,,,,,,,,,,,,,,,,,,,,,,,,,,,,,,,,,,,,,,,,,,,,,,,,,,,,,,,,,,,,,,,,,,,,,,,,,,,,,,,,,,,,,,,,,,,,,,,,,,,,,,,,,,,,,,,,,,,,,,,,,,,,,,,,,,,,,,,,,,,,,,,,,,,,,,,,,,,,
,8485,BAC,30/12/2003,001,2023-03-30_15h48.08.286,OS3_Mult_verification,2022.2.4,Win32,59.53089654,,,8,1.566,1,"[""8"",""return""]","[1.3508000001907305,1.5167000000476776]",1,9,40,2,1,8,,,,,,,,,,,,,,,,,,,,,,,,,,,,,,,,,,,,,,,,,,,,,,,,,,,,,,,,,,,,,,,,,,,,,,,,,,,,,,,,,,,,,,,,,,,,,,,,,,,,,,,,,,,,,,,,,,,,,,,,,,,,,,,,,,,,,,,,,,,,,,,,,,,,,,,,,,,,,,,,,
,8485,BAC,30/12/2003,001,2023-03-30_15h48.08.286,OS3_Mult_verification,2022.2.4,Win32,59.53089654,,,81,1.4996,1,"[""8"",""1"",""return""]","[1.1402999999523047,1.350999999999999,1.451099999904642]",1,10,41,30,1,81,,,,,,,,,,,,,,,,,,,,,,,,,,,,,,,,,,,,,,,,,,,,,,,,,,,,,,,,,,,,,,,,,,,,,,,,,,,,,,,,,,,,,,,,,,,,,,,,,,,,,,,,,,,,,,,,,,,,,,,,,,,,,,,,,,,,,,,,,,,,,,,,,,,,,,,,,,,,,,,,,
,8485,BAC,30/12/2003,001,2023-03-30_15h48.08.286,OS3_Mult_verification,2022.2.4,Win32,59.53089654,,,42,1.5407,1,"[""4"",""2"",""return""]","[0.9182999999523247,1.3502999999523126,1.4988999998569454]",1,11,42,21,1,42,,,,,,,,,,,,,,,,,,,,,,,,,,,,,,,,,,,,,,,,,,,,,,,,,,,,,,,,,,,,,,,,,,,,,,,,,,,,,,,,,,,,,,,,,,,,,,,,,,,,,,,,,,,,,,,,,,,,,,,,,,,,,,,,,,,,,,,,,,,,,,,,,,,,,,,,,,,,,,,,,
,8485,BAC,30/12/2003,001,2023-03-30_15h48.08.286,OS3_Mult_verification,2022.2.4,Win32,59.53089654,,,15,1.4737,1,"[""1"",""5"",""return""]","[0.7676000001430623,1.3346000001430696,1.4337000000476792]",1,12,43,7,1,15,,,,,,,,,,,,,,,,,,,,,,,,,,,,,,,,,,,,,,,,,,,,,,,,,,,,,,,,,,,,,,,,,,,,,,,,,,,,,,,,,,,,,,,,,,,,,,,,,,,,,,,,,,,,,,,,,,,,,,,,,,,,,,,,,,,,,,,,,,,,,,,,,,,,,,,,,,,,,,,,,
,8485,BAC,30/12/2003,001,2023-03-30_15h48.08.286,OS3_Mult_verification,2022.2.4,Win32,59.53089654,,,64,1.6729,1,"[""6"",""4"",""return""]","[1.0910999999046282,1.3542000000476833,1.6340999999046346]",1,13,44,28,1,64,,,,,,,,,,,,,,,,,,,,,,,,,,,,,,,,,,,,,,,,,,,,,,,,,,,,,,,,,,,,,,,,,,,,,,,,,,,,,,,,,,,,,,,,,,,,,,,,,,,,,,,,,,,,,,,,,,,,,,,,,,,,,,,,,,,,,,,,,,,,,,,,,,,,,,,,,,,,,,,,,
,8485,BAC,30/12/2003,001,2023-03-30_15h48.08.286,OS3_Mult_verification,2022.2.4,Win32,59.53089654,,,6,1.3001,1,"[""6"",""return""]","[1.1062000000476928,1.266999999999996]",1,14,45,1,1,6,,,,,,,,,,,,,,,,,,,,,,,,,,,,,,,,,,,,,,,,,,,,,,,,,,,,,,,,,,,,,,,,,,,,,,,,,,,,,,,,,,,,,,,,,,,,,,,,,,,,,,,,,,,,,,,,,,,,,,,,,,,,,,,,,,,,,,,,,,,,,,,,,,,,,,,,,,,,,,,,,
,8485,BAC,30/12/2003,001,2023-03-30_15h48.08.286,OS3_Mult_verification,2022.2.4,Win32,59.53089654,,,20,1.7338,1,"[""2"",""0"",""return""]","[1.2343999998569757,1.4252999999523297,1.698500000000024]",1,15,46,10,1,20,,,,,,,,,,,,,,,,,,,,,,,,,,,,,,,,,,,,,,,,,,,,,,,,,,,,,,,,,,,,,,,,,,,,,,,,,,,,,,,,,,,,,,,,,,,,,,,,,,,,,,,,,,,,,,,,,,,,,,,,,,,,,,,,,,,,,,,,,,,,,,,,,,,,,,,,,,,,,,,,,
,8485,BAC,30/12/2003,001,2023-03-30_15h48.08.286,OS3_Mult_verification,2022.2.4,Win32,59.53089654,,,9,1.1164,1,"[""9"",""return""]","[0.8181000001430334,1.0838000001907346]",1,16,47,3,1,9,,,,,,,,,,,,,,,,,,,,,,,,,,,,,,,,,,,,,,,,,,,,,,,,,,,,,,,,,,,,,,,,,,,,,,,,,,,,,,,,,,,,,,,,,,,,,,,,,,,,,,,,,,,,,,,,,,,,,,,,,,,,,,,,,,,,,,,,,,,,,,,,,,,,,,,,,,,,,,,,,
,8485,BAC,30/12/2003,001,2023-03-30_15h48.08.286,OS3_Mult_verification,2022.2.4,Win32,59.53089654,,,48,2.3825,1,"[""4"",""8"",""return""]","[1.5538999998569523,2.2012000000476633,2.334700000047661]",1,17,48,23,1,48,,,,,,,,,,,,,,,,,,,,,,,,,,,,,,,,,,,,,,,,,,,,,,,,,,,,,,,,,,,,,,,,,,,,,,,,,,,,,,,,,,,,,,,,,,,,,,,,,,,,,,,,,,,,,,,,,,,,,,,,,,,,,,,,,,,,,,,,,,,,,,,,,,,,,,,,,,,,,,,,,
,8485,BAC,30/12/2003,001,2023-03-30_15h48.08.286,OS3_Mult_verification,2022.2.4,Win32,59.53089654,,,28,3.1912,1,"[""1"",""backspace"",""2"",""8"",""return""]","[0.8006000001430493,1.501299999952323,2.301400000095356,2.95170000004768,3.1506000001430436]",1,18,49,15,1,28,,,,,,,,,,,,,,,,,,,,,,,,,,,,,,,,,,,,,,,,,,,,,,,,,,,,,,,,,,,,,,,,,,,,,,,,,,,,,,,,,,,,,,,,,,,,,,,,,,,,,,,,,,,,,,,,,,,,,,,,,,,,,,,,,,,,,,,,,,,,,,,,,,,,,,,,,,,,,,,,,
,8485,BAC,30/12/2003,001,2023-03-30_15h48.08.286,OS3_Mult_verification,2022.2.4,Win32,59.53089654,,,32,1.4994,1,"[""3"",""2"",""return""]","[1.1680999999046264,1.2847000000476783,1.4548999998569343]",1,19,50,17,1,32,,,,,,,,,,,,,,,,,,,,,,,,,,,,,,,,,,,,,,,,,,,,,,,,,,,,,,,,,,,,,,,,,,,,,,,,,,,,,,,,,,,,,,,,,,,,,,,,,,,,,,,,,,,,,,,,,,,,,,,,,,,,,,,,,,,,,,,,,,,,,,,,,,,,,,,,,,,,,,,,,
,8485,BAC,30/12/2003,001,2023-03-30_15h48.08.286,OS3_Mult_verification,2022.2.4,Win32,59.53089654,,,54,1.9493,1,"[""5"",""4"",""return""]","[1.3520000000000039,1.8080999999046128,1.9007999999523122]",1,20,51,25,1,54,,,,,,,,,,,,,,,,,,,,,,,,,,,,,,,,,,,,,,,,,,,,,,,,,,,,,,,,,,,,,,,,,,,,,,,,,,,,,,,,,,,,,,,,,,,,,,,,,,,,,,,,,,,,,,,,,,,,,,,,,,,,,,,,,,,,,,,,,,,,,,,,,,,,,,,,,,,,,,,,,
,8485,BAC,30/12/2003,001,2023-03-30_15h48.08.286,OS3_Mult_verification,2022.2.4,Win32,59.53089654,,,49,1.9496,1,"[""4"",""9"",""return""]","[1.1514000000953502,1.7339999999999804,1.9042000000476662]",1,21,52,24,1,49,,,,,,,,,,,,,,,,,,,,,,,,,,,,,,,,,,,,,,,,,,,,,,,,,,,,,,,,,,,,,,,,,,,,,,,,,,,,,,,,,,,,,,,,,,,,,,,,,,,,,,,,,,,,,,,,,,,,,,,,,,,,,,,,,,,,,,,,,,,,,,,,,,,,,,,,,,,,,,,,,
,8485,BAC,30/12/2003,001,2023-03-30_15h48.08.286,OS3_Mult_verification,2022.2.4,Win32,59.53089654,,,35,1.7739,1,"[""3"",""5"",""return""]","[1.4172000000476999,1.6326000001430714,1.7332000000477024]",1,22,53,18,1,35,,,,,,,,,,,,,,,,,,,,,,,,,,,,,,,,,,,,,,,,,,,,,,,,,,,,,,,,,,,,,,,,,,,,,,,,,,,,,,,,,,,,,,,,,,,,,,,,,,,,,,,,,,,,,,,,,,,,,,,,,,,,,,,,,,,,,,,,,,,,,,,,,,,,,,,,,,,,,,,,,
,8485,BAC,30/12/2003,001,2023-03-30_15h48.08.286,OS3_Mult_verification,2022.2.4,Win32,59.53089654,,,14,1.1157,1,"[""1"",""4"",""return""]","[0.584200000047673,0.9354000000953704,1.067800000190715]",1,23,54,6,1,14,,,,,,,,,,,,,,,,,,,,,,,,,,,,,,,,,,,,,,,,,,,,,,,,,,,,,,,,,,,,,,,,,,,,,,,,,,,,,,,,,,,,,,,,,,,,,,,,,,,,,,,,,,,,,,,,,,,,,,,,,,,,,,,,,,,,,,,,,,,,,,,,,,,,,,,,,,,,,,,,,
,8485,BAC,30/12/2003,001,2023-03-30_15h48.08.286,OS3_Mult_verification,2022.2.4,Win32,59.53089654,,,4,1.0579,1,"[""4"",""return""]","[0.8570999999046194,1.0172999999523142]",1,24,55,0,1,4,,,,,,,,,,,,,,,,,,,,,,,,,,,,,,,,,,,,,,,,,,,,,,,,,,,,,,,,,,,,,,,,,,,,,,,,,,,,,,,,,,,,,,,,,,,,,,,,,,,,,,,,,,,,,,,,,,,,,,,,,,,,,,,,,,,,,,,,,,,,,,,,,,,,,,,,,,,,,,,,,
,8485,BAC,30/12/2003,001,2023-03-30_15h48.08.286,OS3_Mult_verification,2022.2.4,Win32,59.53089654,,,12,1.0243,1,"[""1"",""2"",""return""]","[0.5253999998569441,0.8847999999523211,0.9838999998569591]",1,25,56,5,1,12,,,,,,,,,,,,,,,,,,,,,,,,,,,,,,,,,,,,,,,,,,,,,,,,,,,,,,,,,,,,,,,,,,,,,,,,,,,,,,,,,,,,,,,,,,,,,,,,,,,,,,,,,,,,,,,,,,,,,,,,,,,,,,,,,,,,,,,,,,,,,,,,,,,,,,,,,,,,,,,,,
,8485,BAC,30/12/2003,001,2023-03-30_15h48.08.286,OS3_Mult_verification,2022.2.4,Win32,59.53089654,,,18,1.4495,1,"[""1"",""8"",""return""]","[0.46740000009535265,1.301299999952306,1.4014000000953502]",1,26,57,9,1,18,,,,,,,,,,,,,,,,,,,,,,,,,,,,,,,,,,,,,,,,,,,,,,,,,,,,,,,,,,,,,,,,,,,,,,,,,,,,,,,,,,,,,,,,,,,,,,,,,,,,,,,,,,,,,,,,,,,,,,,,,,,,,,,,,,,,,,,,,,,,,,,,,,,,,,,,,,,,,,,,,
,8485,BAC,30/12/2003,001,2023-03-30_15h48.08.286,OS3_Mult_verification,2022.2.4,Win32,59.53089654,,,56,1.5994,1,"[""5"",""6"",""return""]","[1.1037999999523151,1.3336999998092551,1.550899999856938]",1,27,58,26,1,56,,,,,,,,,,,,,,,,,,,,,,,,,,,,,,,,,,,,,,,,,,,,,,,,,,,,,,,,,,,,,,,,,,,,,,,,,,,,,,,,,,,,,,,,,,,,,,,,,,,,,,,,,,,,,,,,,,,,,,,,,,,,,,,,,,,,,,,,,,,,,,,,,,,,,,,,,,,,,,,,,
,8485,BAC,30/12/2003,001,2023-03-30_15h48.08.286,OS3_Mult_verification,2022.2.4,Win32,59.53089654,,,21,1.3825,1,"[""2"",""1"",""return""]","[1.1344000000953827,1.2005000000000052,1.3402000000477017]",1,28,59,11,1,21,,,,,,,,,,,,,,,,,,,,,,,,,,,,,,,,,,,,,,,,,,,,,,,,,,,,,,,,,,,,,,,,,,,,,,,,,,,,,,,,,,,,,,,,,,,,,,,,,,,,,,,,,,,,,,,,,,,,,,,,,,,,,,,,,,,,,,,,,,,,,,,,,,,,,,,,,,,,,,,,,
,8485,BAC,30/12/2003,001,2023-03-30_15h48.08.286,OS3_Mult_verification,2022.2.4,Win32,59.53089654,,,40,1.3492,1,"[""4"",""0"",""return""]","[0.9501999998092572,1.0506999998092397,1.3062999999523015]",1,29,60,20,1,40,,,,,,,,,,,,,,,,,,,,,,,,,,,,,,,,,,,,,,,,,,,,,,,,,,,,,,,,,,,,,,,,,,,,,,,,,,,,,,,,,,,,,,,,,,,,,,,,,,,,,,,,,,,,,,,,,,,,,,,,,,,,,,,,,,,,,,,,,,,,,,,,,,,,,,,,,,,,,,,,,
,8485,BAC,30/12/2003,001,2023-03-30_15h48.08.286,OS3_Mult_verification,2022.2.4,Win32,59.53089654,,,30,1.366,1,"[""3"",""0"",""return""]","[0.9875000000000114,1.0842999999523215,1.3234000000953756]",1,30,61,16,1,30,,,,,,,,,,,,,,,,,,,,,,,,,,,,,,,,,,,,,,,,,,,,,,,,,,,,,,,,,,,,,,,,,,,,,,,,,,,,,,,,,,,,,,,,,,,,,,,,,,,,,,,,,,,,,,,,,,,,,,,,,,,,,,,,,,,,,,,,,,,,,,,,,,,,,,,,,,,,,,,,,
,8485,BAC,30/12/2003,001,2023-03-30_15h48.08.286,OS3_Mult_verification,2022.2.4,Win32,59.53089654,,,,,,,,,,,,,,space,3.8777,,,,,,,,,,,,,,,,,,,,,,,,,,,,,,,,,,,,,,,,,,,,,,,,,,,,,,,,,,,,,,,,,,,,,,,,,,,,,,,,,,,,,,,,,,,,,,,,,,,,,,,,,,,,,,,,,,,,,,,,,,,,,,,,,,,,,,,,,,,,,,,,,,,,,,,,,,,,,,,
,8485,BAC,30/12/2003,001,2023-03-30_15h48.08.286,OS3_Mult_verification,2022.2.4,Win32,59.53089654,,,,,,,,,,,,,,,,,,,,,,,,,,,,,,,,,,,,,,,,,,,,,,,,,,,,,,,,,,,,,,,,,,,,,,,,,,,,,,,,,,,,,,,,,,,,,,,,,,,,,,,,,,,,,,,,,,,,,,,,,,,,,,,,,,,,,,,,,,,,,,,,,,,,,,,,,,,,,,,,,,,,,,,,,,,,,,
,8485,BAC,30/12/2003,001,2023-03-30_15h48.08.286,OS3_Mult_verification,2022.2.4,Win32,59.53089654,,,,,,,,,,,,,,,,space,3.5176,,,,,,,,,,,,,,,,,,,,,,,,,,,,,,,,,,,,,,,,,,,,,,,,,,,,,,,,,,,,,,,,,,,,,,,,,,,,,,,,,,,,,,,,,,,,,,,,,,,,,,,,,,,,,,,,,,,,,,,,,,,,,,,,,,,,,,,,,,,,,,,,,,,,,,,,,,,,,
,8485,BAC,30/12/2003,001,2023-03-30_15h48.08.286,OS3_Mult_verification,2022.2.4,Win32,59.53089654,,,,,,,,,,,,,,,,,,22,1.894,1,"[""2"",""2"",""return""]","[1.2502000000476698,1.3959999999999866,1.5999000000953743]",0,0,0,2,1,2 × 11 =,22,,,,,,,,,,,,,,,,,,,,,,,,,,,,,,,,,,,,,,,,,,,,,,,,,,,,,,,,,,,,,,,,,,,,,,,,,,,,,,,,,,,,,,,,,,,,,,,,,,,,,,,,,,,,,,,,,,,,,,,,,,,,,,,,,,,,,,,,,,,,,,,,,
,8485,BAC,30/12/2003,001,2023-03-30_15h48.08.286,OS3_Mult_verification,2022.2.4,Win32,59.53089654,,,,,,,,,,,,,,,,,,20,1.9498,1,"[""2"",""0"",""return""]","[0.9897999999523108,1.5002999999523183,1.6507000000476921]",0,1,1,1,1,2 × 10 =,20,,,,,,,,,,,,,,,,,,,,,,,,,,,,,,,,,,,,,,,,,,,,,,,,,,,,,,,,,,,,,,,,,,,,,,,,,,,,,,,,,,,,,,,,,,,,,,,,,,,,,,,,,,,,,,,,,,,,,,,,,,,,,,,,,,,,,,,,,,,,,,,,,
,8485,BAC,30/12/2003,001,2023-03-30_15h48.08.286,OS3_Mult_verification,2022.2.4,Win32,59.53089654,,,,,,,,,,,,,,,,,,7,1.9719,1,"[""7"",""return""]","[1.4858999998569402,1.6550999999046212]",0,2,2,0,1,1 × 7 =,7,,,,,,,,,,,,,,,,,,,,,,,,,,,,,,,,,,,,,,,,,,,,,,,,,,,,,,,,,,,,,,,,,,,,,,,,,,,,,,,,,,,,,,,,,,,,,,,,,,,,,,,,,,,,,,,,,,,,,,,,,,,,,,,,,,,,,,,,,,,,,,,,,
,8485,BAC,30/12/2003,001,2023-03-30_15h48.08.286,OS3_Mult_verification,2022.2.4,Win32,59.53089654,,,,,,,,,,,,,,,,,,,,,,,,,,,,,,,,,,,,,,,,,,,,,,,,,,,,,,,,,,,,,,,,,,,,,,,,,,,,,,,,,,,,,,,,,,,,,,,,,,,,,,,,,,,,,,,,,,,,,,,,,,,,,,,,,,,,,,,,,,,,,,,,,,,,,,,,,,,,,,,,,,,,,,,,,,,,,,
,8485,BAC,30/12/2003,001,2023-03-30_15h48.08.286,OS3_Mult_verification,2022.2.4,Win32,59.53089654,,,,,,,,,,,,,,,,,,,,,,,,,,,,,,,,,,,,,,,,,,,,,,,,,,,,,,,,,,,,,,,,,,,,,,,,,,,,,,,,,,,,,,,,,,,,,,,,,,,,,,,,,,,,,,,,,,,,,,,,,,,,,,,,,,,,,,,,,,,,,,,,,,,,,,,,,,,,,,,,,,,,,,,,,,,,,,
,8485,BAC,30/12/2003,001,2023-03-30_15h48.08.286,OS3_Mult_verification,2022.2.4,Win32,59.53089654,,,,,,,,,,,,,,,,,,6,1.9192,1,"[""6"",""return""]","[1.433999999999969,1.6129999999999995]",,,,,,2 × 3 =,6,0,0,0,0,1,,,,,,,,,,,,,,,,,,,,,,,,,,,,,,,,,,,,,,,,,,,,,,,,,,,,,,,,,,,,,,,,,,,,,,,,,,,,,,,,,,,,,,,,,,,,,,,,,,,,,,,,,,,,,,,,,,,,,,,,,,,,,,,,,,,,,,,,,,,,
,8485,BAC,30/12/2003,001,2023-03-30_15h48.08.286,OS3_Mult_verification,2022.2.4,Win32,59.53089654,,,,,,,,,,,,,,,,,,40,2.758,1,"[""4"",""0"",""return""]","[1.6744000000953747,2.2905000000000086,2.4567000000477037]",,,,,,5 × 8 =,40,0,1,1,1,1,,,,,,,,,,,,,,,,,,,,,,,,,,,,,,,,,,,,,,,,,,,,,,,,,,,,,,,,,,,,,,,,,,,,,,,,,,,,,,,,,,,,,,,,,,,,,,,,,,,,,,,,,,,,,,,,,,,,,,,,,,,,,,,,,,,,,,,,,,,,
,8485,BAC,30/12/2003,001,2023-03-30_15h48.08.286,OS3_Mult_verification,2022.2.4,Win32,59.53089654,,,,,,,,,,,,,,,,,,12,1.7987,1,"[""1"",""2"",""return""]","[1.266999999999996,1.3837000000476678,1.4918000001907217]",,,,,,3 × 4 =,12,0,2,2,2,1,,,,,,,,,,,,,,,,,,,,,,,,,,,,,,,,,,,,,,,,,,,,,,,,,,,,,,,,,,,,,,,,,,,,,,,,,,,,,,,,,,,,,,,,,,,,,,,,,,,,,,,,,,,,,,,,,,,,,,,,,,,,,,,,,,,,,,,,,,,,
,8485,BAC,30/12/2003,001,2023-03-30_15h48.08.286,OS3_Mult_verification,2022.2.4,Win32,59.53089654,,,,,,,,,,,,,,,,,,15,1.847,1,"[""1"",""5"",""return""]","[1.0897999999523336,1.4441000001430666,1.5340000000000487]",,,,,,5 × 3 =,15,0,3,3,3,1,,,,,,,,,,,,,,,,,,,,,,,,,,,,,,,,,,,,,,,,,,,,,,,,,,,,,,,,,,,,,,,,,,,,,,,,,,,,,,,,,,,,,,,,,,,,,,,,,,,,,,,,,,,,,,,,,,,,,,,,,,,,,,,,,,,,,,,,,,,,
,8485,BAC,30/12/2003,001,2023-03-30_15h48.08.286,OS3_Mult_verification,2022.2.4,Win32,59.53089654,,,,,,,,,,,,,,,,,,8,2.5033,1,"[""8"",""return""]","[1.8900000000000432,2.1844000000954225]",,,,,,2 × 4 =,8,0,4,4,4,1,,,,,,,,,,,,,,,,,,,,,,,,,,,,,,,,,,,,,,,,,,,,,,,,,,,,,,,,,,,,,,,,,,,,,,,,,,,,,,,,,,,,,,,,,,,,,,,,,,,,,,,,,,,,,,,,,,,,,,,,,,,,,,,,,,,,,,,,,,,,
,8485,BAC,30/12/2003,001,2023-03-30_15h48.08.286,OS3_Mult_verification,2022.2.4,Win32,59.53089654,,,,,,,,,,,,,,,,,,4,1.5087,1,"[""4"",""return""]","[1.0347000000476783,1.2059999999999604]",,,,,,2 × 2 =,4,0,5,5,5,1,,,,,,,,,,,,,,,,,,,,,,,,,,,,,,,,,,,,,,,,,,,,,,,,,,,,,,,,,,,,,,,,,,,,,,,,,,,,,,,,,,,,,,,,,,,,,,,,,,,,,,,,,,,,,,,,,,,,,,,,,,,,,,,,,,,,,,,,,,,,
,8485,BAC,30/12/2003,001,2023-03-30_15h48.08.286,OS3_Mult_verification,2022.2.4,Win32,59.53089654,,,,,,,,,,,,,,,,,,20,4.1561,1,"[""4"",""5"",""backspace"",""backspace"",""2"",""0"",""return""]","[1.2171000001430343,1.400900000095362,2.1334999999999695,2.3002000000477096,3.441900000095359,3.5656000001430357,3.8666000001430234]",,,,,,4 × 5 =,20,0,6,6,6,1,,,,,,,,,,,,,,,,,,,,,,,,,,,,,,,,,,,,,,,,,,,,,,,,,,,,,,,,,,,,,,,,,,,,,,,,,,,,,,,,,,,,,,,,,,,,,,,,,,,,,,,,,,,,,,,,,,,,,,,,,,,,,,,,,,,,,,,,,,,,
,8485,BAC,30/12/2003,001,2023-03-30_15h48.08.286,OS3_Mult_verification,2022.2.4,Win32,59.53089654,,,,,,,,,,,,,,,,,,9,1.8564,1,"[""9"",""return""]","[1.450200000047687,1.550400000095351]",,,,,,3 × 3 =,9,0,7,7,7,1,,,,,,,,,,,,,,,,,,,,,,,,,,,,,,,,,,,,,,,,,,,,,,,,,,,,,,,,,,,,,,,,,,,,,,,,,,,,,,,,,,,,,,,,,,,,,,,,,,,,,,,,,,,,,,,,,,,,,,,,,,,,,,,,,,,,,,,,,,,,
,8485,BAC,30/12/2003,001,2023-03-30_15h48.08.286,OS3_Mult_verification,2022.2.4,Win32,59.53089654,,,,,,,,,,,,,,,,,,10,2.2649,1,"[""1"",""0"",""return""]","[1.6020000000000323,1.6962000000477246,1.9567000000477037]",,,,,,5 × 2 =,10,0,8,8,8,1,,,,,,,,,,,,,,,,,,,,,,,,,,,,,,,,,,,,,,,,,,,,,,,,,,,,,,,,,,,,,,,,,,,,,,,,,,,,,,,,,,,,,,,,,,,,,,,,,,,,,,,,,,,,,,,,,,,,,,,,,,,,,,,,,,,,,,,,,,,,
,8485,BAC,30/12/2003,001,2023-03-30_15h48.08.286,OS3_Mult_verification,2022.2.4,Win32,59.53089654,,,,,,,,,,,,,,,,,,16,2.5173,1,"[""1"",""6"",""return""]","[1.5504999999999995,2.0715000000000146,2.2170000000000414]",,,,,,4 × 4 =,16,0,9,9,9,1,,,,,,,,,,,,,,,,,,,,,,,,,,,,,,,,,,,,,,,,,,,,,,,,,,,,,,,,,,,,,,,,,,,,,,,,,,,,,,,,,,,,,,,,,,,,,,,,,,,,,,,,,,,,,,,,,,,,,,,,,,,,,,,,,,,,,,,,,,,,
,8485,BAC,30/12/2003,001,2023-03-30_15h48.08.286,OS3_Mult_verification,2022.2.4,Win32,59.53089654,,,,,,,,,,,,,,,,,,24,4.1822,1,"[""2"",""4"",""return""]","[2.7505999999046367,3.833799999952305,3.884599999904651]",,,,,,8 × 3 =,24,0,10,10,10,1,,,,,,,,,,,,,,,,,,,,,,,,,,,,,,,,,,,,,,,,,,,,,,,,,,,,,,,,,,,,,,,,,,,,,,,,,,,,,,,,,,,,,,,,,,,,,,,,,,,,,,,,,,,,,,,,,,,,,,,,,,,,,,,,,,,,,,,,,,,,
,8485,BAC,30/12/2003,001,2023-03-30_15h48.08.286,OS3_Mult_verification,2022.2.4,Win32,59.53089654,,,,,,,,,,,,,,,,,,30,2.4576,1,"[""3"",""0"",""return""]","[1.6413000001907676,1.9339000000953774,2.167300000190721]",,,,,,6 × 5 =,30,0,11,11,11,1,,,,,,,,,,,,,,,,,,,,,,,,,,,,,,,,,,,,,,,,,,,,,,,,,,,,,,,,,,,,,,,,,,,,,,,,,,,,,,,,,,,,,,,,,,,,,,,,,,,,,,,,,,,,,,,,,,,,,,,,,,,,,,,,,,,,,,,,,,,,
,8485,BAC,30/12/2003,001,2023-03-30_15h48.08.286,OS3_Mult_verification,2022.2.4,Win32,59.53089654,,,,,,,,,,,,,,,,,,14,4.4826,1,"[""1"",""4"",""return""]","[3.8234999999999673,4.029599999904633,4.175299999952301]",,,,,,7 × 2 =,14,0,12,12,12,1,,,,,,,,,,,,,,,,,,,,,,,,,,,,,,,,,,,,,,,,,,,,,,,,,,,,,,,,,,,,,,,,,,,,,,,,,,,,,,,,,,,,,,,,,,,,,,,,,,,,,,,,,,,,,,,,,,,,,,,,,,,,,,,,,,,,,,,,,,,,
,8485,BAC,30/12/2003,001,2023-03-30_15h48.08.286,OS3_Mult_verification,2022.2.4,Win32,59.53089654,,,,,,,,,,,,,,,,,,26,4.8418,0,"[""2"",""6"",""return""]","[2.2922000000477283,2.4837000000476905,4.550400000095408]",,,,,,3 × 9 =,27,0,13,13,13,1,,,,,,,,,,,,,,,,,,,,,,,,,,,,,,,,,,,,,,,,,,,,,,,,,,,,,,,,,,,,,,,,,,,,,,,,,,,,,,,,,,,,,,,,,,,,,,,,,,,,,,,,,,,,,,,,,,,,,,,,,,,,,,,,,,,,,,,,,,,,
,8485,BAC,30/12/2003,001,2023-03-30_15h48.08.286,OS3_Mult_verification,2022.2.4,Win32,59.53089654,,,,,,,,,,,,,,,,,,16,2.3638,1,"[""1"",""6"",""return""]","[1.4343999998569075,1.906799999952284,2.0669999999999504]",,,,,,2 × 8 =,16,0,14,14,14,1,,,,,,,,,,,,,,,,,,,,,,,,,,,,,,,,,,,,,,,,,,,,,,,,,,,,,,,,,,,,,,,,,,,,,,,,,,,,,,,,,,,,,,,,,,,,,,,,,,,,,,,,,,,,,,,,,,,,,,,,,,,,,,,,,,,,,,,,,,,,
,8485,BAC,30/12/2003,001,2023-03-30_15h48.08.286,OS3_Mult_verification,2022.2.4,Win32,59.53089654,,,,,,,,,,,,,,,,,,24,5.8688,1,"[""2"",""4"",""return""]","[4.40110000014306,5.012800000190737,5.571000000000026]",,,,,,4 × 6 =,24,0,15,15,15,1,,,,,,,,,,,,,,,,,,,,,,,,,,,,,,,,,,,,,,,,,,,,,,,,,,,,,,,,,,,,,,,,,,,,,,,,,,,,,,,,,,,,,,,,,,,,,,,,,,,,,,,,,,,,,,,,,,,,,,,,,,,,,,,,,,,,,,,,,,,,
,8485,BAC,30/12/2003,001,2023-03-30_15h48.08.286,OS3_Mult_verification,2022.2.4,Win32,59.53089654,,,,,,,,,,,,,,,,,,21,2.7501,1,"[""2"",""1"",""return""]","[2.233900000095389,2.4174000000953697,2.451000000000022]",,,,,,7 × 3 =,21,0,16,16,16,1,,,,,,,,,,,,,,,,,,,,,,,,,,,,,,,,,,,,,,,,,,,,,,,,,,,,,,,,,,,,,,,,,,,,,,,,,,,,,,,,,,,,,,,,,,,,,,,,,,,,,,,,,,,,,,,,,,,,,,,,,,,,,,,,,,,,,,,,,,,,
,8485,BAC,30/12/2003,001,2023-03-30_15h48.08.286,OS3_Mult_verification,2022.2.4,Win32,59.53089654,,,,,,,,,,,,,,,,,,27,20.8744,1,"[""1"",""backspace"",""2"",""7"",""return""]","[2.4178999998568997,4.133899999856908,7.934099999904618,20.250899999856927,20.56859999990462]",,,,,,9 × 3 =,27,0,17,17,17,1,,,,,,,,,,,,,,,,,,,,,,,,,,,,,,,,,,,,,,,,,,,,,,,,,,,,,,,,,,,,,,,,,,,,,,,,,,,,,,,,,,,,,,,,,,,,,,,,,,,,,,,,,,,,,,,,,,,,,,,,,,,,,,,,,,,,,,,,,,,,
,8485,BAC,30/12/2003,001,2023-03-30_15h48.08.286,OS3_Mult_verification,2022.2.4,Win32,59.53089654,,,,,,,,,,,,,,,,,,28,4.8159,1,"[""2"",""8"",""return""]","[3.9346999998092542,4.267199999809293,4.515500000000031]",,,,,,4 × 7 =,28,0,18,18,18,1,,,,,,,,,,,,,,,,,,,,,,,,,,,,,,,,,,,,,,,,,,,,,,,,,,,,,,,,,,,,,,,,,,,,,,,,,,,,,,,,,,,,,,,,,,,,,,,,,,,,,,,,,,,,,,,,,,,,,,,,,,,,,,,,,,,,,,,,,,,,
,8485,BAC,30/12/2003,001,2023-03-30_15h48.08.286,OS3_Mult_verification,2022.2.4,Win32,59.53089654,,,,,,,,,,,,,,,,,,18,2.434,1,"[""1"",""8"",""return""]","[1.5674000000954038,1.9185000000000514,2.1340000000000146]",,,,,,2 × 9 =,18,0,19,19,19,1,,,,,,,,,,,,,,,,,,,,,,,,,,,,,,,,,,,,,,,,,,,,,,,,,,,,,,,,,,,,,,,,,,,,,,,,,,,,,,,,,,,,,,,,,,,,,,,,,,,,,,,,,,,,,,,,,,,,,,,,,,,,,,,,,,,,,,,,,,,,
,8485,BAC,30/12/2003,001,2023-03-30_15h48.08.286,OS3_Mult_verification,2022.2.4,Win32,59.53089654,,,,,,,,,,,,,,,,,,72,4.148,1,"[""7"",""2"",""return""]","[3.5398999998569707,3.674299999952325,3.8347000000476896]",,,,,,9 × 8 =,72,0,20,20,20,1,,,,,,,,,,,,,,,,,,,,,,,,,,,,,,,,,,,,,,,,,,,,,,,,,,,,,,,,,,,,,,,,,,,,,,,,,,,,,,,,,,,,,,,,,,,,,,,,,,,,,,,,,,,,,,,,,,,,,,,,,,,,,,,,,,,,,,,,,,,,
,8485,BAC,30/12/2003,001,2023-03-30_15h48.08.286,OS3_Mult_verification,2022.2.4,Win32,59.53089654,,,,,,,,,,,,,,,,,,42,3.817,1,"[""4"",""2"",""return""]","[3.189400000095361,3.317799999952342,3.5169000000953474]",,,,,,7 × 6 =,42,0,21,21,21,1,,,,,,,,,,,,,,,,,,,,,,,,,,,,,,,,,,,,,,,,,,,,,,,,,,,,,,,,,,,,,,,,,,,,,,,,,,,,,,,,,,,,,,,,,,,,,,,,,,,,,,,,,,,,,,,,,,,,,,,,,,,,,,,,,,,,,,,,,,,,
,8485,BAC,30/12/2003,001,2023-03-30_15h48.08.286,OS3_Mult_verification,2022.2.4,Win32,59.53089654,,,,,,,,,,,,,,,,,,,3.7473,0,,,,,,,,6 × 9 =,54,0,22,22,22,1,,,,,,,,,,,,,,,,,,,,,,,,,,,,,,,,,,,,,,,,,,,,,,,,,,,,,,,,,,,,,,,,,,,,,,,,,,,,,,,,,,,,,,,,,,,,,,,,,,,,,,,,,,,,,,,,,,,,,,,,,,,,,,,,,,,,,,,,,,,,
,8485,BAC,30/12/2003,001,2023-03-30_15h48.08.286,OS3_Mult_verification,2022.2.4,Win32,59.53089654,,,,,,,,,,,,,,,,space,3.1331,,,,,,,,,,,,,,,,,,FALSE,3.5834,0.033333333,-0.334259259,1,0,0,0,0,0,0,1,practice trial,,3,3,,,,,,,,,,,,,,,,,,,,,,,,,,,,,,,,,,,,,,,,,,,,,,,,,,,,,,,,,,,,,,,,,,,,,,,,,,,,,,,,,,,,,,,,,,,,,,,,,,,,,,,,,,,,,,,,,,,,,,,,,,,,
,8485,BAC,30/12/2003,001,2023-03-30_15h48.08.286,OS3_Mult_verification,2022.2.4,Win32,59.53089654,,,,,,,,,,,,,,,,,,,,,,,,,,,,,,,,,,,TRUE,2.1496,-0.011111111,-0.336111111,1,0,0,0,1,1,1,1,practice trial,,3,3,,,,,,,,,,,,,,,,,,,,,,,,,,,,,,,,,,,,,,,,,,,,,,,,,,,,,,,,,,,,,,,,,,,,,,,,,,,,,,,,,,,,,,,,,,,,,,,,,,,,,,,,,,,,,,,,,,,,,,,,,,,,
,8485,BAC,30/12/2003,001,2023-03-30_15h48.08.286,OS3_Mult_verification,2022.2.4,Win32,59.53089654,,,,,,,,,,,,,,,,,,,,,,,,,,,,,,,,,,,TRUE,2.283,0.055555556,-0.325925926,1,0,0,0,2,2,2,1,practice trial,,3,3,,,,,,,,,,,,,,,,,,,,,,,,,,,,,,,,,,,,,,,,,,,,,,,,,,,,,,,,,,,,,,,,,,,,,,,,,,,,,,,,,,,,,,,,,,,,,,,,,,,,,,,,,,,,,,,,,,,,,,,,,,,,
,8485,BAC,30/12/2003,001,2023-03-30_15h48.08.286,OS3_Mult_verification,2022.2.4,Win32,59.53089654,,,,,,,,,,,,,,,,,,,,,,,,,,,,,,,,,,,TRUE,1.6165,0.016666667,-0.336111111,1,0,0,,,,,,Trial #1,,2,2,0,0,0,0,1,2,,,,,,,,,,,,,,,,,,,,,,,,,,,,,,,,,,,,,,,,,,,,,,,,,,,,,,,,,,,,,,,,,,,,,,,,,,,,,,,,,,,,,,,,,,,,,,,,,,,,,,,,,,,,,,,,,,,,,,
,8485,BAC,30/12/2003,001,2023-03-30_15h48.08.286,OS3_Mult_verification,2022.2.4,Win32,59.53089654,,,,,,,,,,,,,,,,,,,,,,,,,,,,,,,,,,,TRUE,1.366,-0.005555556,-0.337037037,1,0,0,,,,,,Trial #1,,2,2,0,1,1,1,1,2,,,,,,,,,,,,,,,,,,,,,,,,,,,,,,,,,,,,,,,,,,,,,,,,,,,,,,,,,,,,,,,,,,,,,,,,,,,,,,,,,,,,,,,,,,,,,,,,,,,,,,,,,,,,,,,,,,,,,,
,8485,BAC,30/12/2003,001,2023-03-30_15h48.08.286,OS3_Mult_verification,2022.2.4,Win32,59.53089654,,,,,,,,,,,,,,,,,,,,,,,,,,,,,,,,,,,TRUE,1.3498,-0.027777778,-0.327777778,1,0,0,,,,,,Trial #1,,2,2,0,2,2,2,1,2,,,,,,,,,,,,,,,,,,,,,,,,,,,,,,,,,,,,,,,,,,,,,,,,,,,,,,,,,,,,,,,,,,,,,,,,,,,,,,,,,,,,,,,,,,,,,,,,,,,,,,,,,,,,,,,,,,,,,,
,8485,BAC,30/12/2003,001,2023-03-30_15h48.08.286,OS3_Mult_verification,2022.2.4,Win32,59.53089654,,,,,,,,,,,,,,,,,,,,,,,,,,,,,,,,,,,TRUE,1.7663,-0.048148148,-0.332407407,1,0,0,,,,,,Trial #2,,3,3,0,0,0,0,1,3,,,,,,,,,,,,,,,,,,,,,,,,,,,,,,,,,,,,,,,,,,,,,,,,,,,,,,,,,,,,,,,,,,,,,,,,,,,,,,,,,,,,,,,,,,,,,,,,,,,,,,,,,,,,,,,,,,,,,,
,8485,BAC,30/12/2003,001,2023-03-30_15h48.08.286,OS3_Mult_verification,2022.2.4,Win32,59.53089654,,,,,,,,,,,,,,,,,,,,,,,,,,,,,,,,,,,TRUE,2.2333,0.05462963,-0.349074074,1,0,0,,,,,,Trial #2,,3,3,0,1,1,1,1,3,,,,,,,,,,,,,,,,,,,,,,,,,,,,,,,,,,,,,,,,,,,,,,,,,,,,,,,,,,,,,,,,,,,,,,,,,,,,,,,,,,,,,,,,,,,,,,,,,,,,,,,,,,,,,,,,,,,,,,
,8485,BAC,30/12/2003,001,2023-03-30_15h48.08.286,OS3_Mult_verification,2022.2.4,Win32,59.53089654,,,,,,,,,,,,,,,,,,,,,,,,,,,,,,,,,,,TRUE,2.3828,-0.018518519,-0.347222222,1,0,0,,,,,,Trial #2,,3,3,0,2,2,2,1,3,,,,,,,,,,,,,,,,,,,,,,,,,,,,,,,,,,,,,,,,,,,,,,,,,,,,,,,,,,,,,,,,,,,,,,,,,,,,,,,,,,,,,,,,,,,,,,,,,,,,,,,,,,,,,,,,,,,,,,
,8485,BAC,30/12/2003,001,2023-03-30_15h48.08.286,OS3_Mult_verification,2022.2.4,Win32,59.53089654,,,,,,,,,,,,,,,,,,,,,,,,,,,,,,,,,,,TRUE,2.4831,0.028703704,-0.334259259,1,0,0,,,,,,Trial #3,,3,3,0,0,0,0,1,4,,,,,,,,,,,,,,,,,,,,,,,,,,,,,,,,,,,,,,,,,,,,,,,,,,,,,,,,,,,,,,,,,,,,,,,,,,,,,,,,,,,,,,,,,,,,,,,,,,,,,,,,,,,,,,,,,,,,,,
,8485,BAC,30/12/2003,001,2023-03-30_15h48.08.286,OS3_Mult_verification,2022.2.4,Win32,59.53089654,,,,,,,,,,,,,,,,,,,,,,,,,,,,,,,,,,,TRUE,2.0498,-0.015740741,-0.324074074,1,0,0,,,,,,Trial #3,,3,3,0,1,1,1,1,4,,,,,,,,,,,,,,,,,,,,,,,,,,,,,,,,,,,,,,,,,,,,,,,,,,,,,,,,,,,,,,,,,,,,,,,,,,,,,,,,,,,,,,,,,,,,,,,,,,,,,,,,,,,,,,,,,,,,,,
,8485,BAC,30/12/2003,001,2023-03-30_15h48.08.286,OS3_Mult_verification,2022.2.4,Win32,59.53089654,,,,,,,,,,,,,,,,,,,,,,,,,,,,,,,,,,,TRUE,2.2328,-0.04537037,-0.337962963,1,0,0,,,,,,Trial #3,,3,3,0,2,2,2,1,4,,,,,,,,,,,,,,,,,,,,,,,,,,,,,,,,,,,,,,,,,,,,,,,,,,,,,,,,,,,,,,,,,,,,,,,,,,,,,,,,,,,,,,,,,,,,,,,,,,,,,,,,,,,,,,,,,,,,,,
,8485,BAC,30/12/2003,001,2023-03-30_15h48.08.286,OS3_Mult_verification,2022.2.4,Win32,59.53089654,,,,,,,,,,,,,,,,,,,,,,,,,,,,,,,,,,,TRUE,3.733,-0.018518519,-0.326851852,1,0,0,,,,,,Trial #4,,4,4,0,0,0,0,1,5,,,,,,,,,,,,,,,,,,,,,,,,,,,,,,,,,,,,,,,,,,,,,,,,,,,,,,,,,,,,,,,,,,,,,,,,,,,,,,,,,,,,,,,,,,,,,,,,,,,,,,,,,,,,,,,,,,,,,,
,8485,BAC,30/12/2003,001,2023-03-30_15h48.08.286,OS3_Mult_verification,2022.2.4,Win32,59.53089654,,,,,,,,,,,,,,,,,,,,,,,,,,,,,,,,,,,TRUE,2.3832,-0.078703704,-0.331481481,1,0,0,,,,,,Trial #4,,4,4,0,1,1,1,1,5,,,,,,,,,,,,,,,,,,,,,,,,,,,,,,,,,,,,,,,,,,,,,,,,,,,,,,,,,,,,,,,,,,,,,,,,,,,,,,,,,,,,,,,,,,,,,,,,,,,,,,,,,,,,,,,,,,,,,,
,8485,BAC,30/12/2003,001,2023-03-30_15h48.08.286,OS3_Mult_verification,2022.2.4,Win32,59.53089654,,,,,,,,,,,,,,,,,,,,,,,,,,,,,,,,,,,TRUE,2.333,0.011111111,-0.317592593,1,0,0,,,,,,Trial #4,,4,4,0,2,2,2,1,5,,,,,,,,,,,,,,,,,,,,,,,,,,,,,,,,,,,,,,,,,,,,,,,,,,,,,,,,,,,,,,,,,,,,,,,,,,,,,,,,,,,,,,,,,,,,,,,,,,,,,,,,,,,,,,,,,,,,,,
,8485,BAC,30/12/2003,001,2023-03-30_15h48.08.286,OS3_Mult_verification,2022.2.4,Win32,59.53089654,,,,,,,,,,,,,,,,,,,,,,,,,,,,,,,,,,,TRUE,2.9498,-0.05462963,-0.310185185,1,0,0,,,,,,Trial #5,,4,4,0,0,0,0,1,6,,,,,,,,,,,,,,,,,,,,,,,,,,,,,,,,,,,,,,,,,,,,,,,,,,,,,,,,,,,,,,,,,,,,,,,,,,,,,,,,,,,,,,,,,,,,,,,,,,,,,,,,,,,,,,,,,,,,,,
,8485,BAC,30/12/2003,001,2023-03-30_15h48.08.286,OS3_Mult_verification,2022.2.4,Win32,59.53089654,,,,,,,,,,,,,,,,,,,,,,,,,,,,,,,,,,,TRUE,3.0331,-0.047222222,-0.344444444,1,0,0,,,,,,Trial #5,,4,4,0,1,1,1,1,6,,,,,,,,,,,,,,,,,,,,,,,,,,,,,,,,,,,,,,,,,,,,,,,,,,,,,,,,,,,,,,,,,,,,,,,,,,,,,,,,,,,,,,,,,,,,,,,,,,,,,,,,,,,,,,,,,,,,,,
,8485,BAC,30/12/2003,001,2023-03-30_15h48.08.286,OS3_Mult_verification,2022.2.4,Win32,59.53089654,,,,,,,,,,,,,,,,,,,,,,,,,,,,,,,,,,,TRUE,2.7993,-0.024074074,-0.335185185,1,0,0,,,,,,Trial #5,,4,4,0,2,2,2,1,6,,,,,,,,,,,,,,,,,,,,,,,,,,,,,,,,,,,,,,,,,,,,,,,,,,,,,,,,,,,,,,,,,,,,,,,,,,,,,,,,,,,,,,,,,,,,,,,,,,,,,,,,,,,,,,,,,,,,,,
,8485,BAC,30/12/2003,001,2023-03-30_15h48.08.286,OS3_Mult_verification,2022.2.4,Win32,59.53089654,,,,,,,,,,,,,,,,,,,,,,,,,,,,,,,,,,,TRUE,4.1168,-0.018518519,-0.328703704,1,0,0,,,,,,Trial #6,,4,4,0,0,0,0,1,7,,,,,,,,,,,,,,,,,,,,,,,,,,,,,,,,,,,,,,,,,,,,,,,,,,,,,,,,,,,,,,,,,,,,,,,,,,,,,,,,,,,,,,,,,,,,,,,,,,,,,,,,,,,,,,,,,,,,,,
,8485,BAC,30/12/2003,001,2023-03-30_15h48.08.286,OS3_Mult_verification,2022.2.4,Win32,59.53089654,,,,,,,,,,,,,,,,,,,,,,,,,,,,,,,,,,,TRUE,3.9335,0.030555556,-0.325,1,0,0,,,,,,Trial #6,,4,4,0,1,1,1,1,7,,,,,,,,,,,,,,,,,,,,,,,,,,,,,,,,,,,,,,,,,,,,,,,,,,,,,,,,,,,,,,,,,,,,,,,,,,,,,,,,,,,,,,,,,,,,,,,,,,,,,,,,,,,,,,,,,,,,,,
,8485,BAC,30/12/2003,001,2023-03-30_15h48.08.286,OS3_Mult_verification,2022.2.4,Win32,59.53089654,,,,,,,,,,,,,,,,,,,,,,,,,,,,,,,,,,,TRUE,4.1162,0.006481481,-0.32037037,1,0,0,,,,,,Trial #6,,4,4,0,2,2,2,1,7,,,,,,,,,,,,,,,,,,,,,,,,,,,,,,,,,,,,,,,,,,,,,,,,,,,,,,,,,,,,,,,,,,,,,,,,,,,,,,,,,,,,,,,,,,,,,,,,,,,,,,,,,,,,,,,,,,,,,,
,8485,BAC,30/12/2003,001,2023-03-30_15h48.08.286,OS3_Mult_verification,2022.2.4,Win32,59.53089654,,,,,,,,,,,,,,,,,,,,,,,,,,,,,,,,,,,FALSE,5.0998,-0.035185185,-0.32037037,1,0,0,,,,,,Trial #7,,4,4,0,0,0,0,1,8,,,,,,,,,,,,,,,,,,,,,,,,,,,,,,,,,,,,,,,,,,,,,,,,,,,,,,,,,,,,,,,,,,,,,,,,,,,,,,,,,,,,,,,,,,,,,,,,,,,,,,,,,,,,,,,,,,,,,,
,8485,BAC,30/12/2003,001,2023-03-30_15h48.08.286,OS3_Mult_verification,2022.2.4,Win32,59.53089654,,,,,,,,,,,,,,,,,,,,,,,,,,,,,,,,,,,TRUE,4.4664,0.018518519,-0.339814815,1,0,0,,,,,,Trial #7,,4,4,0,1,1,1,1,8,,,,,,,,,,,,,,,,,,,,,,,,,,,,,,,,,,,,,,,,,,,,,,,,,,,,,,,,,,,,,,,,,,,,,,,,,,,,,,,,,,,,,,,,,,,,,,,,,,,,,,,,,,,,,,,,,,,,,,
,8485,BAC,30/12/2003,001,2023-03-30_15h48.08.286,OS3_Mult_verification,2022.2.4,Win32,59.53089654,,,,,,,,,,,,,,,,,,,,,,,,,,,,,,,,,,,FALSE,5.6997,-0.025925926,-0.338888889,1,0,0,,,,,,Trial #7,,4,4,0,2,2,2,1,8,,,,,,,,,,,,,,,,,,,,,,,,,,,,,,,,,,,,,,,,,,,,,,,,,,,,,,,,,,,,,,,,,,,,,,,,,,,,,,,,,,,,,,,,,,,,,,,,,,,,,,,,,,,,,,,,,,,,,,
,8485,BAC,30/12/2003,001,2023-03-30_15h48.08.286,OS3_Mult_verification,2022.2.4,Win32,59.53089654,,,,,,,,,,,,,,,,,,,,,,,,,,,,,,,,,,,,,,,,,,,,,,,,,,,,,,,,,0,0,0,0,1,,,,,,,,,,,,,,,,,,,,,,,,,,,,,,,,,,,,,,,,,,,,,,,,,,,,,,,,,,,,,,,,,,,,,,,,,,,,,,,,,,,,,,,,,,,,,,,,,,,,,,,,,,,,,,,,,
,8485,BAC,30/12/2003,001,2023-03-30_15h48.08.286,OS3_Mult_verification,2022.2.4,Win32,59.53089654,,,,,,,,,,,,,,,,,,,,,,,,,,,,,,,,,,,,,,,,,,,,,,,,,,,,,,,,,,,,,,0,0,0,0,1,0,1,0,,,,,,,,,,,,,,,,,,,,,,,,,,,,,,,,,,,,,,,,,,,,,,,,,,,,,,,,,,,,,,,,,,,,,,,,,,,,,,,,,,,,,,,,,,,,,,,,,,,,,,,,,
,8485,BAC,30/12/2003,001,2023-03-30_15h48.08.286,OS3_Mult_verification,2022.2.4,Win32,59.53089654,,,,,,,,,,,,,,,,space,1.5302,,,,,,,,,,,,,,,,,,,,,,,,,,,,,,,,,,,,,,,,,,,,,,,,,,,,,right,1,0.6305,0,0,0,2,1,practice,9,9,9 | 9,0,0.05,0.065,neutral,right,,,,,,,,,,,,,,,,,,,,,,,,,,,,,,,,,,,,,,,,,,,,,,,,,,,,,,,,,,,,,,,,,,,,,,,,,,,,,,,,,,,,,,,,
,8485,BAC,30/12/2003,001,2023-03-30_15h48.08.286,OS3_Mult_verification,2022.2.4,Win32,59.53089654,,,,,,,,,,,,,,,,,,,,,,,,,,,,,,,,,,,,,,,,,,,,,,,,,,,,,,,,,,,,,,,,,,,,,,right,1,0.4947,0,1,1,1,1,practice,4,3,4 | 3,1,0.05,0.065,incongruent,right,,,,,,,,,,,,,,,,,,,,,,,,,,,,,,,,,,,,,,,,,,,,,,,,,,,,,,,,,,,,,,,,,,,,,,,,,,,,,,,,,,,,,,,,
,8485,BAC,30/12/2003,001,2023-03-30_15h48.08.286,OS3_Mult_verification,2022.2.4,Win32,59.53089654,,,,,,,,,,,,,,,,,,,,,,,,,,,,,,,,,,,,,,,,,,,,,,,,,,,,,,,,,,,,,,,,,,,,,,left,1,0.4618,0,2,2,0,1,practice,9,8,9 | 8,1,0.065,0.05,congruent,left,,,,,,,,,,,,,,,,,,,,,,,,,,,,,,,,,,,,,,,,,,,,,,,,,,,,,,,,,,,,,,,,,,,,,,,,,,,,,,,,,,,,,,,,
,8485,BAC,30/12/2003,001,2023-03-30_15h48.08.286,OS3_Mult_verification,2022.2.4,Win32,59.53089654,,,,,,,,,,,,,,,,,,,,,,,,,,,,,,,,,,,,,,,,,,,,,,,,,,,,,,,,,,,,,,,,,,,,,,right,1,0.5477,,,,,,physical,3,3,3 | 3,0,0.05,0.065,neutral,right,0,0,0,60,1,,,,,,,,,,,,,,,,,,,,,,,,,,,,,,,,,,,,,,,,,,,,,,,,,,,,,,,,,,,,,,,,,,,,,,,,,,,,,,,,,,,
,8485,BAC,30/12/2003,001,2023-03-30_15h48.08.286,OS3_Mult_verification,2022.2.4,Win32,59.53089654,,,,,,,,,,,,,,,,,,,,,,,,,,,,,,,,,,,,,,,,,,,,,,,,,,,,,,,,,,,,,,,,,,,,,,right,1,0.5308,,,,,,physical,9,4,9 | 4,5,0.05,0.065,incongruent,right,0,1,1,47,1,,,,,,,,,,,,,,,,,,,,,,,,,,,,,,,,,,,,,,,,,,,,,,,,,,,,,,,,,,,,,,,,,,,,,,,,,,,,,,,,,,,
,8485,BAC,30/12/2003,001,2023-03-30_15h48.08.286,OS3_Mult_verification,2022.2.4,Win32,59.53089654,,,,,,,,,,,,,,,,,,,,,,,,,,,,,,,,,,,,,,,,,,,,,,,,,,,,,,,,,,,,,,,,,,,,,,left,1,0.3547,,,,,,physical,3,1,3 | 1,2,0.065,0.05,congruent,left,0,2,2,12,1,,,,,,,,,,,,,,,,,,,,,,,,,,,,,,,,,,,,,,,,,,,,,,,,,,,,,,,,,,,,,,,,,,,,,,,,,,,,,,,,,,,
,8485,BAC,30/12/2003,001,2023-03-30_15h48.08.286,OS3_Mult_verification,2022.2.4,Win32,59.53089654,,,,,,,,,,,,,,,,,,,,,,,,,,,,,,,,,,,,,,,,,,,,,,,,,,,,,,,,,,,,,,,,,,,,,,left,1,0.5485,,,,,,physical,8,8,8 | 8,0,0.065,0.05,neutral,left,0,3,3,70,1,,,,,,,,,,,,,,,,,,,,,,,,,,,,,,,,,,,,,,,,,,,,,,,,,,,,,,,,,,,,,,,,,,,,,,,,,,,,,,,,,,,
,8485,BAC,30/12/2003,001,2023-03-30_15h48.08.286,OS3_Mult_verification,2022.2.4,Win32,59.53089654,,,,,,,,,,,,,,,,,,,,,,,,,,,,,,,,,,,,,,,,,,,,,,,,,,,,,,,,,,,,,,,,,,,,,,left,1,0.5386,,,,,,physical,2,2,2 | 2,0,0.065,0.05,neutral,left,0,4,4,52,1,,,,,,,,,,,,,,,,,,,,,,,,,,,,,,,,,,,,,,,,,,,,,,,,,,,,,,,,,,,,,,,,,,,,,,,,,,,,,,,,,,,
,8485,BAC,30/12/2003,001,2023-03-30_15h48.08.286,OS3_Mult_verification,2022.2.4,Win32,59.53089654,,,,,,,,,,,,,,,,,,,,,,,,,,,,,,,,,,,,,,,,,,,,,,,,,,,,,,,,,,,,,,,,,,,,,,left,1,0.5325,,,,,,physical,3,3,3 | 3,0,0.065,0.05,neutral,left,0,5,5,66,1,,,,,,,,,,,,,,,,,,,,,,,,,,,,,,,,,,,,,,,,,,,,,,,,,,,,,,,,,,,,,,,,,,,,,,,,,,,,,,,,,,,
,8485,BAC,30/12/2003,001,2023-03-30_15h48.08.286,OS3_Mult_verification,2022.2.4,Win32,59.53089654,,,,,,,,,,,,,,,,,,,,,,,,,,,,,,,,,,,,,,,,,,,,,,,,,,,,,,,,,,,,,,,,,,,,,,left,1,0.5352,,,,,,physical,6,6,6 | 6,0,0.065,0.05,neutral,left,0,6,6,68,1,,,,,,,,,,,,,,,,,,,,,,,,,,,,,,,,,,,,,,,,,,,,,,,,,,,,,,,,,,,,,,,,,,,,,,,,,,,,,,,,,,,
,8485,BAC,30/12/2003,001,2023-03-30_15h48.08.286,OS3_Mult_verification,2022.2.4,Win32,59.53089654,,,,,,,,,,,,,,,,,,,,,,,,,,,,,,,,,,,,,,,,,,,,,,,,,,,,,,,,,,,,,,,,,,,,,,right,1,0.515,,,,,,physical,3,1,3 | 1,2,0.05,0.065,incongruent,right,0,7,7,36,1,,,,,,,,,,,,,,,,,,,,,,,,,,,,,,,,,,,,,,,,,,,,,,,,,,,,,,,,,,,,,,,,,,,,,,,,,,,,,,,,,,,
,8485,BAC,30/12/2003,001,2023-03-30_15h48.08.286,OS3_Mult_verification,2022.2.4,Win32,59.53089654,,,,,,,,,,,,,,,,,,,,,,,,,,,,,,,,,,,,,,,,,,,,,,,,,,,,,,,,,,,,,,,,,,,,,,left,1,0.4315,,,,,,physical,1,1,1 | 1,0,0.065,0.05,neutral,left,0,8,8,64,1,,,,,,,,,,,,,,,,,,,,,,,,,,,,,,,,,,,,,,,,,,,,,,,,,,,,,,,,,,,,,,,,,,,,,,,,,,,,,,,,,,,
,8485,BAC,30/12/2003,001,2023-03-30_15h48.08.286,OS3_Mult_verification,2022.2.4,Win32,59.53089654,,,,,,,,,,,,,,,,,,,,,,,,,,,,,,,,,,,,,,,,,,,,,,,,,,,,,,,,,,,,,,,,,,,,,,right,1,0.4957,,,,,,physical,2,1,2 | 1,1,0.05,0.065,incongruent,right,0,9,9,28,1,,,,,,,,,,,,,,,,,,,,,,,,,,,,,,,,,,,,,,,,,,,,,,,,,,,,,,,,,,,,,,,,,,,,,,,,,,,,,,,,,,,
,8485,BAC,30/12/2003,001,2023-03-30_15h48.08.286,OS3_Mult_verification,2022.2.4,Win32,59.53089654,,,,,,,,,,,,,,,,,,,,,,,,,,,,,,,,,,,,,,,,,,,,,,,,,,,,,,,,,,,,,,,,,,,,,,right,1,0.4873,,,,,,physical,6,7,6 | 7,1,0.05,0.065,congruent,right,0,10,10,2,1,,,,,,,,,,,,,,,,,,,,,,,,,,,,,,,,,,,,,,,,,,,,,,,,,,,,,,,,,,,,,,,,,,,,,,,,,,,,,,,,,,,
,8485,BAC,30/12/2003,001,2023-03-30_15h48.08.286,OS3_Mult_verification,2022.2.4,Win32,59.53089654,,,,,,,,,,,,,,,,,,,,,,,,,,,,,,,,,,,,,,,,,,,,,,,,,,,,,,,,,,,,,,,,,,,,,,left,1,0.4782,,,,,,physical,4,9,4 | 9,5,0.065,0.05,incongruent,left,0,11,11,43,1,,,,,,,,,,,,,,,,,,,,,,,,,,,,,,,,,,,,,,,,,,,,,,,,,,,,,,,,,,,,,,,,,,,,,,,,,,,,,,,,,,,
,8485,BAC,30/12/2003,001,2023-03-30_15h48.08.286,OS3_Mult_verification,2022.2.4,Win32,59.53089654,,,,,,,,,,,,,,,,,,,,,,,,,,,,,,,,,,,,,,,,,,,,,,,,,,,,,,,,,,,,,,,,,,,,,,left,1,0.5887,,,,,,physical,1,2,1 | 2,1,0.065,0.05,incongruent,left,0,12,12,24,1,,,,,,,,,,,,,,,,,,,,,,,,,,,,,,,,,,,,,,,,,,,,,,,,,,,,,,,,,,,,,,,,,,,,,,,,,,,,,,,,,,,
,8485,BAC,30/12/2003,001,2023-03-30_15h48.08.286,OS3_Mult_verification,2022.2.4,Win32,59.53089654,,,,,,,,,,,,,,,,,,,,,,,,,,,,,,,,,,,,,,,,,,,,,,,,,,,,,,,,,,,,,,,,,,,,,,right,0,0.6179,,,,,,physical,7,9,7 | 9,2,0.065,0.05,incongruent,left,0,13,13,35,1,,,,,,,,,,,,,,,,,,,,,,,,,,,,,,,,,,,,,,,,,,,,,,,,,,,,,,,,,,,,,,,,,,,,,,,,,,,,,,,,,,,
,8485,BAC,30/12/2003,001,2023-03-30_15h48.08.286,OS3_Mult_verification,2022.2.4,Win32,59.53089654,,,,,,,,,,,,,,,,,,,,,,,,,,,,,,,,,,,,,,,,,,,,,,,,,,,,,,,,,,,,,,,,,,,,,,right,1,1.0115,,,,,,physical,8,6,8 | 6,2,0.05,0.065,incongruent,right,0,14,14,38,1,,,,,,,,,,,,,,,,,,,,,,,,,,,,,,,,,,,,,,,,,,,,,,,,,,,,,,,,,,,,,,,,,,,,,,,,,,,,,,,,,,,
,8485,BAC,30/12/2003,001,2023-03-30_15h48.08.286,OS3_Mult_verification,2022.2.4,Win32,59.53089654,,,,,,,,,,,,,,,,,,,,,,,,,,,,,,,,,,,,,,,,,,,,,,,,,,,,,,,,,,,,,,,,,,,,,,left,1,0.7445,,,,,,physical,3,4,3 | 4,1,0.065,0.05,incongruent,left,0,15,15,25,1,,,,,,,,,,,,,,,,,,,,,,,,,,,,,,,,,,,,,,,,,,,,,,,,,,,,,,,,,,,,,,,,,,,,,,,,,,,,,,,,,,,
,8485,BAC,30/12/2003,001,2023-03-30_15h48.08.286,OS3_Mult_verification,2022.2.4,Win32,59.53089654,,,,,,,,,,,,,,,,,,,,,,,,,,,,,,,,,,,,,,,,,,,,,,,,,,,,,,,,,,,,,,,,,,,,,,right,1,0.6303,,,,,,physical,6,6,6 | 6,0,0.05,0.065,neutral,right,0,16,16,58,1,,,,,,,,,,,,,,,,,,,,,,,,,,,,,,,,,,,,,,,,,,,,,,,,,,,,,,,,,,,,,,,,,,,,,,,,,,,,,,,,,,,
,8485,BAC,30/12/2003,001,2023-03-30_15h48.08.286,OS3_Mult_verification,2022.2.4,Win32,59.53089654,,,,,,,,,,,,,,,,,,,,,,,,,,,,,,,,,,,,,,,,,,,,,,,,,,,,,,,,,,,,,,,,,,,,,,left,1,0.5406,,,,,,physical,1,3,1 | 3,2,0.065,0.05,incongruent,left,0,17,17,32,1,,,,,,,,,,,,,,,,,,,,,,,,,,,,,,,,,,,,,,,,,,,,,,,,,,,,,,,,,,,,,,,,,,,,,,,,,,,,,,,,,,,
,8485,BAC,30/12/2003,001,2023-03-30_15h48.08.286,OS3_Mult_verification,2022.2.4,Win32,59.53089654,,,,,,,,,,,,,,,,,,,,,,,,,,,,,,,,,,,,,,,,,,,,,,,,,,,,,,,,,,,,,,,,,,,,,,right,1,0.5949,,,,,,physical,6,8,6 | 8,2,0.05,0.065,congruent,right,0,18,18,10,1,,,,,,,,,,,,,,,,,,,,,,,,,,,,,,,,,,,,,,,,,,,,,,,,,,,,,,,,,,,,,,,,,,,,,,,,,,,,,,,,,,,
,8485,BAC,30/12/2003,001,2023-03-30_15h48.08.286,OS3_Mult_verification,2022.2.4,Win32,59.53089654,,,,,,,,,,,,,,,,,,,,,,,,,,,,,,,,,,,,,,,,,,,,,,,,,,,,,,,,,,,,,,,,,,,,,,left,1,0.4679,,,,,,physical,4,4,4 | 4,0,0.065,0.05,neutral,left,0,19,19,53,1,,,,,,,,,,,,,,,,,,,,,,,,,,,,,,,,,,,,,,,,,,,,,,,,,,,,,,,,,,,,,,,,,,,,,,,,,,,,,,,,,,,
,8485,BAC,30/12/2003,001,2023-03-30_15h48.08.286,OS3_Mult_verification,2022.2.4,Win32,59.53089654,,,,,,,,,,,,,,,,,,,,,,,,,,,,,,,,,,,,,,,,,,,,,,,,,,,,,,,,,,,,,,,,,,,,,,right,1,0.6872,,,,,,physical,3,4,3 | 4,1,0.05,0.065,congruent,right,0,20,20,1,1,,,,,,,,,,,,,,,,,,,,,,,,,,,,,,,,,,,,,,,,,,,,,,,,,,,,,,,,,,,,,,,,,,,,,,,,,,,,,,,,,,,
,8485,BAC,30/12/2003,001,2023-03-30_15h48.08.286,OS3_Mult_verification,2022.2.4,Win32,59.53089654,,,,,,,,,,,,,,,,,,,,,,,,,,,,,,,,,,,,,,,,,,,,,,,,,,,,,,,,,,,,,,,,,,,,,,left,1,0.4336,,,,,,physical,9,8,9 | 8,1,0.065,0.05,congruent,left,0,21,21,7,1,,,,,,,,,,,,,,,,,,,,,,,,,,,,,,,,,,,,,,,,,,,,,,,,,,,,,,,,,,,,,,,,,,,,,,,,,,,,,,,,,,,
,8485,BAC,30/12/2003,001,2023-03-30_15h48.08.286,OS3_Mult_verification,2022.2.4,Win32,59.53089654,,,,,,,,,,,,,,,,,,,,,,,,,,,,,,,,,,,,,,,,,,,,,,,,,,,,,,,,,,,,,,,,,,,,,,right,1,0.5125,,,,,,physical,2,2,2 | 2,0,0.05,0.065,neutral,right,0,22,22,57,1,,,,,,,,,,,,,,,,,,,,,,,,,,,,,,,,,,,,,,,,,,,,,,,,,,,,,,,,,,,,,,,,,,,,,,,,,,,,,,,,,,,
,8485,BAC,30/12/2003,001,2023-03-30_15h48.08.286,OS3_Mult_verification,2022.2.4,Win32,59.53089654,,,,,,,,,,,,,,,,,,,,,,,,,,,,,,,,,,,,,,,,,,,,,,,,,,,,,,,,,,,,,,,,,,,,,,right,1,0.6178,,,,,,physical,2,2,2 | 2,0,0.05,0.065,neutral,right,0,23,23,65,1,,,,,,,,,,,,,,,,,,,,,,,,,,,,,,,,,,,,,,,,,,,,,,,,,,,,,,,,,,,,,,,,,,,,,,,,,,,,,,,,,,,
,8485,BAC,30/12/2003,001,2023-03-30_15h48.08.286,OS3_Mult_verification,2022.2.4,Win32,59.53089654,,,,,,,,,,,,,,,,,,,,,,,,,,,,,,,,,,,,,,,,,,,,,,,,,,,,,,,,,,,,,,,,,,,,,,left,1,0.4748,,,,,,physical,2,7,2 | 7,5,0.065,0.05,incongruent,left,0,24,24,41,1,,,,,,,,,,,,,,,,,,,,,,,,,,,,,,,,,,,,,,,,,,,,,,,,,,,,,,,,,,,,,,,,,,,,,,,,,,,,,,,,,,,
,8485,BAC,30/12/2003,001,2023-03-30_15h48.08.286,OS3_Mult_verification,2022.2.4,Win32,59.53089654,,,,,,,,,,,,,,,,,,,,,,,,,,,,,,,,,,,,,,,,,,,,,,,,,,,,,,,,,,,,,,,,,,,,,,left,1,0.4677,,,,,,physical,9,4,9 | 4,5,0.065,0.05,congruent,left,0,25,25,23,1,,,,,,,,,,,,,,,,,,,,,,,,,,,,,,,,,,,,,,,,,,,,,,,,,,,,,,,,,,,,,,,,,,,,,,,,,,,,,,,,,,,
,8485,BAC,30/12/2003,001,2023-03-30_15h48.08.286,OS3_Mult_verification,2022.2.4,Win32,59.53089654,,,,,,,,,,,,,,,,,,,,,,,,,,,,,,,,,,,,,,,,,,,,,,,,,,,,,,,,,,,,,,,,,,,,,,right,1,0.4556,,,,,,physical,2,4,2 | 4,2,0.05,0.065,congruent,right,0,26,26,9,1,,,,,,,,,,,,,,,,,,,,,,,,,,,,,,,,,,,,,,,,,,,,,,,,,,,,,,,,,,,,,,,,,,,,,,,,,,,,,,,,,,,
,8485,BAC,30/12/2003,001,2023-03-30_15h48.08.286,OS3_Mult_verification,2022.2.4,Win32,59.53089654,,,,,,,,,,,,,,,,,,,,,,,,,,,,,,,,,,,,,,,,,,,,,,,,,,,,,,,,,,,,,,,,,,,,,,right,1,0.6842,,,,,,physical,4,9,4 | 9,5,0.05,0.065,congruent,right,0,27,27,19,1,,,,,,,,,,,,,,,,,,,,,,,,,,,,,,,,,,,,,,,,,,,,,,,,,,,,,,,,,,,,,,,,,,,,,,,,,,,,,,,,,,,
,8485,BAC,30/12/2003,001,2023-03-30_15h48.08.286,OS3_Mult_verification,2022.2.4,Win32,59.53089654,,,,,,,,,,,,,,,,,,,,,,,,,,,,,,,,,,,,,,,,,,,,,,,,,,,,,,,,,,,,,,,,,,,,,,right,1,0.4677,,,,,,physical,4,4,4 | 4,0,0.05,0.065,neutral,right,0,28,28,61,1,,,,,,,,,,,,,,,,,,,,,,,,,,,,,,,,,,,,,,,,,,,,,,,,,,,,,,,,,,,,,,,,,,,,,,,,,,,,,,,,,,,
,8485,BAC,30/12/2003,001,2023-03-30_15h48.08.286,OS3_Mult_verification,2022.2.4,Win32,59.53089654,,,,,,,,,,,,,,,,,,,,,,,,,,,,,,,,,,,,,,,,,,,,,,,,,,,,,,,,,,,,,,,,,,,,,,right,1,0.5174,,,,,,physical,1,2,1 | 2,1,0.05,0.065,congruent,right,0,29,29,0,1,,,,,,,,,,,,,,,,,,,,,,,,,,,,,,,,,,,,,,,,,,,,,,,,,,,,,,,,,,,,,,,,,,,,,,,,,,,,,,,,,,,
,8485,BAC,30/12/2003,001,2023-03-30_15h48.08.286,OS3_Mult_verification,2022.2.4,Win32,59.53089654,,,,,,,,,,,,,,,,,,,,,,,,,,,,,,,,,,,,,,,,,,,,,,,,,,,,,,,,,,,,,,,,,,,,,,left,1,0.4672,,,,,,physical,4,3,4 | 3,1,0.065,0.05,congruent,left,0,30,30,5,1,,,,,,,,,,,,,,,,,,,,,,,,,,,,,,,,,,,,,,,,,,,,,,,,,,,,,,,,,,,,,,,,,,,,,,,,,,,,,,,,,,,
,8485,BAC,30/12/2003,001,2023-03-30_15h48.08.286,OS3_Mult_verification,2022.2.4,Win32,59.53089654,,,,,,,,,,,,,,,,,,,,,,,,,,,,,,,,,,,,,,,,,,,,,,,,,,,,,,,,,,,,,,,,,,,,,,left,1,0.4353,,,,,,physical,9,9,9 | 9,0,0.065,0.05,neutral,left,0,31,31,55,1,,,,,,,,,,,,,,,,,,,,,,,,,,,,,,,,,,,,,,,,,,,,,,,,,,,,,,,,,,,,,,,,,,,,,,,,,,,,,,,,,,,
,8485,BAC,30/12/2003,001,2023-03-30_15h48.08.286,OS3_Mult_verification,2022.2.4,Win32,59.53089654,,,,,,,,,,,,,,,,,,,,,,,,,,,,,,,,,,,,,,,,,,,,,,,,,,,,,,,,,,,,,,,,,,,,,,right,1,0.6071,,,,,,physical,3,8,3 | 8,5,0.05,0.065,congruent,right,0,32,32,18,1,,,,,,,,,,,,,,,,,,,,,,,,,,,,,,,,,,,,,,,,,,,,,,,,,,,,,,,,,,,,,,,,,,,,,,,,,,,,,,,,,,,
,8485,BAC,30/12/2003,001,2023-03-30_15h48.08.286,OS3_Mult_verification,2022.2.4,Win32,59.53089654,,,,,,,,,,,,,,,,,,,,,,,,,,,,,,,,,,,,,,,,,,,,,,,,,,,,,,,,,,,,,,,,,,,,,,right,1,0.5009,,,,,,physical,7,7,7 | 7,0,0.05,0.065,neutral,right,0,33,33,69,1,,,,,,,,,,,,,,,,,,,,,,,,,,,,,,,,,,,,,,,,,,,,,,,,,,,,,,,,,,,,,,,,,,,,,,,,,,,,,,,,,,,
,8485,BAC,30/12/2003,001,2023-03-30_15h48.08.286,OS3_Mult_verification,2022.2.4,Win32,59.53089654,,,,,,,,,,,,,,,,,,,,,,,,,,,,,,,,,,,,,,,,,,,,,,,,,,,,,,,,,,,,,,,,,,,,,,right,1,0.4505,,,,,,physical,7,7,7 | 7,0,0.05,0.065,neutral,right,0,34,34,59,1,,,,,,,,,,,,,,,,,,,,,,,,,,,,,,,,,,,,,,,,,,,,,,,,,,,,,,,,,,,,,,,,,,,,,,,,,,,,,,,,,,,
,8485,BAC,30/12/2003,001,2023-03-30_15h48.08.286,OS3_Mult_verification,2022.2.4,Win32,59.53089654,,,,,,,,,,,,,,,,,,,,,,,,,,,,,,,,,,,,,,,,,,,,,,,,,,,,,,,,,,,,,,,,,,,,,,left,1,0.3846,,,,,,physical,6,1,6 | 1,5,0.065,0.05,congruent,left,0,35,35,20,1,,,,,,,,,,,,,,,,,,,,,,,,,,,,,,,,,,,,,,,,,,,,,,,,,,,,,,,,,,,,,,,,,,,,,,,,,,,,,,,,,,,
,8485,BAC,30/12/2003,001,2023-03-30_15h48.08.286,OS3_Mult_verification,2022.2.4,Win32,59.53089654,,,,,,,,,,,,,,,,,,,,,,,,,,,,,,,,,,,,,,,,,,,,,,,,,,,,,,,,,,,,,,,,,,,,,,left,1,0.4221,,,,,,physical,8,9,8 | 9,1,0.065,0.05,incongruent,left,0,36,36,27,1,,,,,,,,,,,,,,,,,,,,,,,,,,,,,,,,,,,,,,,,,,,,,,,,,,,,,,,,,,,,,,,,,,,,,,,,,,,,,,,,,,,
,8485,BAC,30/12/2003,001,2023-03-30_15h48.08.286,OS3_Mult_verification,2022.2.4,Win32,59.53089654,,,,,,,,,,,,,,,,,,,,,,,,,,,,,,,,,,,,,,,,,,,,,,,,,,,,,,,,,,,,,,,,,,,,,,right,1,0.4248,,,,,,physical,9,7,9 | 7,2,0.05,0.065,incongruent,right,0,37,37,39,1,,,,,,,,,,,,,,,,,,,,,,,,,,,,,,,,,,,,,,,,,,,,,,,,,,,,,,,,,,,,,,,,,,,,,,,,,,,,,,,,,,,
,8485,BAC,30/12/2003,001,2023-03-30_15h48.08.286,OS3_Mult_verification,2022.2.4,Win32,59.53089654,,,,,,,,,,,,,,,,,,,,,,,,,,,,,,,,,,,,,,,,,,,,,,,,,,,,,,,,,,,,,,,,,,,,,,left,1,0.4509,,,,,,physical,9,7,9 | 7,2,0.065,0.05,congruent,left,0,38,38,15,1,,,,,,,,,,,,,,,,,,,,,,,,,,,,,,,,,,,,,,,,,,,,,,,,,,,,,,,,,,,,,,,,,,,,,,,,,,,,,,,,,,,
,8485,BAC,30/12/2003,001,2023-03-30_15h48.08.286,OS3_Mult_verification,2022.2.4,Win32,59.53089654,,,,,,,,,,,,,,,,,,,,,,,,,,,,,,,,,,,,,,,,,,,,,,,,,,,,,,,,,,,,,,,,,,,,,,left,1,0.4512,,,,,,physical,2,4,2 | 4,2,0.065,0.05,incongruent,left,0,39,39,33,1,,,,,,,,,,,,,,,,,,,,,,,,,,,,,,,,,,,,,,,,,,,,,,,,,,,,,,,,,,,,,,,,,,,,,,,,,,,,,,,,,,,
,8485,BAC,30/12/2003,001,2023-03-30_15h48.08.286,OS3_Mult_verification,2022.2.4,Win32,59.53089654,,,,,,,,,,,,,,,,,,,,,,,,,,,,,,,,,,,,,,,,,,,,,,,,,,,,,,,,,,,,,,,,,,,,,,right,1,0.6678,,,,,,physical,7,6,7 | 6,1,0.05,0.065,incongruent,right,0,40,40,30,1,,,,,,,,,,,,,,,,,,,,,,,,,,,,,,,,,,,,,,,,,,,,,,,,,,,,,,,,,,,,,,,,,,,,,,,,,,,,,,,,,,,
,8485,BAC,30/12/2003,001,2023-03-30_15h48.08.286,OS3_Mult_verification,2022.2.4,Win32,59.53089654,,,,,,,,,,,,,,,,,,,,,,,,,,,,,,,,,,,,,,,,,,,,,,,,,,,,,,,,,,,,,,,,,,,,,,right,1,0.5989,,,,,,physical,9,8,9 | 8,1,0.05,0.065,incongruent,right,0,41,41,31,1,,,,,,,,,,,,,,,,,,,,,,,,,,,,,,,,,,,,,,,,,,,,,,,,,,,,,,,,,,,,,,,,,,,,,,,,,,,,,,,,,,,
,8485,BAC,30/12/2003,001,2023-03-30_15h48.08.286,OS3_Mult_verification,2022.2.4,Win32,59.53089654,,,,,,,,,,,,,,,,,,,,,,,,,,,,,,,,,,,,,,,,,,,,,,,,,,,,,,,,,,,,,,,,,,,,,,left,1,0.4513,,,,,,physical,7,2,7 | 2,5,0.065,0.05,congruent,left,0,42,42,21,1,,,,,,,,,,,,,,,,,,,,,,,,,,,,,,,,,,,,,,,,,,,,,,,,,,,,,,,,,,,,,,,,,,,,,,,,,,,,,,,,,,,
,8485,BAC,30/12/2003,001,2023-03-30_15h48.08.286,OS3_Mult_verification,2022.2.4,Win32,59.53089654,,,,,,,,,,,,,,,,,,,,,,,,,,,,,,,,,,,,,,,,,,,,,,,,,,,,,,,,,,,,,,,,,,,,,,left,1,0.4051,,,,,,physical,2,1,2 | 1,1,0.065,0.05,congruent,left,0,43,43,4,1,,,,,,,,,,,,,,,,,,,,,,,,,,,,,,,,,,,,,,,,,,,,,,,,,,,,,,,,,,,,,,,,,,,,,,,,,,,,,,,,,,,
,8485,BAC,30/12/2003,001,2023-03-30_15h48.08.286,OS3_Mult_verification,2022.2.4,Win32,59.53089654,,,,,,,,,,,,,,,,,,,,,,,,,,,,,,,,,,,,,,,,,,,,,,,,,,,,,,,,,,,,,,,,,,,,,,right,1,0.6505,,,,,,physical,6,1,6 | 1,5,0.05,0.065,incongruent,right,0,44,44,44,1,,,,,,,,,,,,,,,,,,,,,,,,,,,,,,,,,,,,,,,,,,,,,,,,,,,,,,,,,,,,,,,,,,,,,,,,,,,,,,,,,,,
,8485,BAC,30/12/2003,001,2023-03-30_15h48.08.286,OS3_Mult_verification,2022.2.4,Win32,59.53089654,,,,,,,,,,,,,,,,,,,,,,,,,,,,,,,,,,,,,,,,,,,,,,,,,,,,,,,,,,,,,,,,,,,,,,right,1,0.5175,,,,,,physical,1,6,1 | 6,5,0.05,0.065,congruent,right,0,45,45,16,1,,,,,,,,,,,,,,,,,,,,,,,,,,,,,,,,,,,,,,,,,,,,,,,,,,,,,,,,,,,,,,,,,,,,,,,,,,,,,,,,,,,
,8485,BAC,30/12/2003,001,2023-03-30_15h48.08.286,OS3_Mult_verification,2022.2.4,Win32,59.53089654,,,,,,,,,,,,,,,,,,,,,,,,,,,,,,,,,,,,,,,,,,,,,,,,,,,,,,,,,,,,,,,,,,,,,,right,1,0.4677,,,,,,physical,9,9,9 | 9,0,0.05,0.065,neutral,right,0,46,46,71,1,,,,,,,,,,,,,,,,,,,,,,,,,,,,,,,,,,,,,,,,,,,,,,,,,,,,,,,,,,,,,,,,,,,,,,,,,,,,,,,,,,,
,8485,BAC,30/12/2003,001,2023-03-30_15h48.08.286,OS3_Mult_verification,2022.2.4,Win32,59.53089654,,,,,,,,,,,,,,,,,,,,,,,,,,,,,,,,,,,,,,,,,,,,,,,,,,,,,,,,,,,,,,,,,,,,,,right,1,0.4901,,,,,,physical,1,3,1 | 3,2,0.05,0.065,congruent,right,0,47,47,8,1,,,,,,,,,,,,,,,,,,,,,,,,,,,,,,,,,,,,,,,,,,,,,,,,,,,,,,,,,,,,,,,,,,,,,,,,,,,,,,,,,,,
,8485,BAC,30/12/2003,001,2023-03-30_15h48.08.286,OS3_Mult_verification,2022.2.4,Win32,59.53089654,,,,,,,,,,,,,,,,,,,,,,,,,,,,,,,,,,,,,,,,,,,,,,,,,,,,,,,,,,,,,,,,,,,,,,right,1,0.5005,,,,,,physical,2,7,2 | 7,5,0.05,0.065,congruent,right,0,48,48,17,1,,,,,,,,,,,,,,,,,,,,,,,,,,,,,,,,,,,,,,,,,,,,,,,,,,,,,,,,,,,,,,,,,,,,,,,,,,,,,,,,,,,
,8485,BAC,30/12/2003,001,2023-03-30_15h48.08.286,OS3_Mult_verification,2022.2.4,Win32,59.53089654,,,,,,,,,,,,,,,,,,,,,,,,,,,,,,,,,,,,,,,,,,,,,,,,,,,,,,,,,,,,,,,,,,,,,,left,1,0.5345,,,,,,physical,6,8,6 | 8,2,0.065,0.05,incongruent,left,0,49,49,34,1,,,,,,,,,,,,,,,,,,,,,,,,,,,,,,,,,,,,,,,,,,,,,,,,,,,,,,,,,,,,,,,,,,,,,,,,,,,,,,,,,,,
,8485,BAC,30/12/2003,001,2023-03-30_15h48.08.286,OS3_Mult_verification,2022.2.4,Win32,59.53089654,,,,,,,,,,,,,,,,,,,,,,,,,,,,,,,,,,,,,,,,,,,,,,,,,,,,,,,,,,,,,,,,,,,,,,right,1,0.4634,,,,,,physical,9,9,9 | 9,0,0.05,0.065,neutral,right,0,50,50,63,1,,,,,,,,,,,,,,,,,,,,,,,,,,,,,,,,,,,,,,,,,,,,,,,,,,,,,,,,,,,,,,,,,,,,,,,,,,,,,,,,,,,
,8485,BAC,30/12/2003,001,2023-03-30_15h48.08.286,OS3_Mult_verification,2022.2.4,Win32,59.53089654,,,,,,,,,,,,,,,,,,,,,,,,,,,,,,,,,,,,,,,,,,,,,,,,,,,,,,,,,,,,,,,,,,,,,,left,1,0.4679,,,,,,physical,3,8,3 | 8,5,0.065,0.05,incongruent,left,0,51,51,42,1,,,,,,,,,,,,,,,,,,,,,,,,,,,,,,,,,,,,,,,,,,,,,,,,,,,,,,,,,,,,,,,,,,,,,,,,,,,,,,,,,,,
,8485,BAC,30/12/2003,001,2023-03-30_15h48.08.286,OS3_Mult_verification,2022.2.4,Win32,59.53089654,,,,,,,,,,,,,,,,,,,,,,,,,,,,,,,,,,,,,,,,,,,,,,,,,,,,,,,,,,,,,,,,,,,,,,right,1,0.5181,,,,,,physical,4,2,4 | 2,2,0.05,0.065,incongruent,right,0,52,52,37,1,,,,,,,,,,,,,,,,,,,,,,,,,,,,,,,,,,,,,,,,,,,,,,,,,,,,,,,,,,,,,,,,,,,,,,,,,,,,,,,,,,,
,8485,BAC,30/12/2003,001,2023-03-30_15h48.08.286,OS3_Mult_verification,2022.2.4,Win32,59.53089654,,,,,,,,,,,,,,,,,,,,,,,,,,,,,,,,,,,,,,,,,,,,,,,,,,,,,,,,,,,,,,,,,,,,,,left,1,0.4011,,,,,,physical,8,6,8 | 6,2,0.065,0.05,congruent,left,0,53,53,14,1,,,,,,,,,,,,,,,,,,,,,,,,,,,,,,,,,,,,,,,,,,,,,,,,,,,,,,,,,,,,,,,,,,,,,,,,,,,,,,,,,,,
,8485,BAC,30/12/2003,001,2023-03-30_15h48.08.286,OS3_Mult_verification,2022.2.4,Win32,59.53089654,,,,,,,,,,,,,,,,,,,,,,,,,,,,,,,,,,,,,,,,,,,,,,,,,,,,,,,,,,,,,,,,,,,,,,right,1,0.5172,,,,,,physical,8,3,8 | 3,5,0.05,0.065,incongruent,right,0,54,54,46,1,,,,,,,,,,,,,,,,,,,,,,,,,,,,,,,,,,,,,,,,,,,,,,,,,,,,,,,,,,,,,,,,,,,,,,,,,,,,,,,,,,,
,8485,BAC,30/12/2003,001,2023-03-30_15h48.08.286,OS3_Mult_verification,2022.2.4,Win32,59.53089654,,,,,,,,,,,,,,,,,,,,,,,,,,,,,,,,,,,,,,,,,,,,,,,,,,,,,,,,,,,,,,,,,,,,,,left,1,0.5518,,,,,,physical,6,6,6 | 6,0,0.065,0.05,neutral,left,0,55,55,50,1,,,,,,,,,,,,,,,,,,,,,,,,,,,,,,,,,,,,,,,,,,,,,,,,,,,,,,,,,,,,,,,,,,,,,,,,,,,,,,,,,,,
,8485,BAC,30/12/2003,001,2023-03-30_15h48.08.286,OS3_Mult_verification,2022.2.4,Win32,59.53089654,,,,,,,,,,,,,,,,,,,,,,,,,,,,,,,,,,,,,,,,,,,,,,,,,,,,,,,,,,,,,,,,,,,,,,left,1,0.4681,,,,,,physical,4,2,4 | 2,2,0.065,0.05,congruent,left,0,56,56,13,1,,,,,,,,,,,,,,,,,,,,,,,,,,,,,,,,,,,,,,,,,,,,,,,,,,,,,,,,,,,,,,,,,,,,,,,,,,,,,,,,,,,
,8485,BAC,30/12/2003,001,2023-03-30_15h48.08.286,OS3_Mult_verification,2022.2.4,Win32,59.53089654,,,,,,,,,,,,,,,,,,,,,,,,,,,,,,,,,,,,,,,,,,,,,,,,,,,,,,,,,,,,,,,,,,,,,,left,1,0.4509,,,,,,physical,1,6,1 | 6,5,0.065,0.05,incongruent,left,0,57,57,40,1,,,,,,,,,,,,,,,,,,,,,,,,,,,,,,,,,,,,,,,,,,,,,,,,,,,,,,,,,,,,,,,,,,,,,,,,,,,,,,,,,,,
,8485,BAC,30/12/2003,001,2023-03-30_15h48.08.286,OS3_Mult_verification,2022.2.4,Win32,59.53089654,,,,,,,,,,,,,,,,,,,,,,,,,,,,,,,,,,,,,,,,,,,,,,,,,,,,,,,,,,,,,,,,,,,,,,left,1,0.4175,,,,,,physical,7,6,7 | 6,1,0.065,0.05,congruent,left,0,58,58,6,1,,,,,,,,,,,,,,,,,,,,,,,,,,,,,,,,,,,,,,,,,,,,,,,,,,,,,,,,,,,,,,,,,,,,,,,,,,,,,,,,,,,
,8485,BAC,30/12/2003,001,2023-03-30_15h48.08.286,OS3_Mult_verification,2022.2.4,Win32,59.53089654,,,,,,,,,,,,,,,,,,,,,,,,,,,,,,,,,,,,,,,,,,,,,,,,,,,,,,,,,,,,,,,,,,,,,,right,1,0.4177,,,,,,physical,4,4,4 | 4,0,0.05,0.065,neutral,right,0,59,59,67,1,,,,,,,,,,,,,,,,,,,,,,,,,,,,,,,,,,,,,,,,,,,,,,,,,,,,,,,,,,,,,,,,,,,,,,,,,,,,,,,,,,,
,8485,BAC,30/12/2003,001,2023-03-30_15h48.08.286,OS3_Mult_verification,2022.2.4,Win32,59.53089654,,,,,,,,,,,,,,,,,,,,,,,,,,,,,,,,,,,,,,,,,,,,,,,,,,,,,,,,,,,,,,,,,,,,,,right,1,0.5844,,,,,,physical,8,9,8 | 9,1,0.05,0.065,congruent,right,0,60,60,3,1,,,,,,,,,,,,,,,,,,,,,,,,,,,,,,,,,,,,,,,,,,,,,,,,,,,,,,,,,,,,,,,,,,,,,,,,,,,,,,,,,,,
,8485,BAC,30/12/2003,001,2023-03-30_15h48.08.286,OS3_Mult_verification,2022.2.4,Win32,59.53089654,,,,,,,,,,,,,,,,,,,,,,,,,,,,,,,,,,,,,,,,,,,,,,,,,,,,,,,,,,,,,,,,,,,,,,right,1,0.5839,,,,,,physical,7,2,7 | 2,5,0.05,0.065,incongruent,right,0,61,61,45,1,,,,,,,,,,,,,,,,,,,,,,,,,,,,,,,,,,,,,,,,,,,,,,,,,,,,,,,,,,,,,,,,,,,,,,,,,,,,,,,,,,,
,8485,BAC,30/12/2003,001,2023-03-30_15h48.08.286,OS3_Mult_verification,2022.2.4,Win32,59.53089654,,,,,,,,,,,,,,,,,,,,,,,,,,,,,,,,,,,,,,,,,,,,,,,,,,,,,,,,,,,,,,,,,,,,,,left,1,0.4555,,,,,,physical,1,1,1 | 1,0,0.065,0.05,neutral,left,0,62,62,48,1,,,,,,,,,,,,,,,,,,,,,,,,,,,,,,,,,,,,,,,,,,,,,,,,,,,,,,,,,,,,,,,,,,,,,,,,,,,,,,,,,,,
,8485,BAC,30/12/2003,001,2023-03-30_15h48.08.286,OS3_Mult_verification,2022.2.4,Win32,59.53089654,,,,,,,,,,,,,,,,,,,,,,,,,,,,,,,,,,,,,,,,,,,,,,,,,,,,,,,,,,,,,,,,,,,,,,right,1,0.5237,,,,,,physical,4,3,4 | 3,1,0.05,0.065,incongruent,right,0,63,63,29,1,,,,,,,,,,,,,,,,,,,,,,,,,,,,,,,,,,,,,,,,,,,,,,,,,,,,,,,,,,,,,,,,,,,,,,,,,,,,,,,,,,,
,8485,BAC,30/12/2003,001,2023-03-30_15h48.08.286,OS3_Mult_verification,2022.2.4,Win32,59.53089654,,,,,,,,,,,,,,,,,,,,,,,,,,,,,,,,,,,,,,,,,,,,,,,,,,,,,,,,,,,,,,,,,,,,,,right,1,0.4174,,,,,,physical,8,8,8 | 8,0,0.05,0.065,neutral,right,0,64,64,62,1,,,,,,,,,,,,,,,,,,,,,,,,,,,,,,,,,,,,,,,,,,,,,,,,,,,,,,,,,,,,,,,,,,,,,,,,,,,,,,,,,,,
,8485,BAC,30/12/2003,001,2023-03-30_15h48.08.286,OS3_Mult_verification,2022.2.4,Win32,59.53089654,,,,,,,,,,,,,,,,,,,,,,,,,,,,,,,,,,,,,,,,,,,,,,,,,,,,,,,,,,,,,,,,,,,,,,left,1,0.4872,,,,,,physical,8,8,8 | 8,0,0.065,0.05,neutral,left,0,65,65,51,1,,,,,,,,,,,,,,,,,,,,,,,,,,,,,,,,,,,,,,,,,,,,,,,,,,,,,,,,,,,,,,,,,,,,,,,,,,,,,,,,,,,
,8485,BAC,30/12/2003,001,2023-03-30_15h48.08.286,OS3_Mult_verification,2022.2.4,Win32,59.53089654,,,,,,,,,,,,,,,,,,,,,,,,,,,,,,,,,,,,,,,,,,,,,,,,,,,,,,,,,,,,,,,,,,,,,,left,1,0.4848,,,,,,physical,3,3,3 | 3,0,0.065,0.05,neutral,left,0,66,66,49,1,,,,,,,,,,,,,,,,,,,,,,,,,,,,,,,,,,,,,,,,,,,,,,,,,,,,,,,,,,,,,,,,,,,,,,,,,,,,,,,,,,,
,8485,BAC,30/12/2003,001,2023-03-30_15h48.08.286,OS3_Mult_verification,2022.2.4,Win32,59.53089654,,,,,,,,,,,,,,,,,,,,,,,,,,,,,,,,,,,,,,,,,,,,,,,,,,,,,,,,,,,,,,,,,,,,,,left,1,0.6032,,,,,,physical,7,7,7 | 7,0,0.065,0.05,neutral,left,0,67,67,54,1,,,,,,,,,,,,,,,,,,,,,,,,,,,,,,,,,,,,,,,,,,,,,,,,,,,,,,,,,,,,,,,,,,,,,,,,,,,,,,,,,,,
,8485,BAC,30/12/2003,001,2023-03-30_15h48.08.286,OS3_Mult_verification,2022.2.4,Win32,59.53089654,,,,,,,,,,,,,,,,,,,,,,,,,,,,,,,,,,,,,,,,,,,,,,,,,,,,,,,,,,,,,,,,,,,,,,right,1,0.5507,,,,,,physical,7,9,7 | 9,2,0.05,0.065,congruent,right,0,68,68,11,1,,,,,,,,,,,,,,,,,,,,,,,,,,,,,,,,,,,,,,,,,,,,,,,,,,,,,,,,,,,,,,,,,,,,,,,,,,,,,,,,,,,
,8485,BAC,30/12/2003,001,2023-03-30_15h48.08.286,OS3_Mult_verification,2022.2.4,Win32,59.53089654,,,,,,,,,,,,,,,,,,,,,,,,,,,,,,,,,,,,,,,,,,,,,,,,,,,,,,,,,,,,,,,,,,,,,,left,1,0.5661,,,,,,physical,6,7,6 | 7,1,0.065,0.05,incongruent,left,0,69,69,26,1,,,,,,,,,,,,,,,,,,,,,,,,,,,,,,,,,,,,,,,,,,,,,,,,,,,,,,,,,,,,,,,,,,,,,,,,,,,,,,,,,,,
,8485,BAC,30/12/2003,001,2023-03-30_15h48.08.286,OS3_Mult_verification,2022.2.4,Win32,59.53089654,,,,,,,,,,,,,,,,,,,,,,,,,,,,,,,,,,,,,,,,,,,,,,,,,,,,,,,,,,,,,,,,,,,,,,right,1,0.5341,,,,,,physical,1,1,1 | 1,0,0.05,0.065,neutral,right,0,70,70,56,1,,,,,,,,,,,,,,,,,,,,,,,,,,,,,,,,,,,,,,,,,,,,,,,,,,,,,,,,,,,,,,,,,,,,,,,,,,,,,,,,,,,
,8485,BAC,30/12/2003,001,2023-03-30_15h48.08.286,OS3_Mult_verification,2022.2.4,Win32,59.53089654,,,,,,,,,,,,,,,,,,,,,,,,,,,,,,,,,,,,,,,,,,,,,,,,,,,,,,,,,,,,,,,,,,,,,,left,1,0.4176,,,,,,physical,8,3,8 | 3,5,0.065,0.05,congruent,left,0,71,71,22,1,,,,,,,,,,,,,,,,,,,,,,,,,,,,,,,,,,,,,,,,,,,,,,,,,,,,,,,,,,,,,,,,,,,,,,,,,,,,,,,,,,,
,8485,BAC,30/12/2003,001,2023-03-30_15h48.08.286,OS3_Mult_verification,2022.2.4,Win32,59.53089654,,,,,,,,,,,,,,,,,,,,,,,,,,,,,,,,,,,,,,,,,,,,,,,,,,,,,,,,,,,,,,,,,,,,,,,,,,,,,,,,,,,,,,,,,,,,0,0,0,1,1,stroop_stim/physical.xlsx,stroop_stim/prac_physical.xlsx,PHYSICALLY larger (larger font size).,images/physicallyLarger.png,,,,,,,,,,,,,,,,,,,,,,,,,,,,,,,,,,,,,,,,,,,,,,,,,,,,,,,,,,,,,,,,,,,,,,,,,,
,8485,BAC,30/12/2003,001,2023-03-30_15h48.08.286,OS3_Mult_verification,2022.2.4,Win32,59.53089654,,,,,,,,,,,,,,,,space,1.3998,,,,,,,,,,,,,,,,,,,,,,,,,,,,,,,,,,,,,,,,,,,,,,,,,,,,,right,1,0.7793,0,0,0,2,1,practice,4,9,4 | 9,5,0.06,0.06,neutral,right,,,,,,,,,,,,,,,,,,,,,,,,,,,,,,,,,,,,,,,,,,,,,,,,,,,,,,,,,,,,,,,,,,,,,,,,,,,,,,,,,,,,,,,,
,8485,BAC,30/12/2003,001,2023-03-30_15h48.08.286,OS3_Mult_verification,2022.2.4,Win32,59.53089654,,,,,,,,,,,,,,,,,,,,,,,,,,,,,,,,,,,,,,,,,,,,,,,,,,,,,,,,,,,,,,,,,,,,,,right,1,0.9347,0,1,1,1,1,practice,7,8,7 | 8,1,0.065,0.05,incongruent,right,,,,,,,,,,,,,,,,,,,,,,,,,,,,,,,,,,,,,,,,,,,,,,,,,,,,,,,,,,,,,,,,,,,,,,,,,,,,,,,,,,,,,,,,
,8485,BAC,30/12/2003,001,2023-03-30_15h48.08.286,OS3_Mult_verification,2022.2.4,Win32,59.53089654,,,,,,,,,,,,,,,,,,,,,,,,,,,,,,,,,,,,,,,,,,,,,,,,,,,,,,,,,,,,,,,,,,,,,,right,1,0.9341,0,2,2,0,1,practice,1,2,1 | 2,1,0.05,0.065,congruent,right,,,,,,,,,,,,,,,,,,,,,,,,,,,,,,,,,,,,,,,,,,,,,,,,,,,,,,,,,,,,,,,,,,,,,,,,,,,,,,,,,,,,,,,,
,8485,BAC,30/12/2003,001,2023-03-30_15h48.08.286,OS3_Mult_verification,2022.2.4,Win32,59.53089654,,,,,,,,,,,,,,,,,,,,,,,,,,,,,,,,,,,,,,,,,,,,,,,,,,,,,,,,,,,,,,,,,,,,,,right,1,0.6671,,,,,,magnitude,3,8,3 | 8,5,0.06,0.06,neutral,right,0,0,0,66,1,,,,,,,,,,,,,,,,,,,,,,,,,,,,,,,,,,,,,,,,,,,,,,,,,,,,,,,,,,,,,,,,,,,,,,,,,,,,,,,,,,,
,8485,BAC,30/12/2003,001,2023-03-30_15h48.08.286,OS3_Mult_verification,2022.2.4,Win32,59.53089654,,,,,,,,,,,,,,,,,,,,,,,,,,,,,,,,,,,,,,,,,,,,,,,,,,,,,,,,,,,,,,,,,,,,,,right,1,0.6006,,,,,,magnitude,1,3,1 | 3,2,0.05,0.065,congruent,right,0,1,1,8,1,,,,,,,,,,,,,,,,,,,,,,,,,,,,,,,,,,,,,,,,,,,,,,,,,,,,,,,,,,,,,,,,,,,,,,,,,,,,,,,,,,,
,8485,BAC,30/12/2003,001,2023-03-30_15h48.08.286,OS3_Mult_verification,2022.2.4,Win32,59.53089654,,,,,,,,,,,,,,,,,,,,,,,,,,,,,,,,,,,,,,,,,,,,,,,,,,,,,,,,,,,,,,,,,,,,,,left,1,0.8004,,,,,,magnitude,9,8,9 | 8,1,0.06,0.06,neutral,left,0,2,2,55,1,,,,,,,,,,,,,,,,,,,,,,,,,,,,,,,,,,,,,,,,,,,,,,,,,,,,,,,,,,,,,,,,,,,,,,,,,,,,,,,,,,,
,8485,BAC,30/12/2003,001,2023-03-30_15h48.08.286,OS3_Mult_verification,2022.2.4,Win32,59.53089654,,,,,,,,,,,,,,,,,,,,,,,,,,,,,,,,,,,,,,,,,,,,,,,,,,,,,,,,,,,,,,,,,,,,,,right,1,1.1587,,,,,,magnitude,6,8,6 | 8,2,0.05,0.065,congruent,right,0,3,3,10,1,,,,,,,,,,,,,,,,,,,,,,,,,,,,,,,,,,,,,,,,,,,,,,,,,,,,,,,,,,,,,,,,,,,,,,,,,,,,,,,,,,,
,8485,BAC,30/12/2003,001,2023-03-30_15h48.08.286,OS3_Mult_verification,2022.2.4,Win32,59.53089654,,,,,,,,,,,,,,,,,,,,,,,,,,,,,,,,,,,,,,,,,,,,,,,,,,,,,,,,,,,,,,,,,,,,,,right,1,0.9845,,,,,,magnitude,6,7,6 | 7,1,0.06,0.06,neutral,right,0,4,4,50,1,,,,,,,,,,,,,,,,,,,,,,,,,,,,,,,,,,,,,,,,,,,,,,,,,,,,,,,,,,,,,,,,,,,,,,,,,,,,,,,,,,,
,8485,BAC,30/12/2003,001,2023-03-30_15h48.08.286,OS3_Mult_verification,2022.2.4,Win32,59.53089654,,,,,,,,,,,,,,,,,,,,,,,,,,,,,,,,,,,,,,,,,,,,,,,,,,,,,,,,,,,,,,,,,,,,,,right,1,0.8581,,,,,,magnitude,8,9,8 | 9,1,0.065,0.05,incongruent,right,0,5,5,27,1,,,,,,,,,,,,,,,,,,,,,,,,,,,,,,,,,,,,,,,,,,,,,,,,,,,,,,,,,,,,,,,,,,,,,,,,,,,,,,,,,,,
,8485,BAC,30/12/2003,001,2023-03-30_15h48.08.286,OS3_Mult_verification,2022.2.4,Win32,59.53089654,,,,,,,,,,,,,,,,,,,,,,,,,,,,,,,,,,,,,,,,,,,,,,,,,,,,,,,,,,,,,,,,,,,,,,left,1,0.6175,,,,,,magnitude,3,1,3 | 1,2,0.06,0.06,neutral,left,0,6,6,60,1,,,,,,,,,,,,,,,,,,,,,,,,,,,,,,,,,,,,,,,,,,,,,,,,,,,,,,,,,,,,,,,,,,,,,,,,,,,,,,,,,,,
,8485,BAC,30/12/2003,001,2023-03-30_15h48.08.286,OS3_Mult_verification,2022.2.4,Win32,59.53089654,,,,,,,,,,,,,,,,,,,,,,,,,,,,,,,,,,,,,,,,,,,,,,,,,,,,,,,,,,,,,,,,,,,,,,left,1,0.7489,,,,,,magnitude,7,2,7 | 2,5,0.065,0.05,congruent,left,0,7,7,21,1,,,,,,,,,,,,,,,,,,,,,,,,,,,,,,,,,,,,,,,,,,,,,,,,,,,,,,,,,,,,,,,,,,,,,,,,,,,,,,,,,,,
,8485,BAC,30/12/2003,001,2023-03-30_15h48.08.286,OS3_Mult_verification,2022.2.4,Win32,59.53089654,,,,,,,,,,,,,,,,,,,,,,,,,,,,,,,,,,,,,,,,,,,,,,,,,,,,,,,,,,,,,,,,,,,,,,left,1,0.5827,,,,,,magnitude,6,1,6 | 1,5,0.065,0.05,congruent,left,0,8,8,20,1,,,,,,,,,,,,,,,,,,,,,,,,,,,,,,,,,,,,,,,,,,,,,,,,,,,,,,,,,,,,,,,,,,,,,,,,,,,,,,,,,,,
,8485,BAC,30/12/2003,001,2023-03-30_15h48.08.286,OS3_Mult_verification,2022.2.4,Win32,59.53089654,,,,,,,,,,,,,,,,,,,,,,,,,,,,,,,,,,,,,,,,,,,,,,,,,,,,,,,,,,,,,,,,,,,,,,right,1,0.5844,,,,,,magnitude,6,7,6 | 7,1,0.05,0.065,congruent,right,0,9,9,2,1,,,,,,,,,,,,,,,,,,,,,,,,,,,,,,,,,,,,,,,,,,,,,,,,,,,,,,,,,,,,,,,,,,,,,,,,,,,,,,,,,,,
,8485,BAC,30/12/2003,001,2023-03-30_15h48.08.286,OS3_Mult_verification,2022.2.4,Win32,59.53089654,,,,,,,,,,,,,,,,,,,,,,,,,,,,,,,,,,,,,,,,,,,,,,,,,,,,,,,,,,,,,,,,,,,,,,left,1,0.6013,,,,,,magnitude,7,2,7 | 2,5,0.06,0.06,neutral,left,0,10,10,69,1,,,,,,,,,,,,,,,,,,,,,,,,,,,,,,,,,,,,,,,,,,,,,,,,,,,,,,,,,,,,,,,,,,,,,,,,,,,,,,,,,,,
,8485,BAC,30/12/2003,001,2023-03-30_15h48.08.286,OS3_Mult_verification,2022.2.4,Win32,59.53089654,,,,,,,,,,,,,,,,,,,,,,,,,,,,,,,,,,,,,,,,,,,,,,,,,,,,,,,,,,,,,,,,,,,,,,left,1,0.7364,,,,,,magnitude,9,4,9 | 4,5,0.05,0.065,incongruent,left,0,11,11,47,1,,,,,,,,,,,,,,,,,,,,,,,,,,,,,,,,,,,,,,,,,,,,,,,,,,,,,,,,,,,,,,,,,,,,,,,,,,,,,,,,,,,
,8485,BAC,30/12/2003,001,2023-03-30_15h48.08.286,OS3_Mult_verification,2022.2.4,Win32,59.53089654,,,,,,,,,,,,,,,,,,,,,,,,,,,,,,,,,,,,,,,,,,,,,,,,,,,,,,,,,,,,,,,,,,,,,,right,1,0.9166,,,,,,magnitude,7,9,7 | 9,2,0.05,0.065,congruent,right,0,12,12,11,1,,,,,,,,,,,,,,,,,,,,,,,,,,,,,,,,,,,,,,,,,,,,,,,,,,,,,,,,,,,,,,,,,,,,,,,,,,,,,,,,,,,
,8485,BAC,30/12/2003,001,2023-03-30_15h48.08.286,OS3_Mult_verification,2022.2.4,Win32,59.53089654,,,,,,,,,,,,,,,,,,,,,,,,,,,,,,,,,,,,,,,,,,,,,,,,,,,,,,,,,,,,,,,,,,,,,,left,1,0.768,,,,,,magnitude,3,1,3 | 1,2,0.065,0.05,congruent,left,0,13,13,12,1,,,,,,,,,,,,,,,,,,,,,,,,,,,,,,,,,,,,,,,,,,,,,,,,,,,,,,,,,,,,,,,,,,,,,,,,,,,,,,,,,,,
,8485,BAC,30/12/2003,001,2023-03-30_15h48.08.286,OS3_Mult_verification,2022.2.4,Win32,59.53089654,,,,,,,,,,,,,,,,,,,,,,,,,,,,,,,,,,,,,,,,,,,,,,,,,,,,,,,,,,,,,,,,,,,,,,left,1,0.7341,,,,,,magnitude,2,1,2 | 1,1,0.06,0.06,neutral,left,0,14,14,52,1,,,,,,,,,,,,,,,,,,,,,,,,,,,,,,,,,,,,,,,,,,,,,,,,,,,,,,,,,,,,,,,,,,,,,,,,,,,,,,,,,,,
,8485,BAC,30/12/2003,001,2023-03-30_15h48.08.286,OS3_Mult_verification,2022.2.4,Win32,59.53089654,,,,,,,,,,,,,,,,,,,,,,,,,,,,,,,,,,,,,,,,,,,,,,,,,,,,,,,,,,,,,,,,,,,,,,left,0,0.4869,,,,,,magnitude,2,7,2 | 7,5,0.065,0.05,incongruent,right,0,15,15,41,1,,,,,,,,,,,,,,,,,,,,,,,,,,,,,,,,,,,,,,,,,,,,,,,,,,,,,,,,,,,,,,,,,,,,,,,,,,,,,,,,,,,
,8485,BAC,30/12/2003,001,2023-03-30_15h48.08.286,OS3_Mult_verification,2022.2.4,Win32,59.53089654,,,,,,,,,,,,,,,,,,,,,,,,,,,,,,,,,,,,,,,,,,,,,,,,,,,,,,,,,,,,,,,,,,,,,,right,1,2.3006,,,,,,magnitude,7,9,7 | 9,2,0.06,0.06,neutral,right,0,16,16,59,1,,,,,,,,,,,,,,,,,,,,,,,,,,,,,,,,,,,,,,,,,,,,,,,,,,,,,,,,,,,,,,,,,,,,,,,,,,,,,,,,,,,
,8485,BAC,30/12/2003,001,2023-03-30_15h48.08.286,OS3_Mult_verification,2022.2.4,Win32,59.53089654,,,,,,,,,,,,,,,,,,,,,,,,,,,,,,,,,,,,,,,,,,,,,,,,,,,,,,,,,,,,,,,,,,,,,,left,1,0.8503,,,,,,magnitude,8,6,8 | 6,2,0.05,0.065,incongruent,left,0,17,17,38,1,,,,,,,,,,,,,,,,,,,,,,,,,,,,,,,,,,,,,,,,,,,,,,,,,,,,,,,,,,,,,,,,,,,,,,,,,,,,,,,,,,,
,8485,BAC,30/12/2003,001,2023-03-30_15h48.08.286,OS3_Mult_verification,2022.2.4,Win32,59.53089654,,,,,,,,,,,,,,,,,,,,,,,,,,,,,,,,,,,,,,,,,,,,,,,,,,,,,,,,,,,,,,,,,,,,,,right,1,0.988,,,,,,magnitude,1,2,1 | 2,1,0.065,0.05,incongruent,right,0,18,18,24,1,,,,,,,,,,,,,,,,,,,,,,,,,,,,,,,,,,,,,,,,,,,,,,,,,,,,,,,,,,,,,,,,,,,,,,,,,,,,,,,,,,,
,8485,BAC,30/12/2003,001,2023-03-30_15h48.08.286,OS3_Mult_verification,2022.2.4,Win32,59.53089654,,,,,,,,,,,,,,,,,,,,,,,,,,,,,,,,,,,,,,,,,,,,,,,,,,,,,,,,,,,,,,,,,,,,,,left,1,1.1698,,,,,,magnitude,7,6,7 | 6,1,0.065,0.05,congruent,left,0,19,19,6,1,,,,,,,,,,,,,,,,,,,,,,,,,,,,,,,,,,,,,,,,,,,,,,,,,,,,,,,,,,,,,,,,,,,,,,,,,,,,,,,,,,,
,8485,BAC,30/12/2003,001,2023-03-30_15h48.08.286,OS3_Mult_verification,2022.2.4,Win32,59.53089654,,,,,,,,,,,,,,,,,,,,,,,,,,,,,,,,,,,,,,,,,,,,,,,,,,,,,,,,,,,,,,,,,,,,,,right,1,0.8235,,,,,,magnitude,4,9,4 | 9,5,0.065,0.05,incongruent,right,0,20,20,43,1,,,,,,,,,,,,,,,,,,,,,,,,,,,,,,,,,,,,,,,,,,,,,,,,,,,,,,,,,,,,,,,,,,,,,,,,,,,,,,,,,,,
,8485,BAC,30/12/2003,001,2023-03-30_15h48.08.286,OS3_Mult_verification,2022.2.4,Win32,59.53089654,,,,,,,,,,,,,,,,,,,,,,,,,,,,,,,,,,,,,,,,,,,,,,,,,,,,,,,,,,,,,,,,,,,,,,right,1,1.0492,,,,,,magnitude,6,8,6 | 8,2,0.065,0.05,incongruent,right,0,21,21,34,1,,,,,,,,,,,,,,,,,,,,,,,,,,,,,,,,,,,,,,,,,,,,,,,,,,,,,,,,,,,,,,,,,,,,,,,,,,,,,,,,,,,
,8485,BAC,30/12/2003,001,2023-03-30_15h48.08.286,OS3_Mult_verification,2022.2.4,Win32,59.53089654,,,,,,,,,,,,,,,,,,,,,,,,,,,,,,,,,,,,,,,,,,,,,,,,,,,,,,,,,,,,,,,,,,,,,,right,1,1.4005,,,,,,magnitude,1,6,1 | 6,5,0.065,0.05,incongruent,right,0,22,22,40,1,,,,,,,,,,,,,,,,,,,,,,,,,,,,,,,,,,,,,,,,,,,,,,,,,,,,,,,,,,,,,,,,,,,,,,,,,,,,,,,,,,,
,8485,BAC,30/12/2003,001,2023-03-30_15h48.08.286,OS3_Mult_verification,2022.2.4,Win32,59.53089654,,,,,,,,,,,,,,,,,,,,,,,,,,,,,,,,,,,,,,,,,,,,,,,,,,,,,,,,,,,,,,,,,,,,,,left,1,0.7006,,,,,,magnitude,6,1,6 | 1,5,0.06,0.06,neutral,left,0,23,23,68,1,,,,,,,,,,,,,,,,,,,,,,,,,,,,,,,,,,,,,,,,,,,,,,,,,,,,,,,,,,,,,,,,,,,,,,,,,,,,,,,,,,,
,8485,BAC,30/12/2003,001,2023-03-30_15h48.08.286,OS3_Mult_verification,2022.2.4,Win32,59.53089654,,,,,,,,,,,,,,,,,,,,,,,,,,,,,,,,,,,,,,,,,,,,,,,,,,,,,,,,,,,,,,,,,,,,,,right,1,0.8506,,,,,,magnitude,2,4,2 | 4,2,0.05,0.065,congruent,right,0,24,24,9,1,,,,,,,,,,,,,,,,,,,,,,,,,,,,,,,,,,,,,,,,,,,,,,,,,,,,,,,,,,,,,,,,,,,,,,,,,,,,,,,,,,,
,8485,BAC,30/12/2003,001,2023-03-30_15h48.08.286,OS3_Mult_verification,2022.2.4,Win32,59.53089654,,,,,,,,,,,,,,,,,,,,,,,,,,,,,,,,,,,,,,,,,,,,,,,,,,,,,,,,,,,,,,,,,,,,,,left,1,0.5531,,,,,,magnitude,9,7,9 | 7,2,0.065,0.05,congruent,left,0,25,25,15,1,,,,,,,,,,,,,,,,,,,,,,,,,,,,,,,,,,,,,,,,,,,,,,,,,,,,,,,,,,,,,,,,,,,,,,,,,,,,,,,,,,,
,8485,BAC,30/12/2003,001,2023-03-30_15h48.08.286,OS3_Mult_verification,2022.2.4,Win32,59.53089654,,,,,,,,,,,,,,,,,,,,,,,,,,,,,,,,,,,,,,,,,,,,,,,,,,,,,,,,,,,,,,,,,,,,,,right,1,0.783,,,,,,magnitude,2,4,2 | 4,2,0.065,0.05,incongruent,right,0,26,26,33,1,,,,,,,,,,,,,,,,,,,,,,,,,,,,,,,,,,,,,,,,,,,,,,,,,,,,,,,,,,,,,,,,,,,,,,,,,,,,,,,,,,,
,8485,BAC,30/12/2003,001,2023-03-30_15h48.08.286,OS3_Mult_verification,2022.2.4,Win32,59.53089654,,,,,,,,,,,,,,,,,,,,,,,,,,,,,,,,,,,,,,,,,,,,,,,,,,,,,,,,,,,,,,,,,,,,,,right,1,0.6174,,,,,,magnitude,1,6,1 | 6,5,0.05,0.065,congruent,right,0,27,27,16,1,,,,,,,,,,,,,,,,,,,,,,,,,,,,,,,,,,,,,,,,,,,,,,,,,,,,,,,,,,,,,,,,,,,,,,,,,,,,,,,,,,,
,8485,BAC,30/12/2003,001,2023-03-30_15h48.08.286,OS3_Mult_verification,2022.2.4,Win32,59.53089654,,,,,,,,,,,,,,,,,,,,,,,,,,,,,,,,,,,,,,,,,,,,,,,,,,,,,,,,,,,,,,,,,,,,,,left,1,0.9229,,,,,,magnitude,2,1,2 | 1,1,0.065,0.05,congruent,left,0,28,28,4,1,,,,,,,,,,,,,,,,,,,,,,,,,,,,,,,,,,,,,,,,,,,,,,,,,,,,,,,,,,,,,,,,,,,,,,,,,,,,,,,,,,,
,8485,BAC,30/12/2003,001,2023-03-30_15h48.08.286,OS3_Mult_verification,2022.2.4,Win32,59.53089654,,,,,,,,,,,,,,,,,,,,,,,,,,,,,,,,,,,,,,,,,,,,,,,,,,,,,,,,,,,,,,,,,,,,,,left,1,0.706,,,,,,magnitude,3,1,3 | 1,2,0.05,0.065,incongruent,left,0,29,29,36,1,,,,,,,,,,,,,,,,,,,,,,,,,,,,,,,,,,,,,,,,,,,,,,,,,,,,,,,,,,,,,,,,,,,,,,,,,,,,,,,,,,,
,8485,BAC,30/12/2003,001,2023-03-30_15h48.08.286,OS3_Mult_verification,2022.2.4,Win32,59.53089654,,,,,,,,,,,,,,,,,,,,,,,,,,,,,,,,,,,,,,,,,,,,,,,,,,,,,,,,,,,,,,,,,,,,,,left,1,0.8841,,,,,,magnitude,7,6,7 | 6,1,0.05,0.065,incongruent,left,0,30,30,30,1,,,,,,,,,,,,,,,,,,,,,,,,,,,,,,,,,,,,,,,,,,,,,,,,,,,,,,,,,,,,,,,,,,,,,,,,,,,,,,,,,,,
,8485,BAC,30/12/2003,001,2023-03-30_15h48.08.286,OS3_Mult_verification,2022.2.4,Win32,59.53089654,,,,,,,,,,,,,,,,,,,,,,,,,,,,,,,,,,,,,,,,,,,,,,,,,,,,,,,,,,,,,,,,,,,,,,right,1,0.7512,,,,,,magnitude,1,6,1 | 6,5,0.06,0.06,neutral,right,0,31,31,64,1,,,,,,,,,,,,,,,,,,,,,,,,,,,,,,,,,,,,,,,,,,,,,,,,,,,,,,,,,,,,,,,,,,,,,,,,,,,,,,,,,,,
,8485,BAC,30/12/2003,001,2023-03-30_15h48.08.286,OS3_Mult_verification,2022.2.4,Win32,59.53089654,,,,,,,,,,,,,,,,,,,,,,,,,,,,,,,,,,,,,,,,,,,,,,,,,,,,,,,,,,,,,,,,,,,,,,left,1,0.5013,,,,,,magnitude,8,3,8 | 3,5,0.065,0.05,congruent,left,0,32,32,22,1,,,,,,,,,,,,,,,,,,,,,,,,,,,,,,,,,,,,,,,,,,,,,,,,,,,,,,,,,,,,,,,,,,,,,,,,,,,,,,,,,,,
,8485,BAC,30/12/2003,001,2023-03-30_15h48.08.286,OS3_Mult_verification,2022.2.4,Win32,59.53089654,,,,,,,,,,,,,,,,,,,,,,,,,,,,,,,,,,,,,,,,,,,,,,,,,,,,,,,,,,,,,,,,,,,,,,left,1,0.8178,,,,,,magnitude,9,7,9 | 7,2,0.05,0.065,incongruent,left,0,33,33,39,1,,,,,,,,,,,,,,,,,,,,,,,,,,,,,,,,,,,,,,,,,,,,,,,,,,,,,,,,,,,,,,,,,,,,,,,,,,,,,,,,,,,
,8485,BAC,30/12/2003,001,2023-03-30_15h48.08.286,OS3_Mult_verification,2022.2.4,Win32,59.53089654,,,,,,,,,,,,,,,,,,,,,,,,,,,,,,,,,,,,,,,,,,,,,,,,,,,,,,,,,,,,,,,,,,,,,,left,1,1.1347,,,,,,magnitude,8,3,8 | 3,5,0.05,0.065,incongruent,left,0,34,34,46,1,,,,,,,,,,,,,,,,,,,,,,,,,,,,,,,,,,,,,,,,,,,,,,,,,,,,,,,,,,,,,,,,,,,,,,,,,,,,,,,,,,,
,8485,BAC,30/12/2003,001,2023-03-30_15h48.08.286,OS3_Mult_verification,2022.2.4,Win32,59.53089654,,,,,,,,,,,,,,,,,,,,,,,,,,,,,,,,,,,,,,,,,,,,,,,,,,,,,,,,,,,,,,,,,,,,,,left,1,0.8176,,,,,,magnitude,7,6,7 | 6,1,0.06,0.06,neutral,left,0,35,35,54,1,,,,,,,,,,,,,,,,,,,,,,,,,,,,,,,,,,,,,,,,,,,,,,,,,,,,,,,,,,,,,,,,,,,,,,,,,,,,,,,,,,,
,8485,BAC,30/12/2003,001,2023-03-30_15h48.08.286,OS3_Mult_verification,2022.2.4,Win32,59.53089654,,,,,,,,,,,,,,,,,,,,,,,,,,,,,,,,,,,,,,,,,,,,,,,,,,,,,,,,,,,,,,,,,,,,,,left,1,0.7681,,,,,,magnitude,4,2,4 | 2,2,0.05,0.065,incongruent,left,0,36,36,37,1,,,,,,,,,,,,,,,,,,,,,,,,,,,,,,,,,,,,,,,,,,,,,,,,,,,,,,,,,,,,,,,,,,,,,,,,,,,,,,,,,,,
,8485,BAC,30/12/2003,001,2023-03-30_15h48.08.286,OS3_Mult_verification,2022.2.4,Win32,59.53089654,,,,,,,,,,,,,,,,,,,,,,,,,,,,,,,,,,,,,,,,,,,,,,,,,,,,,,,,,,,,,,,,,,,,,,right,1,0.8014,,,,,,magnitude,2,7,2 | 7,5,0.06,0.06,neutral,right,0,37,37,65,1,,,,,,,,,,,,,,,,,,,,,,,,,,,,,,,,,,,,,,,,,,,,,,,,,,,,,,,,,,,,,,,,,,,,,,,,,,,,,,,,,,,
,8485,BAC,30/12/2003,001,2023-03-30_15h48.08.286,OS3_Mult_verification,2022.2.4,Win32,59.53089654,,,,,,,,,,,,,,,,,,,,,,,,,,,,,,,,,,,,,,,,,,,,,,,,,,,,,,,,,,,,,,,,,,,,,,left,1,1.0166,,,,,,magnitude,4,3,4 | 3,1,0.06,0.06,neutral,left,0,38,38,53,1,,,,,,,,,,,,,,,,,,,,,,,,,,,,,,,,,,,,,,,,,,,,,,,,,,,,,,,,,,,,,,,,,,,,,,,,,,,,,,,,,,,
,8485,BAC,30/12/2003,001,2023-03-30_15h48.08.286,OS3_Mult_verification,2022.2.4,Win32,59.53089654,,,,,,,,,,,,,,,,,,,,,,,,,,,,,,,,,,,,,,,,,,,,,,,,,,,,,,,,,,,,,,,,,,,,,,left,1,0.9407,,,,,,magnitude,8,6,8 | 6,2,0.06,0.06,neutral,left,0,39,39,62,1,,,,,,,,,,,,,,,,,,,,,,,,,,,,,,,,,,,,,,,,,,,,,,,,,,,,,,,,,,,,,,,,,,,,,,,,,,,,,,,,,,,
,8485,BAC,30/12/2003,001,2023-03-30_15h48.08.286,OS3_Mult_verification,2022.2.4,Win32,59.53089654,,,,,,,,,,,,,,,,,,,,,,,,,,,,,,,,,,,,,,,,,,,,,,,,,,,,,,,,,,,,,,,,,,,,,,left,1,0.563,,,,,,magnitude,4,3,4 | 3,1,0.065,0.05,congruent,left,0,40,40,5,1,,,,,,,,,,,,,,,,,,,,,,,,,,,,,,,,,,,,,,,,,,,,,,,,,,,,,,,,,,,,,,,,,,,,,,,,,,,,,,,,,,,
,8485,BAC,30/12/2003,001,2023-03-30_15h48.08.286,OS3_Mult_verification,2022.2.4,Win32,59.53089654,,,,,,,,,,,,,,,,,,,,,,,,,,,,,,,,,,,,,,,,,,,,,,,,,,,,,,,,,,,,,,,,,,,,,,left,1,0.8503,,,,,,magnitude,8,3,8 | 3,5,0.06,0.06,neutral,left,0,41,41,70,1,,,,,,,,,,,,,,,,,,,,,,,,,,,,,,,,,,,,,,,,,,,,,,,,,,,,,,,,,,,,,,,,,,,,,,,,,,,,,,,,,,,
,8485,BAC,30/12/2003,001,2023-03-30_15h48.08.286,OS3_Mult_verification,2022.2.4,Win32,59.53089654,,,,,,,,,,,,,,,,,,,,,,,,,,,,,,,,,,,,,,,,,,,,,,,,,,,,,,,,,,,,,,,,,,,,,,right,1,0.7846,,,,,,magnitude,4,9,4 | 9,5,0.06,0.06,neutral,right,0,42,42,67,1,,,,,,,,,,,,,,,,,,,,,,,,,,,,,,,,,,,,,,,,,,,,,,,,,,,,,,,,,,,,,,,,,,,,,,,,,,,,,,,,,,,
,8485,BAC,30/12/2003,001,2023-03-30_15h48.08.286,OS3_Mult_verification,2022.2.4,Win32,59.53089654,,,,,,,,,,,,,,,,,,,,,,,,,,,,,,,,,,,,,,,,,,,,,,,,,,,,,,,,,,,,,,,,,,,,,,right,1,1.0043,,,,,,magnitude,8,9,8 | 9,1,0.05,0.065,congruent,right,0,43,43,3,1,,,,,,,,,,,,,,,,,,,,,,,,,,,,,,,,,,,,,,,,,,,,,,,,,,,,,,,,,,,,,,,,,,,,,,,,,,,,,,,,,,,
,8485,BAC,30/12/2003,001,2023-03-30_15h48.08.286,OS3_Mult_verification,2022.2.4,Win32,59.53089654,,,,,,,,,,,,,,,,,,,,,,,,,,,,,,,,,,,,,,,,,,,,,,,,,,,,,,,,,,,,,,,,,,,,,,right,1,0.9342,,,,,,magnitude,3,4,3 | 4,1,0.05,0.065,congruent,right,0,44,44,1,1,,,,,,,,,,,,,,,,,,,,,,,,,,,,,,,,,,,,,,,,,,,,,,,,,,,,,,,,,,,,,,,,,,,,,,,,,,,,,,,,,,,
,8485,BAC,30/12/2003,001,2023-03-30_15h48.08.286,OS3_Mult_verification,2022.2.4,Win32,59.53089654,,,,,,,,,,,,,,,,,,,,,,,,,,,,,,,,,,,,,,,,,,,,,,,,,,,,,,,,,,,,,,,,,,,,,,right,1,0.7674,,,,,,magnitude,3,8,3 | 8,5,0.065,0.05,incongruent,right,0,45,45,42,1,,,,,,,,,,,,,,,,,,,,,,,,,,,,,,,,,,,,,,,,,,,,,,,,,,,,,,,,,,,,,,,,,,,,,,,,,,,,,,,,,,,
,8485,BAC,30/12/2003,001,2023-03-30_15h48.08.286,OS3_Mult_verification,2022.2.4,Win32,59.53089654,,,,,,,,,,,,,,,,,,,,,,,,,,,,,,,,,,,,,,,,,,,,,,,,,,,,,,,,,,,,,,,,,,,,,,right,1,1.4677,,,,,,magnitude,1,3,1 | 3,2,0.065,0.05,incongruent,right,0,46,46,32,1,,,,,,,,,,,,,,,,,,,,,,,,,,,,,,,,,,,,,,,,,,,,,,,,,,,,,,,,,,,,,,,,,,,,,,,,,,,,,,,,,,,
,8485,BAC,30/12/2003,001,2023-03-30_15h48.08.286,OS3_Mult_verification,2022.2.4,Win32,59.53089654,,,,,,,,,,,,,,,,,,,,,,,,,,,,,,,,,,,,,,,,,,,,,,,,,,,,,,,,,,,,,,,,,,,,,,right,1,1.813,,,,,,magnitude,8,9,8 | 9,1,0.06,0.06,neutral,right,0,47,47,51,1,,,,,,,,,,,,,,,,,,,,,,,,,,,,,,,,,,,,,,,,,,,,,,,,,,,,,,,,,,,,,,,,,,,,,,,,,,,,,,,,,,,
,8485,BAC,30/12/2003,001,2023-03-30_15h48.08.286,OS3_Mult_verification,2022.2.4,Win32,59.53089654,,,,,,,,,,,,,,,,,,,,,,,,,,,,,,,,,,,,,,,,,,,,,,,,,,,,,,,,,,,,,,,,,,,,,,right,1,2.4246,,,,,,magnitude,3,4,3 | 4,1,0.065,0.05,incongruent,right,0,48,48,25,1,,,,,,,,,,,,,,,,,,,,,,,,,,,,,,,,,,,,,,,,,,,,,,,,,,,,,,,,,,,,,,,,,,,,,,,,,,,,,,,,,,,
,8485,BAC,30/12/2003,001,2023-03-30_15h48.08.286,OS3_Mult_verification,2022.2.4,Win32,59.53089654,,,,,,,,,,,,,,,,,,,,,,,,,,,,,,,,,,,,,,,,,,,,,,,,,,,,,,,,,,,,,,,,,,,,,,left,1,0.6177,,,,,,magnitude,9,4,9 | 4,5,0.06,0.06,neutral,left,0,49,49,71,1,,,,,,,,,,,,,,,,,,,,,,,,,,,,,,,,,,,,,,,,,,,,,,,,,,,,,,,,,,,,,,,,,,,,,,,,,,,,,,,,,,,
,8485,BAC,30/12/2003,001,2023-03-30_15h48.08.286,OS3_Mult_verification,2022.2.4,Win32,59.53089654,,,,,,,,,,,,,,,,,,,,,,,,,,,,,,,,,,,,,,,,,,,,,,,,,,,,,,,,,,,,,,,,,,,,,,right,1,0.7461,,,,,,magnitude,7,9,7 | 9,2,0.065,0.05,incongruent,right,0,50,50,35,1,,,,,,,,,,,,,,,,,,,,,,,,,,,,,,,,,,,,,,,,,,,,,,,,,,,,,,,,,,,,,,,,,,,,,,,,,,,,,,,,,,,
,8485,BAC,30/12/2003,001,2023-03-30_15h48.08.286,OS3_Mult_verification,2022.2.4,Win32,59.53089654,,,,,,,,,,,,,,,,,,,,,,,,,,,,,,,,,,,,,,,,,,,,,,,,,,,,,,,,,,,,,,,,,,,,,,left,1,1.5997,,,,,,magnitude,2,1,2 | 1,1,0.05,0.065,incongruent,left,0,51,51,28,1,,,,,,,,,,,,,,,,,,,,,,,,,,,,,,,,,,,,,,,,,,,,,,,,,,,,,,,,,,,,,,,,,,,,,,,,,,,,,,,,,,,
,8485,BAC,30/12/2003,001,2023-03-30_15h48.08.286,OS3_Mult_verification,2022.2.4,Win32,59.53089654,,,,,,,,,,,,,,,,,,,,,,,,,,,,,,,,,,,,,,,,,,,,,,,,,,,,,,,,,,,,,,,,,,,,,,right,1,2.1339,,,,,,magnitude,1,2,1 | 2,1,0.05,0.065,congruent,right,0,52,52,0,1,,,,,,,,,,,,,,,,,,,,,,,,,,,,,,,,,,,,,,,,,,,,,,,,,,,,,,,,,,,,,,,,,,,,,,,,,,,,,,,,,,,
,8485,BAC,30/12/2003,001,2023-03-30_15h48.08.286,OS3_Mult_verification,2022.2.4,Win32,59.53089654,,,,,,,,,,,,,,,,,,,,,,,,,,,,,,,,,,,,,,,,,,,,,,,,,,,,,,,,,,,,,,,,,,,,,,right,1,2.2136,,,,,,magnitude,6,7,6 | 7,1,0.065,0.05,incongruent,right,0,53,53,26,1,,,,,,,,,,,,,,,,,,,,,,,,,,,,,,,,,,,,,,,,,,,,,,,,,,,,,,,,,,,,,,,,,,,,,,,,,,,,,,,,,,,
,8485,BAC,30/12/2003,001,2023-03-30_15h48.08.286,OS3_Mult_verification,2022.2.4,Win32,59.53089654,,,,,,,,,,,,,,,,,,,,,,,,,,,,,,,,,,,,,,,,,,,,,,,,,,,,,,,,,,,,,,,,,,,,,,right,1,1.9839,,,,,,magnitude,3,8,3 | 8,5,0.05,0.065,congruent,right,0,54,54,18,1,,,,,,,,,,,,,,,,,,,,,,,,,,,,,,,,,,,,,,,,,,,,,,,,,,,,,,,,,,,,,,,,,,,,,,,,,,,,,,,,,,,
,8485,BAC,30/12/2003,001,2023-03-30_15h48.08.286,OS3_Mult_verification,2022.2.4,Win32,59.53089654,,,,,,,,,,,,,,,,,,,,,,,,,,,,,,,,,,,,,,,,,,,,,,,,,,,,,,,,,,,,,,,,,,,,,,left,1,1.063,,,,,,magnitude,4,2,4 | 2,2,0.065,0.05,congruent,left,0,55,55,13,1,,,,,,,,,,,,,,,,,,,,,,,,,,,,,,,,,,,,,,,,,,,,,,,,,,,,,,,,,,,,,,,,,,,,,,,,,,,,,,,,,,,
,8485,BAC,30/12/2003,001,2023-03-30_15h48.08.286,OS3_Mult_verification,2022.2.4,Win32,59.53089654,,,,,,,,,,,,,,,,,,,,,,,,,,,,,,,,,,,,,,,,,,,,,,,,,,,,,,,,,,,,,,,,,,,,,,left,1,1.5173,,,,,,magnitude,4,2,4 | 2,2,0.06,0.06,neutral,left,0,56,56,61,1,,,,,,,,,,,,,,,,,,,,,,,,,,,,,,,,,,,,,,,,,,,,,,,,,,,,,,,,,,,,,,,,,,,,,,,,,,,,,,,,,,,
,8485,BAC,30/12/2003,001,2023-03-30_15h48.08.286,OS3_Mult_verification,2022.2.4,Win32,59.53089654,,,,,,,,,,,,,,,,,,,,,,,,,,,,,,,,,,,,,,,,,,,,,,,,,,,,,,,,,,,,,,,,,,,,,,right,1,3.1345,,,,,,magnitude,1,3,1 | 3,2,0.06,0.06,neutral,right,0,57,57,56,1,,,,,,,,,,,,,,,,,,,,,,,,,,,,,,,,,,,,,,,,,,,,,,,,,,,,,,,,,,,,,,,,,,,,,,,,,,,,,,,,,,,
,8485,BAC,30/12/2003,001,2023-03-30_15h48.08.286,OS3_Mult_verification,2022.2.4,Win32,59.53089654,,,,,,,,,,,,,,,,,,,,,,,,,,,,,,,,,,,,,,,,,,,,,,,,,,,,,,,,,,,,,,,,,,,,,,left,1,0.7046,,,,,,magnitude,6,1,6 | 1,5,0.05,0.065,incongruent,left,0,58,58,44,1,,,,,,,,,,,,,,,,,,,,,,,,,,,,,,,,,,,,,,,,,,,,,,,,,,,,,,,,,,,,,,,,,,,,,,,,,,,,,,,,,,,
,8485,BAC,30/12/2003,001,2023-03-30_15h48.08.286,OS3_Mult_verification,2022.2.4,Win32,59.53089654,,,,,,,,,,,,,,,,,,,,,,,,,,,,,,,,,,,,,,,,,,,,,,,,,,,,,,,,,,,,,,,,,,,,,,left,1,1.3687,,,,,,magnitude,8,6,8 | 6,2,0.065,0.05,congruent,left,0,59,59,14,1,,,,,,,,,,,,,,,,,,,,,,,,,,,,,,,,,,,,,,,,,,,,,,,,,,,,,,,,,,,,,,,,,,,,,,,,,,,,,,,,,,,
,8485,BAC,30/12/2003,001,2023-03-30_15h48.08.286,OS3_Mult_verification,2022.2.4,Win32,59.53089654,,,,,,,,,,,,,,,,,,,,,,,,,,,,,,,,,,,,,,,,,,,,,,,,,,,,,,,,,,,,,,,,,,,,,,right,1,0.5694,,,,,,magnitude,1,2,1 | 2,1,0.06,0.06,neutral,right,0,60,60,48,1,,,,,,,,,,,,,,,,,,,,,,,,,,,,,,,,,,,,,,,,,,,,,,,,,,,,,,,,,,,,,,,,,,,,,,,,,,,,,,,,,,,
,8485,BAC,30/12/2003,001,2023-03-30_15h48.08.286,OS3_Mult_verification,2022.2.4,Win32,59.53089654,,,,,,,,,,,,,,,,,,,,,,,,,,,,,,,,,,,,,,,,,,,,,,,,,,,,,,,,,,,,,,,,,,,,,,right,1,1.5503,,,,,,magnitude,3,4,3 | 4,1,0.06,0.06,neutral,right,0,61,61,49,1,,,,,,,,,,,,,,,,,,,,,,,,,,,,,,,,,,,,,,,,,,,,,,,,,,,,,,,,,,,,,,,,,,,,,,,,,,,,,,,,,,,
,8485,BAC,30/12/2003,001,2023-03-30_15h48.08.286,OS3_Mult_verification,2022.2.4,Win32,59.53089654,,,,,,,,,,,,,,,,,,,,,,,,,,,,,,,,,,,,,,,,,,,,,,,,,,,,,,,,,,,,,,,,,,,,,,right,1,0.6689,,,,,,magnitude,4,9,4 | 9,5,0.05,0.065,congruent,right,0,62,62,19,1,,,,,,,,,,,,,,,,,,,,,,,,,,,,,,,,,,,,,,,,,,,,,,,,,,,,,,,,,,,,,,,,,,,,,,,,,,,,,,,,,,,
,8485,BAC,30/12/2003,001,2023-03-30_15h48.08.286,OS3_Mult_verification,2022.2.4,Win32,59.53089654,,,,,,,,,,,,,,,,,,,,,,,,,,,,,,,,,,,,,,,,,,,,,,,,,,,,,,,,,,,,,,,,,,,,,,left,1,0.5498,,,,,,magnitude,9,4,9 | 4,5,0.065,0.05,congruent,left,0,63,63,23,1,,,,,,,,,,,,,,,,,,,,,,,,,,,,,,,,,,,,,,,,,,,,,,,,,,,,,,,,,,,,,,,,,,,,,,,,,,,,,,,,,,,
,8485,BAC,30/12/2003,001,2023-03-30_15h48.08.286,OS3_Mult_verification,2022.2.4,Win32,59.53089654,,,,,,,,,,,,,,,,,,,,,,,,,,,,,,,,,,,,,,,,,,,,,,,,,,,,,,,,,,,,,,,,,,,,,,right,1,2.967,,,,,,magnitude,2,7,2 | 7,5,0.05,0.065,congruent,right,0,64,64,17,1,,,,,,,,,,,,,,,,,,,,,,,,,,,,,,,,,,,,,,,,,,,,,,,,,,,,,,,,,,,,,,,,,,,,,,,,,,,,,,,,,,,
,8485,BAC,30/12/2003,001,2023-03-30_15h48.08.286,OS3_Mult_verification,2022.2.4,Win32,59.53089654,,,,,,,,,,,,,,,,,,,,,,,,,,,,,,,,,,,,,,,,,,,,,,,,,,,,,,,,,,,,,,,,,,,,,,left,1,0.5339,,,,,,magnitude,7,2,7 | 2,5,0.05,0.065,incongruent,left,0,65,65,45,1,,,,,,,,,,,,,,,,,,,,,,,,,,,,,,,,,,,,,,,,,,,,,,,,,,,,,,,,,,,,,,,,,,,,,,,,,,,,,,,,,,,
,8485,BAC,30/12/2003,001,2023-03-30_15h48.08.286,OS3_Mult_verification,2022.2.4,Win32,59.53089654,,,,,,,,,,,,,,,,,,,,,,,,,,,,,,,,,,,,,,,,,,,,,,,,,,,,,,,,,,,,,,,,,,,,,,left,1,0.8015,,,,,,magnitude,9,8,9 | 8,1,0.065,0.05,congruent,left,0,66,66,7,1,,,,,,,,,,,,,,,,,,,,,,,,,,,,,,,,,,,,,,,,,,,,,,,,,,,,,,,,,,,,,,,,,,,,,,,,,,,,,,,,,,,
,8485,BAC,30/12/2003,001,2023-03-30_15h48.08.286,OS3_Mult_verification,2022.2.4,Win32,59.53089654,,,,,,,,,,,,,,,,,,,,,,,,,,,,,,,,,,,,,,,,,,,,,,,,,,,,,,,,,,,,,,,,,,,,,,left,1,2.8961,,,,,,magnitude,9,7,9 | 7,2,0.06,0.06,neutral,left,0,67,67,63,1,,,,,,,,,,,,,,,,,,,,,,,,,,,,,,,,,,,,,,,,,,,,,,,,,,,,,,,,,,,,,,,,,,,,,,,,,,,,,,,,,,,
,8485,BAC,30/12/2003,001,2023-03-30_15h48.08.286,OS3_Mult_verification,2022.2.4,Win32,59.53089654,,,,,,,,,,,,,,,,,,,,,,,,,,,,,,,,,,,,,,,,,,,,,,,,,,,,,,,,,,,,,,,,,,,,,,right,1,0.7183,,,,,,magnitude,2,4,2 | 4,2,0.06,0.06,neutral,right,0,68,68,57,1,,,,,,,,,,,,,,,,,,,,,,,,,,,,,,,,,,,,,,,,,,,,,,,,,,,,,,,,,,,,,,,,,,,,,,,,,,,,,,,,,,,
,8485,BAC,30/12/2003,001,2023-03-30_15h48.08.286,OS3_Mult_verification,2022.2.4,Win32,59.53089654,,,,,,,,,,,,,,,,,,,,,,,,,,,,,,,,,,,,,,,,,,,,,,,,,,,,,,,,,,,,,,,,,,,,,,left,1,0.7347,,,,,,magnitude,4,3,4 | 3,1,0.05,0.065,incongruent,left,0,69,69,29,1,,,,,,,,,,,,,,,,,,,,,,,,,,,,,,,,,,,,,,,,,,,,,,,,,,,,,,,,,,,,,,,,,,,,,,,,,,,,,,,,,,,
,8485,BAC,30/12/2003,001,2023-03-30_15h48.08.286,OS3_Mult_verification,2022.2.4,Win32,59.53089654,,,,,,,,,,,,,,,,,,,,,,,,,,,,,,,,,,,,,,,,,,,,,,,,,,,,,,,,,,,,,,,,,,,,,,right,1,1.4515,,,,,,magnitude,6,8,6 | 8,2,0.06,0.06,neutral,right,0,70,70,58,1,,,,,,,,,,,,,,,,,,,,,,,,,,,,,,,,,,,,,,,,,,,,,,,,,,,,,,,,,,,,,,,,,,,,,,,,,,,,,,,,,,,
,8485,BAC,30/12/2003,001,2023-03-30_15h48.08.286,OS3_Mult_verification,2022.2.4,Win32,59.53089654,,,,,,,,,,,,,,,,,,,,,,,,,,,,,,,,,,,,,,,,,,,,,,,,,,,,,,,,,,,,,,,,,,,,,,left,1,0.8843,,,,,,magnitude,9,8,9 | 8,1,0.05,0.065,incongruent,left,0,71,71,31,1,,,,,,,,,,,,,,,,,,,,,,,,,,,,,,,,,,,,,,,,,,,,,,,,,,,,,,,,,,,,,,,,,,,,,,,,,,,,,,,,,,,
,8485,BAC,30/12/2003,001,2023-03-30_15h48.08.286,OS3_Mult_verification,2022.2.4,Win32,59.53089654,,,,,,,,,,,,,,,,,,,,,,,,,,,,,,,,,,,,,,,,,,,,,,,,,,,,,,,,,,,,,,,,,,,,,,,,,,,,,,,,,,,,,,,,,,,,0,1,1,0,1,stroop_stim/magnitude.xlsx,stroop_stim/prac_magnitude.xlsx,NUMERICALLY larger (larger coefficient).,images/numericallyLarger.png,,,,,,,,,,,,,,,,,,,,,,,,,,,,,,,,,,,,,,,,,,,,,,,,,,,,,,,,,,,,,,,,,,,,,,,,,,
,8485,BAC,30/12/2003,001,2023-03-30_15h48.08.286,OS3_Mult_verification,2022.2.4,Win32,59.53089654,,,,,,,,,,,,,,,,,,,,,,,,,,,,,,,,,,,,,,,,,,,,,,,,,,,,,,,,,,,,,,,,,,,,,,,,,,,,,,,,,,,,,,,,,,,,,,,,,,,,,0,0,0,0,1,,,,,,,,,,,,,,,,,,,,,,,,,,,,,,,,,,,,,,,,,,,,,,,,,,,,,,,,,,,,,,,,,,,,,
,8485,BAC,30/12/2003,001,2023-03-30_15h48.08.286,OS3_Mult_verification,2022.2.4,Win32,59.53089654,,,,,,,,,,,,,,,,,,,,,,,,,,,,,,,,,,,,,,,,,,,,,,,,,,,,,,,,,,,,,,0,1,1,1,1,1,0,0,,,,,,,,,,,,,,,,,,,,,,,,,,,,,,,,,,,,,,,,,,,,,,,,,,,,,,,,,,,,,,,,,,,,,,,,,,,,,,,,,,,,,,,,,,,,,,,,,,,,,,,,,
,8485,BAC,30/12/2003,001,2023-03-30_15h48.08.286,OS3_Mult_verification,2022.2.4,Win32,59.53089654,,,,,,,,,,,,,,,,space,2.8166,,,,,,,,,,,,,,,,,,,,,,,,,,,,,,,,,,,,,,,,,,,,,,,,,,,,,,,,,,,,,,,,,,,,,,,,,,,,,,,,,,,,,,,,,space,7.997,321,3.2325,1,"[""3"",""2"",""1"",""return""]","[0.849200000047631,1.1797999999523654,1.4345999999046626,3.2007999999523236]",0,0,0,1,1,3,321,Audio/321.mp3,practice,,,,,,,,,,,,,,,,,,,,,,,,,,,,,,,,,,,,,,,,,,,,,,,,,,,,,
,8485,BAC,30/12/2003,001,2023-03-30_15h48.08.286,OS3_Mult_verification,2022.2.4,Win32,59.53089654,,,,,,,,,,,,,,,,,,,,,,,,,,,,,,,,,,,,,,,,,,,,,,,,,,,,,,,,,,,,,,,,,,,,,,,,,,,,,,,,,,,,,,,,,,,,,,,,,,,,,,,,,,,,123,2.0066,1,"[""1"",""2"",""3"",""return""]","[0.3504000000954193,0.6500999999046826,0.9324000000954129,1.9564000000954138]",0,1,1,0,1,3,123,Audio/123.mp3,practice,,,,,,,,,,,,,,,,,,,,,,,,,,,,,,,,,,,,,,,,,,,,,,,,,,,,,
,8485,BAC,30/12/2003,001,2023-03-30_15h48.08.286,OS3_Mult_verification,2022.2.4,Win32,59.53089654,,,,,,,,,,,,,,,,,,,,,,,,,,,,,,,,,,,,,,,,,,,,,,,,,,,,,,,,,,,,,,,,,,,,,,,,,,,,,,,,,,,,,,,,,,,,,,,,,,,,,,,,,,,,911,1.7565,1,"[""9"",""1"",""1"",""return""]","[0.4337999999523845,0.8295000000000528,1.1737000000476883,1.716900000095393]",0,2,2,2,1,3,911,Audio/911.mp3,practice,,,,,,,,,,,,,,,,,,,,,,,,,,,,,,,,,,,,,,,,,,,,,,,,,,,,,
,8485,BAC,30/12/2003,001,2023-03-30_15h48.08.286,OS3_Mult_verification,2022.2.4,Win32,59.53089654,,,,,,,,,,,,,,,,,,,,,,,,,,,,,,,,,,,,,,,,,,,,,,,,,,,,,,,,,,,,,,,,,,,,,,,,,,,,,,,,,,,,,,,,,,,,,,,,,,,,,,,,,,,,97,1.466,1,"[""9"",""7"",""return""]","[0.8341999998092433,0.9512999999523117,1.433399999856988]",,,,,,2,97,Audio/97.mp3,WAIS,0,0,0,0,1,,,,,,,,,,,,,,,,,,,,,,,,,,,,,,,,,,,,,,,,,,,,,,,,
,8485,BAC,30/12/2003,001,2023-03-30_15h48.08.286,OS3_Mult_verification,2022.2.4,Win32,59.53089654,,,,,,,,,,,,,,,,,,,,,,,,,,,,,,,,,,,,,,,,,,,,,,,,,,,,,,,,,,,,,,,,,,,,,,,,,,,,,,,,,,,,,,,,,,,,,,,,,,,,,,,,,,,,63,1.3844,1,"[""6"",""3"",""return""]","[0.4834000000953438,0.9172999999523199,1.3409000000953029]",,,,,,2,63,Audio/63.mp3,WAIS,0,1,1,1,1,,,,,,,,,,,,,,,,,,,,,,,,,,,,,,,,,,,,,,,,,,,,,,,,
