windowSize,participant,group,DOB (DD/MM/YEAR),session,date,expName,psychopyVersion,OS,frameRate,typing_instr_resp.keys,typing_instr_resp.rt,typing_response,typing_rt,typing_score,typingSpeed_input_resp.keys,typingSpeed_input_resp.rt,typing_speed_trials.thisRepN,typing_speed_trials.thisTrialN,typing_speed_trials.thisN,typing_speed_trials.thisIndex,typing_speed_trials.ran,typing_speed_stim,typing_report_resp.keys,typing_report_resp.rt,vpt_trial_resp1.keys,vpt_trial_resp1.rt,typedResponse,fluency_rt,fluency_score,fluencyInputResp.keys,fluencyInputResp.rt,fluencyPracLoop.thisRepN,fluencyPracLoop.thisTrialN,fluencyPracLoop.thisN,fluencyPracLoop.thisIndex,fluencyPracLoop.ran,problem,answers,fluencyLoop.thisRepN,fluencyLoop.thisTrialN,fluencyLoop.thisN,fluencyLoop.thisIndex,fluencyLoop.ran,vptCorrect,vpt_rt,respMouse.x,respMouse.y,respMouse.leftButton,respMouse.midButton,respMouse.rightButton,vptPracticeLoop.thisRepN,vptPracticeLoop.thisTrialN,vptPracticeLoop.thisN,vptPracticeLoop.thisIndex,vptPracticeLoop.ran,trialType,tiles,rows,cols,vptTrialLoop.thisRepN,vptTrialLoop.thisTrialN,vptTrialLoop.thisN,vptTrialLoop.thisIndex,vptTrialLoop.ran,noOfBlocks,TASK_B.thisRepN,TASK_B.thisTrialN,TASK_B.thisN,TASK_B.thisIndex,TASK_B.ran,controlTaskOrder.thisRepN,controlTaskOrder.thisTrialN,controlTaskOrder.thisN,controlTaskOrder.thisIndex,controlTaskOrder.ran,nRepsTask1,nRepsTask2,nRepsTask3,stroopResp.keys,stroopResp.corr,stroopResp.rt,stroopPracLoop.thisRepN,stroopPracLoop.thisTrialN,stroopPracLoop.thisN,stroopPracLoop.thisIndex,stroopPracLoop.ran,stroopCond,leftNo,rightNo,displayProblem,numDistance,leftNo_size,rightNo_size,Dims,keyAnswer,stroopLoop.thisRepN,stroopLoop.thisTrialN,stroopLoop.thisN,stroopLoop.thisIndex,stroopLoop.ran,stroopBlocks.thisRepN,stroopBlocks.thisTrialN,stroopBlocks.thisN,stroopBlocks.thisIndex,stroopBlocks.ran,stroop_condition,stroop_pracFile,ActionInst,instrImage,TASK_A.thisRepN,TASK_A.thisTrialN,TASK_A.thisN,TASK_A.thisIndex,TASK_A.ran,sampleAudio_resp.keys,sampleAudio_resp.rt,subjResponse,audio_rt,DS_score,inputResp.keys,inputResp.rt,audioPracticeLoop.thisRepN,audioPracticeLoop.thisTrialN,audioPracticeLoop.thisN,audioPracticeLoop.thisIndex,audioPracticeLoop.ran,digitSpan,digits_audioStim,soundsFile,typeDS,audioTrials_Loop.thisRepN,audioTrials_Loop.thisTrialN,audioTrials_Loop.thisN,audioTrials_Loop.thisIndex,audioTrials_Loop.ran,audioBlocks_loop.thisRepN,audioBlocks_loop.thisTrialN,audioBlocks_loop.thisN,audioBlocks_loop.thisIndex,audioBlocks_loop.ran,ConditionFile,digitSpanTask_loop.thisRepN,digitSpanTask_loop.thisTrialN,digitSpanTask_loop.thisN,digitSpanTask_loop.thisIndex,digitSpanTask_loop.ran,dsFile,TASK_C.thisRepN,TASK_C.thisTrialN,TASK_C.thisN,TASK_C.thisIndex,TASK_C.ran,veriStim_resp.keys,veriStim_resp.corr,veriStim_resp.rt,verificationPracLoop.thisRepN,verificationPracLoop.thisTrialN,verificationPracLoop.thisN,verificationPracLoop.thisIndex,verificationPracLoop.ran,mult_problem,mult_answer,mult_type,error_distance,interferenceScore,problemType,interferenceLevel,problemSize,img_leftButton,img_rightButton,veriLoop.thisRepN,veriLoop.thisTrialN,veriLoop.thisN,veriLoop.thisIndex,veriLoop.ran,veriBlock.thisRepN,veriBlock.thisTrialN,veriBlock.thisN,veriBlock.thisIndex,veriBlock.ran,verificationFiles,end_resp.keys,end_resp.rt
"[2048,1010]",8509,BAC,05/05/2005,001,2023-03-21_17h08.34.399,OS3_Mult_verification,2022.2.4,Win32,60.80505898,,,,,,,,,,,,,,,,,,,,,,,,,,,,,,,,,,,,,,,,,,,,,,,,,,,,,,,,,,,,,,,,,,,,,,,,,,,,,,,,,,,,,,,,,,,,,,,,,,,,,,,,,,,,,,,,,,,,,,,,,,,,,,,,,,,,,,,,,,,,,,,,,,,,,,,,,,,,,,,,,,,,,,,,,,,,,,
,8509,BAC,05/05/2005,001,2023-03-21_17h08.34.399,OS3_Mult_verification,2022.2.4,Win32,60.80505898,,,,,,,,,,,,,,,,,,,,,,,,,,,,,,,,,,,,,,,,,,,,,,,,,,,,,,,,,,,,,,,,,,,,,,,,,,,,,,,,,,,,,,,,,,,,,,,,,,,,,,,,,,,,,,,,,,,,,,,,,,,,,,,,,,,,,,,,,,,,,,,,,,,,,,,,,,,,,,,,,,,,,,,,,,,,,,
,8509,BAC,05/05/2005,001,2023-03-21_17h08.34.399,OS3_Mult_verification,2022.2.4,Win32,60.80505898,space,4.6851,,,,,,,,,,,,,,,,,,,,,,,,,,,,,,,,,,,,,,,,,,,,,,,,,,,,,,,,,,,,,,,,,,,,,,,,,,,,,,,,,,,,,,,,,,,,,,,,,,,,,,,,,,,,,,,,,,,,,,,,,,,,,,,,,,,,,,,,,,,,,,,,,,,,,,,,,,,,,,,,,,,,,,,,,,,,
,8509,BAC,05/05/2005,001,2023-03-21_17h08.34.399,OS3_Mult_verification,2022.2.4,Win32,60.80505898,,,40,4.1856,1,"[""4"",""0"",""return""]","[1.5764999999999958,2.272700000000185,4.151100000000554]",0,0,0,20,1,40,,,,,,,,,,,,,,,,,,,,,,,,,,,,,,,,,,,,,,,,,,,,,,,,,,,,,,,,,,,,,,,,,,,,,,,,,,,,,,,,,,,,,,,,,,,,,,,,,,,,,,,,,,,,,,,,,,,,,,,,,,,,,,,,,,,,,,,,,,,,,,,,,,,,,,,,,,,,,,,,,
,8509,BAC,05/05/2005,001,2023-03-21_17h08.34.399,OS3_Mult_verification,2022.2.4,Win32,60.80505898,,,12,1.418,1,"[""1"",""2"",""return""]","[1.0277000000001806,1.233399999999449,1.3775999999996316]",0,1,1,5,1,12,,,,,,,,,,,,,,,,,,,,,,,,,,,,,,,,,,,,,,,,,,,,,,,,,,,,,,,,,,,,,,,,,,,,,,,,,,,,,,,,,,,,,,,,,,,,,,,,,,,,,,,,,,,,,,,,,,,,,,,,,,,,,,,,,,,,,,,,,,,,,,,,,,,,,,,,,,,,,,,,,
,8509,BAC,05/05/2005,001,2023-03-21_17h08.34.399,OS3_Mult_verification,2022.2.4,Win32,60.80505898,,,25,1.3505,1,"[""2"",""5"",""return""]","[0.8971000000005631,1.1612999999998124,1.3132999999998134]",0,2,2,13,1,25,,,,,,,,,,,,,,,,,,,,,,,,,,,,,,,,,,,,,,,,,,,,,,,,,,,,,,,,,,,,,,,,,,,,,,,,,,,,,,,,,,,,,,,,,,,,,,,,,,,,,,,,,,,,,,,,,,,,,,,,,,,,,,,,,,,,,,,,,,,,,,,,,,,,,,,,,,,,,,,,,
,8509,BAC,05/05/2005,001,2023-03-21_17h08.34.399,OS3_Mult_verification,2022.2.4,Win32,60.80505898,,,72,2.018,1,"[""7"",""2"",""return""]","[1.2444000000003683,1.7300999999996236,1.9852999999998104]",0,3,3,29,1,72,,,,,,,,,,,,,,,,,,,,,,,,,,,,,,,,,,,,,,,,,,,,,,,,,,,,,,,,,,,,,,,,,,,,,,,,,,,,,,,,,,,,,,,,,,,,,,,,,,,,,,,,,,,,,,,,,,,,,,,,,,,,,,,,,,,,,,,,,,,,,,,,,,,,,,,,,,,,,,,,,
,8509,BAC,05/05/2005,001,2023-03-21_17h08.34.399,OS3_Mult_verification,2022.2.4,Win32,60.80505898,,,14,1.5008,1,"[""1"",""4"",""return""]","[0.7139999999999986,1.201400000000362,1.4647000000001782]",0,4,4,6,1,14,,,,,,,,,,,,,,,,,,,,,,,,,,,,,,,,,,,,,,,,,,,,,,,,,,,,,,,,,,,,,,,,,,,,,,,,,,,,,,,,,,,,,,,,,,,,,,,,,,,,,,,,,,,,,,,,,,,,,,,,,,,,,,,,,,,,,,,,,,,,,,,,,,,,,,,,,,,,,,,,,
,8509,BAC,05/05/2005,001,2023-03-21_17h08.34.399,OS3_Mult_verification,2022.2.4,Win32,60.80505898,,,35,1.4676,1,"[""3"",""5"",""return""]","[1.0267999999998096,1.251499999999993,1.4261000000005595]",0,5,5,18,1,35,,,,,,,,,,,,,,,,,,,,,,,,,,,,,,,,,,,,,,,,,,,,,,,,,,,,,,,,,,,,,,,,,,,,,,,,,,,,,,,,,,,,,,,,,,,,,,,,,,,,,,,,,,,,,,,,,,,,,,,,,,,,,,,,,,,,,,,,,,,,,,,,,,,,,,,,,,,,,,,,,
,8509,BAC,05/05/2005,001,2023-03-21_17h08.34.399,OS3_Mult_verification,2022.2.4,Win32,60.80505898,,,48,1.5841,1,"[""4"",""8"",""return""]","[0.8897000000001896,1.2573000000007397,1.5408000000007434]",0,6,6,23,1,48,,,,,,,,,,,,,,,,,,,,,,,,,,,,,,,,,,,,,,,,,,,,,,,,,,,,,,,,,,,,,,,,,,,,,,,,,,,,,,,,,,,,,,,,,,,,,,,,,,,,,,,,,,,,,,,,,,,,,,,,,,,,,,,,,,,,,,,,,,,,,,,,,,,,,,,,,,,,,,,,,
,8509,BAC,05/05/2005,001,2023-03-21_17h08.34.399,OS3_Mult_verification,2022.2.4,Win32,60.80505898,,,64,1.7681,1,"[""6"",""4"",""return""]","[1.0161000000005629,1.4866000000005641,1.7297999999998126]",0,7,7,28,1,64,,,,,,,,,,,,,,,,,,,,,,,,,,,,,,,,,,,,,,,,,,,,,,,,,,,,,,,,,,,,,,,,,,,,,,,,,,,,,,,,,,,,,,,,,,,,,,,,,,,,,,,,,,,,,,,,,,,,,,,,,,,,,,,,,,,,,,,,,,,,,,,,,,,,,,,,,,,,,,,,,
,8509,BAC,05/05/2005,001,2023-03-21_17h08.34.399,OS3_Mult_verification,2022.2.4,Win32,60.80505898,,,56,1.4844,1,"[""5"",""6"",""return""]","[1.1479000000003765,1.3326000000005678,1.4467000000001917]",0,8,8,26,1,56,,,,,,,,,,,,,,,,,,,,,,,,,,,,,,,,,,,,,,,,,,,,,,,,,,,,,,,,,,,,,,,,,,,,,,,,,,,,,,,,,,,,,,,,,,,,,,,,,,,,,,,,,,,,,,,,,,,,,,,,,,,,,,,,,,,,,,,,,,,,,,,,,,,,,,,,,,,,,,,,,
,8509,BAC,05/05/2005,001,2023-03-21_17h08.34.399,OS3_Mult_verification,2022.2.4,Win32,60.80505898,,,8,1.034,1,"[""8"",""return""]","[0.835899999999441,1.0035000000000025]",0,9,9,2,1,8,,,,,,,,,,,,,,,,,,,,,,,,,,,,,,,,,,,,,,,,,,,,,,,,,,,,,,,,,,,,,,,,,,,,,,,,,,,,,,,,,,,,,,,,,,,,,,,,,,,,,,,,,,,,,,,,,,,,,,,,,,,,,,,,,,,,,,,,,,,,,,,,,,,,,,,,,,,,,,,,,
,8509,BAC,05/05/2005,001,2023-03-21_17h08.34.399,OS3_Mult_verification,2022.2.4,Win32,60.80505898,,,10,1.8175,1,"[""1"",""0"",""return""]","[0.9777000000001834,1.561299999999818,1.777600000000561]",0,10,10,4,1,10,,,,,,,,,,,,,,,,,,,,,,,,,,,,,,,,,,,,,,,,,,,,,,,,,,,,,,,,,,,,,,,,,,,,,,,,,,,,,,,,,,,,,,,,,,,,,,,,,,,,,,,,,,,,,,,,,,,,,,,,,,,,,,,,,,,,,,,,,,,,,,,,,,,,,,,,,,,,,,,,,
,8509,BAC,05/05/2005,001,2023-03-21_17h08.34.399,OS3_Mult_verification,2022.2.4,Win32,60.80505898,,,28,1.7347,1,"[""2"",""8"",""return""]","[1.0972999999998194,1.5697000000001964,1.6937000000001916]",0,11,11,15,1,28,,,,,,,,,,,,,,,,,,,,,,,,,,,,,,,,,,,,,,,,,,,,,,,,,,,,,,,,,,,,,,,,,,,,,,,,,,,,,,,,,,,,,,,,,,,,,,,,,,,,,,,,,,,,,,,,,,,,,,,,,,,,,,,,,,,,,,,,,,,,,,,,,,,,,,,,,,,,,,,,,
,8509,BAC,05/05/2005,001,2023-03-21_17h08.34.399,OS3_Mult_verification,2022.2.4,Win32,60.80505898,,,20,1.4512,1,"[""2"",""0"",""return""]","[0.8989000000003671,1.2642000000001872,1.4182000000001835]",0,12,12,10,1,20,,,,,,,,,,,,,,,,,,,,,,,,,,,,,,,,,,,,,,,,,,,,,,,,,,,,,,,,,,,,,,,,,,,,,,,,,,,,,,,,,,,,,,,,,,,,,,,,,,,,,,,,,,,,,,,,,,,,,,,,,,,,,,,,,,,,,,,,,,,,,,,,,,,,,,,,,,,,,,,,,
,8509,BAC,05/05/2005,001,2023-03-21_17h08.34.399,OS3_Mult_verification,2022.2.4,Win32,60.80505898,,,4,1.1174,1,"[""4"",""return""]","[0.9644000000003672,1.0776000000005581]",0,13,13,0,1,4,,,,,,,,,,,,,,,,,,,,,,,,,,,,,,,,,,,,,,,,,,,,,,,,,,,,,,,,,,,,,,,,,,,,,,,,,,,,,,,,,,,,,,,,,,,,,,,,,,,,,,,,,,,,,,,,,,,,,,,,,,,,,,,,,,,,,,,,,,,,,,,,,,,,,,,,,,,,,,,,,
,8509,BAC,05/05/2005,001,2023-03-21_17h08.34.399,OS3_Mult_verification,2022.2.4,Win32,60.80505898,,,32,1.2508,1,"[""3"",""2"",""return""]","[0.8317999999998165,1.0956000000005588,1.2217000000001832]",0,14,14,17,1,32,,,,,,,,,,,,,,,,,,,,,,,,,,,,,,,,,,,,,,,,,,,,,,,,,,,,,,,,,,,,,,,,,,,,,,,,,,,,,,,,,,,,,,,,,,,,,,,,,,,,,,,,,,,,,,,,,,,,,,,,,,,,,,,,,,,,,,,,,,,,,,,,,,,,,,,,,,,,,,,,,
,8509,BAC,05/05/2005,001,2023-03-21_17h08.34.399,OS3_Mult_verification,2022.2.4,Win32,60.80505898,,,30,1.3512,1,"[""3"",""0"",""return""]","[0.7997000000001862,1.1189000000003801,1.319200000000194]",0,15,15,16,1,30,,,,,,,,,,,,,,,,,,,,,,,,,,,,,,,,,,,,,,,,,,,,,,,,,,,,,,,,,,,,,,,,,,,,,,,,,,,,,,,,,,,,,,,,,,,,,,,,,,,,,,,,,,,,,,,,,,,,,,,,,,,,,,,,,,,,,,,,,,,,,,,,,,,,,,,,,,,,,,,,,
,8509,BAC,05/05/2005,001,2023-03-21_17h08.34.399,OS3_Mult_verification,2022.2.4,Win32,60.80505898,,,16,1.4011,1,"[""1"",""6"",""return""]","[0.8650999999996145,1.2160999999996278,1.3672999999998012]",0,16,16,8,1,16,,,,,,,,,,,,,,,,,,,,,,,,,,,,,,,,,,,,,,,,,,,,,,,,,,,,,,,,,,,,,,,,,,,,,,,,,,,,,,,,,,,,,,,,,,,,,,,,,,,,,,,,,,,,,,,,,,,,,,,,,,,,,,,,,,,,,,,,,,,,,,,,,,,,,,,,,,,,,,,,,
,8509,BAC,05/05/2005,001,2023-03-21_17h08.34.399,OS3_Mult_verification,2022.2.4,Win32,60.80505898,,,27,1.5176,1,"[""2"",""7"",""return""]","[0.8833000000007445,1.2504000000003828,1.4831000000005616]",0,17,17,14,1,27,,,,,,,,,,,,,,,,,,,,,,,,,,,,,,,,,,,,,,,,,,,,,,,,,,,,,,,,,,,,,,,,,,,,,,,,,,,,,,,,,,,,,,,,,,,,,,,,,,,,,,,,,,,,,,,,,,,,,,,,,,,,,,,,,,,,,,,,,,,,,,,,,,,,,,,,,,,,,,,,,
,8509,BAC,05/05/2005,001,2023-03-21_17h08.34.399,OS3_Mult_verification,2022.2.4,Win32,60.80505898,,,45,1.2511,1,"[""4"",""5"",""return""]","[0.8824000000003736,1.0825999999996299,1.2105000000000103]",0,18,18,22,1,45,,,,,,,,,,,,,,,,,,,,,,,,,,,,,,,,,,,,,,,,,,,,,,,,,,,,,,,,,,,,,,,,,,,,,,,,,,,,,,,,,,,,,,,,,,,,,,,,,,,,,,,,,,,,,,,,,,,,,,,,,,,,,,,,,,,,,,,,,,,,,,,,,,,,,,,,,,,,,,,,,
,8509,BAC,05/05/2005,001,2023-03-21_17h08.34.399,OS3_Mult_verification,2022.2.4,Win32,60.80505898,,,49,1.4675,1,"[""4"",""9"",""return""]","[0.9306000000005668,1.3141000000005647,1.436000000000007]",0,19,19,24,1,49,,,,,,,,,,,,,,,,,,,,,,,,,,,,,,,,,,,,,,,,,,,,,,,,,,,,,,,,,,,,,,,,,,,,,,,,,,,,,,,,,,,,,,,,,,,,,,,,,,,,,,,,,,,,,,,,,,,,,,,,,,,,,,,,,,,,,,,,,,,,,,,,,,,,,,,,,,,,,,,,,
,8509,BAC,05/05/2005,001,2023-03-21_17h08.34.399,OS3_Mult_verification,2022.2.4,Win32,60.80505898,,,42,1.6512,1,"[""4"",""2"",""return""]","[1.0279999999999774,1.4632000000001852,1.6114999999999924]",0,20,20,21,1,42,,,,,,,,,,,,,,,,,,,,,,,,,,,,,,,,,,,,,,,,,,,,,,,,,,,,,,,,,,,,,,,,,,,,,,,,,,,,,,,,,,,,,,,,,,,,,,,,,,,,,,,,,,,,,,,,,,,,,,,,,,,,,,,,,,,,,,,,,,,,,,,,,,,,,,,,,,,,,,,,,
,8509,BAC,05/05/2005,001,2023-03-21_17h08.34.399,OS3_Mult_verification,2022.2.4,Win32,60.80505898,,,24,1.4009,1,"[""2"",""4"",""return""]","[0.7630999999996391,1.2037999999998021,1.3711999999992486]",0,21,21,12,1,24,,,,,,,,,,,,,,,,,,,,,,,,,,,,,,,,,,,,,,,,,,,,,,,,,,,,,,,,,,,,,,,,,,,,,,,,,,,,,,,,,,,,,,,,,,,,,,,,,,,,,,,,,,,,,,,,,,,,,,,,,,,,,,,,,,,,,,,,,,,,,,,,,,,,,,,,,,,,,,,,,
,8509,BAC,05/05/2005,001,2023-03-21_17h08.34.399,OS3_Mult_verification,2022.2.4,Win32,60.80505898,,,54,1.4012,1,"[""5"",""4"",""return""]","[1.0889999999999986,1.2805000000000177,1.3686999999992508]",0,22,22,25,1,54,,,,,,,,,,,,,,,,,,,,,,,,,,,,,,,,,,,,,,,,,,,,,,,,,,,,,,,,,,,,,,,,,,,,,,,,,,,,,,,,,,,,,,,,,,,,,,,,,,,,,,,,,,,,,,,,,,,,,,,,,,,,,,,,,,,,,,,,,,,,,,,,,,,,,,,,,,,,,,,,,
,8509,BAC,05/05/2005,001,2023-03-21_17h08.34.399,OS3_Mult_verification,2022.2.4,Win32,60.80505898,,,36,1.1667,1,"[""3"",""6"",""return""]","[0.7950000000000159,1.0472000000002026,1.1272999999998206]",0,23,23,19,1,36,,,,,,,,,,,,,,,,,,,,,,,,,,,,,,,,,,,,,,,,,,,,,,,,,,,,,,,,,,,,,,,,,,,,,,,,,,,,,,,,,,,,,,,,,,,,,,,,,,,,,,,,,,,,,,,,,,,,,,,,,,,,,,,,,,,,,,,,,,,,,,,,,,,,,,,,,,,,,,,,,
,8509,BAC,05/05/2005,001,2023-03-21_17h08.34.399,OS3_Mult_verification,2022.2.4,Win32,60.80505898,,,3,0.7165,0,"[""3"",""return""]","[0.5250000000000057,0.6766000000005477]",0,24,24,11,1,21,,,,,,,,,,,,,,,,,,,,,,,,,,,,,,,,,,,,,,,,,,,,,,,,,,,,,,,,,,,,,,,,,,,,,,,,,,,,,,,,,,,,,,,,,,,,,,,,,,,,,,,,,,,,,,,,,,,,,,,,,,,,,,,,,,,,,,,,,,,,,,,,,,,,,,,,,,,,,,,,,
,8509,BAC,05/05/2005,001,2023-03-21_17h08.34.399,OS3_Mult_verification,2022.2.4,Win32,60.80505898,,,81,2.3019,1,"[""8"",""1"",""return""]","[1.8033000000007462,2.051000000000016,2.263700000000199]",0,25,25,30,1,81,,,,,,,,,,,,,,,,,,,,,,,,,,,,,,,,,,,,,,,,,,,,,,,,,,,,,,,,,,,,,,,,,,,,,,,,,,,,,,,,,,,,,,,,,,,,,,,,,,,,,,,,,,,,,,,,,,,,,,,,,,,,,,,,,,,,,,,,,,,,,,,,,,,,,,,,,,,,,,,,,
,8509,BAC,05/05/2005,001,2023-03-21_17h08.34.399,OS3_Mult_verification,2022.2.4,Win32,60.80505898,,,18,1.2176,1,"[""1"",""8"",""return""]","[0.6635999999996329,0.8837000000001751,1.1807000000001722]",0,26,26,9,1,18,,,,,,,,,,,,,,,,,,,,,,,,,,,,,,,,,,,,,,,,,,,,,,,,,,,,,,,,,,,,,,,,,,,,,,,,,,,,,,,,,,,,,,,,,,,,,,,,,,,,,,,,,,,,,,,,,,,,,,,,,,,,,,,,,,,,,,,,,,,,,,,,,,,,,,,,,,,,,,,,,
,8509,BAC,05/05/2005,001,2023-03-21_17h08.34.399,OS3_Mult_verification,2022.2.4,Win32,60.80505898,,,15,1.2175,1,"[""1"",""5"",""return""]","[0.6700000000000159,1.0141000000005533,1.1817000000002054]",0,27,27,7,1,15,,,,,,,,,,,,,,,,,,,,,,,,,,,,,,,,,,,,,,,,,,,,,,,,,,,,,,,,,,,,,,,,,,,,,,,,,,,,,,,,,,,,,,,,,,,,,,,,,,,,,,,,,,,,,,,,,,,,,,,,,,,,,,,,,,,,,,,,,,,,,,,,,,,,,,,,,,,,,,,,,
,8509,BAC,05/05/2005,001,2023-03-21_17h08.34.399,OS3_Mult_verification,2022.2.4,Win32,60.80505898,,,9,1.3508,1,"[""9"",""return""]","[1.1146000000005358,1.3139000000003591]",0,28,28,3,1,9,,,,,,,,,,,,,,,,,,,,,,,,,,,,,,,,,,,,,,,,,,,,,,,,,,,,,,,,,,,,,,,,,,,,,,,,,,,,,,,,,,,,,,,,,,,,,,,,,,,,,,,,,,,,,,,,,,,,,,,,,,,,,,,,,,,,,,,,,,,,,,,,,,,,,,,,,,,,,,,,,
,8509,BAC,05/05/2005,001,2023-03-21_17h08.34.399,OS3_Mult_verification,2022.2.4,Win32,60.80505898,,,63,2.0848,1,"[""6"",""3"",""return""]","[1.4655999999996254,1.8170000000000073,2.0490000000000066]",0,29,29,27,1,63,,,,,,,,,,,,,,,,,,,,,,,,,,,,,,,,,,,,,,,,,,,,,,,,,,,,,,,,,,,,,,,,,,,,,,,,,,,,,,,,,,,,,,,,,,,,,,,,,,,,,,,,,,,,,,,,,,,,,,,,,,,,,,,,,,,,,,,,,,,,,,,,,,,,,,,,,,,,,,,,,
,8509,BAC,05/05/2005,001,2023-03-21_17h08.34.399,OS3_Mult_verification,2022.2.4,Win32,60.80505898,,,6,1.334,1,"[""6"",""return""]","[1.1294000000003734,1.2974000000003798]",0,30,30,1,1,6,,,,,,,,,,,,,,,,,,,,,,,,,,,,,,,,,,,,,,,,,,,,,,,,,,,,,,,,,,,,,,,,,,,,,,,,,,,,,,,,,,,,,,,,,,,,,,,,,,,,,,,,,,,,,,,,,,,,,,,,,,,,,,,,,,,,,,,,,,,,,,,,,,,,,,,,,,,,,,,,,
,8509,BAC,05/05/2005,001,2023-03-21_17h08.34.399,OS3_Mult_verification,2022.2.4,Win32,60.80505898,,,8,1.4514,1,"[""8"",""return""]","[1.2358999999994467,1.4192999999997937]",1,0,31,2,1,8,,,,,,,,,,,,,,,,,,,,,,,,,,,,,,,,,,,,,,,,,,,,,,,,,,,,,,,,,,,,,,,,,,,,,,,,,,,,,,,,,,,,,,,,,,,,,,,,,,,,,,,,,,,,,,,,,,,,,,,,,,,,,,,,,,,,,,,,,,,,,,,,,,,,,,,,,,,,,,,,,
,8509,BAC,05/05/2005,001,2023-03-21_17h08.34.399,OS3_Mult_verification,2022.2.4,Win32,60.80505898,,,27,1.6014,1,"[""2"",""7"",""return""]","[1.0180999999996345,1.3892000000001872,1.5664000000003853]",1,1,32,14,1,27,,,,,,,,,,,,,,,,,,,,,,,,,,,,,,,,,,,,,,,,,,,,,,,,,,,,,,,,,,,,,,,,,,,,,,,,,,,,,,,,,,,,,,,,,,,,,,,,,,,,,,,,,,,,,,,,,,,,,,,,,,,,,,,,,,,,,,,,,,,,,,,,,,,,,,,,,,,,,,,,,
,8509,BAC,05/05/2005,001,2023-03-21_17h08.34.399,OS3_Mult_verification,2022.2.4,Win32,60.80505898,,,15,1.7678,1,"[""1"",""5"",""return""]","[0.8349000000003741,1.5532000000002029,1.7367999999998176]",1,2,33,7,1,15,,,,,,,,,,,,,,,,,,,,,,,,,,,,,,,,,,,,,,,,,,,,,,,,,,,,,,,,,,,,,,,,,,,,,,,,,,,,,,,,,,,,,,,,,,,,,,,,,,,,,,,,,,,,,,,,,,,,,,,,,,,,,,,,,,,,,,,,,,,,,,,,,,,,,,,,,,,,,,,,,
,8509,BAC,05/05/2005,001,2023-03-21_17h08.34.399,OS3_Mult_verification,2022.2.4,Win32,60.80505898,,,209,1.5682,0,"[""2"",""0"",""9"",""return""]","[0.7982999999998128,1.3493999999994344,1.362499999999983,1.5345999999996138]",1,3,34,10,1,20,,,,,,,,,,,,,,,,,,,,,,,,,,,,,,,,,,,,,,,,,,,,,,,,,,,,,,,,,,,,,,,,,,,,,,,,,,,,,,,,,,,,,,,,,,,,,,,,,,,,,,,,,,,,,,,,,,,,,,,,,,,,,,,,,,,,,,,,,,,,,,,,,,,,,,,,,,,,,,,,,
,8509,BAC,05/05/2005,001,2023-03-21_17h08.34.399,OS3_Mult_verification,2022.2.4,Win32,60.80505898,,,36,2.2018,1,"[""3"",""6"",""return""]","[1.3485000000000014,1.9795000000000016,2.171999999999997]",1,4,35,19,1,36,,,,,,,,,,,,,,,,,,,,,,,,,,,,,,,,,,,,,,,,,,,,,,,,,,,,,,,,,,,,,,,,,,,,,,,,,,,,,,,,,,,,,,,,,,,,,,,,,,,,,,,,,,,,,,,,,,,,,,,,,,,,,,,,,,,,,,,,,,,,,,,,,,,,,,,,,,,,,,,,,
,8509,BAC,05/05/2005,001,2023-03-21_17h08.34.399,OS3_Mult_verification,2022.2.4,Win32,60.80505898,,,12,1.0839,1,"[""1"",""2"",""return""]","[0.7204000000003532,0.9282000000001744,1.0447000000001765]",1,5,36,5,1,12,,,,,,,,,,,,,,,,,,,,,,,,,,,,,,,,,,,,,,,,,,,,,,,,,,,,,,,,,,,,,,,,,,,,,,,,,,,,,,,,,,,,,,,,,,,,,,,,,,,,,,,,,,,,,,,,,,,,,,,,,,,,,,,,,,,,,,,,,,,,,,,,,,,,,,,,,,,,,,,,,
,8509,BAC,05/05/2005,001,2023-03-21_17h08.34.399,OS3_Mult_verification,2022.2.4,Win32,60.80505898,,,45,1.4344,1,"[""4"",""5"",""return""]","[1.0604999999999905,1.264900000000381,1.4010000000000105]",1,6,37,22,1,45,,,,,,,,,,,,,,,,,,,,,,,,,,,,,,,,,,,,,,,,,,,,,,,,,,,,,,,,,,,,,,,,,,,,,,,,,,,,,,,,,,,,,,,,,,,,,,,,,,,,,,,,,,,,,,,,,,,,,,,,,,,,,,,,,,,,,,,,,,,,,,,,,,,,,,,,,,,,,,,,,
,8509,BAC,05/05/2005,001,2023-03-21_17h08.34.399,OS3_Mult_verification,2022.2.4,Win32,60.80505898,,,9,1.2844,1,"[""9"",""return""]","[0.9802999999998292,1.2507999999998276]",1,7,38,3,1,9,,,,,,,,,,,,,,,,,,,,,,,,,,,,,,,,,,,,,,,,,,,,,,,,,,,,,,,,,,,,,,,,,,,,,,,,,,,,,,,,,,,,,,,,,,,,,,,,,,,,,,,,,,,,,,,,,,,,,,,,,,,,,,,,,,,,,,,,,,,,,,,,,,,,,,,,,,,,,,,,,
,8509,BAC,05/05/2005,001,2023-03-21_17h08.34.399,OS3_Mult_verification,2022.2.4,Win32,60.80505898,,,4,1.0337,1,"[""4"",""return""]","[0.812799999999811,0.9950000000000045]",1,8,39,0,1,4,,,,,,,,,,,,,,,,,,,,,,,,,,,,,,,,,,,,,,,,,,,,,,,,,,,,,,,,,,,,,,,,,,,,,,,,,,,,,,,,,,,,,,,,,,,,,,,,,,,,,,,,,,,,,,,,,,,,,,,,,,,,,,,,,,,,,,,,,,,,,,,,,,,,,,,,,,,,,,,,,
,8509,BAC,05/05/2005,001,2023-03-21_17h08.34.399,OS3_Mult_verification,2022.2.4,Win32,60.80505898,,,24,1.2007,1,"[""2"",""4"",""return""]","[0.8338999999994314,1.0668999999994355,1.1702000000001647]",1,9,40,12,1,24,,,,,,,,,,,,,,,,,,,,,,,,,,,,,,,,,,,,,,,,,,,,,,,,,,,,,,,,,,,,,,,,,,,,,,,,,,,,,,,,,,,,,,,,,,,,,,,,,,,,,,,,,,,,,,,,,,,,,,,,,,,,,,,,,,,,,,,,,,,,,,,,,,,,,,,,,,,,,,,,,
,8509,BAC,05/05/2005,001,2023-03-21_17h08.34.399,OS3_Mult_verification,2022.2.4,Win32,60.80505898,,,6,1.4344,1,"[""6"",""return""]","[1.2340000000000089,1.4022999999998262]",1,10,41,1,1,6,,,,,,,,,,,,,,,,,,,,,,,,,,,,,,,,,,,,,,,,,,,,,,,,,,,,,,,,,,,,,,,,,,,,,,,,,,,,,,,,,,,,,,,,,,,,,,,,,,,,,,,,,,,,,,,,,,,,,,,,,,,,,,,,,,,,,,,,,,,,,,,,,,,,,,,,,,,,,,,,,
,8509,BAC,05/05/2005,001,2023-03-21_17h08.34.399,OS3_Mult_verification,2022.2.4,Win32,60.80505898,,,25,1.6513,1,"[""2"",""5"",""return""]","[0.9370000000000118,1.2807999999998287,1.6166999999992697]",1,11,42,13,1,25,,,,,,,,,,,,,,,,,,,,,,,,,,,,,,,,,,,,,,,,,,,,,,,,,,,,,,,,,,,,,,,,,,,,,,,,,,,,,,,,,,,,,,,,,,,,,,,,,,,,,,,,,,,,,,,,,,,,,,,,,,,,,,,,,,,,,,,,,,,,,,,,,,,,,,,,,,,,,,,,,
,8509,BAC,05/05/2005,001,2023-03-21_17h08.34.399,OS3_Mult_verification,2022.2.4,Win32,60.80505898,,,63,1.9845,1,"[""6"",""3"",""return""]","[1.0369000000003723,1.7282000000001858,1.9458000000007587]",1,12,43,27,1,63,,,,,,,,,,,,,,,,,,,,,,,,,,,,,,,,,,,,,,,,,,,,,,,,,,,,,,,,,,,,,,,,,,,,,,,,,,,,,,,,,,,,,,,,,,,,,,,,,,,,,,,,,,,,,,,,,,,,,,,,,,,,,,,,,,,,,,,,,,,,,,,,,,,,,,,,,,,,,,,,,
,8509,BAC,05/05/2005,001,2023-03-21_17h08.34.399,OS3_Mult_verification,2022.2.4,Win32,60.80505898,,,72,2.1349,1,"[""7"",""2"",""return""]","[1.2971000000005404,1.8809000000003664,2.095499999999987]",1,13,44,29,1,72,,,,,,,,,,,,,,,,,,,,,,,,,,,,,,,,,,,,,,,,,,,,,,,,,,,,,,,,,,,,,,,,,,,,,,,,,,,,,,,,,,,,,,,,,,,,,,,,,,,,,,,,,,,,,,,,,,,,,,,,,,,,,,,,,,,,,,,,,,,,,,,,,,,,,,,,,,,,,,,,,
,8509,BAC,05/05/2005,001,2023-03-21_17h08.34.399,OS3_Mult_verification,2022.2.4,Win32,60.80505898,,,56,1.3841,1,"[""5"",""6"",""return""]","[1.0282000000001972,1.2311000000005663,1.350999999999999]",1,14,45,26,1,56,,,,,,,,,,,,,,,,,,,,,,,,,,,,,,,,,,,,,,,,,,,,,,,,,,,,,,,,,,,,,,,,,,,,,,,,,,,,,,,,,,,,,,,,,,,,,,,,,,,,,,,,,,,,,,,,,,,,,,,,,,,,,,,,,,,,,,,,,,,,,,,,,,,,,,,,,,,,,,,,,
,8509,BAC,05/05/2005,001,2023-03-21_17h08.34.399,OS3_Mult_verification,2022.2.4,Win32,60.80505898,,,49,2.0519,1,"[""4"",""9"",""return""]","[1.2655999999996368,1.7687000000001944,2.015500000000003]",1,15,46,24,1,49,,,,,,,,,,,,,,,,,,,,,,,,,,,,,,,,,,,,,,,,,,,,,,,,,,,,,,,,,,,,,,,,,,,,,,,,,,,,,,,,,,,,,,,,,,,,,,,,,,,,,,,,,,,,,,,,,,,,,,,,,,,,,,,,,,,,,,,,,,,,,,,,,,,,,,,,,,,,,,,,,
,8509,BAC,05/05/2005,001,2023-03-21_17h08.34.399,OS3_Mult_verification,2022.2.4,Win32,60.80505898,,,21,1.8847,1,"[""2"",""1"",""return""]","[1.4682000000001665,1.7011000000005367,1.8574999999999875]",1,16,47,11,1,21,,,,,,,,,,,,,,,,,,,,,,,,,,,,,,,,,,,,,,,,,,,,,,,,,,,,,,,,,,,,,,,,,,,,,,,,,,,,,,,,,,,,,,,,,,,,,,,,,,,,,,,,,,,,,,,,,,,,,,,,,,,,,,,,,,,,,,,,,,,,,,,,,,,,,,,,,,,,,,,,,
,8509,BAC,05/05/2005,001,2023-03-21_17h08.34.399,OS3_Mult_verification,2022.2.4,Win32,60.80505898,,,30,1.451,1,"[""3"",""0"",""return""]","[0.8824999999999932,1.2656999999992422,1.412399999999451]",1,17,48,16,1,30,,,,,,,,,,,,,,,,,,,,,,,,,,,,,,,,,,,,,,,,,,,,,,,,,,,,,,,,,,,,,,,,,,,,,,,,,,,,,,,,,,,,,,,,,,,,,,,,,,,,,,,,,,,,,,,,,,,,,,,,,,,,,,,,,,,,,,,,,,,,,,,,,,,,,,,,,,,,,,,,,
,8509,BAC,05/05/2005,001,2023-03-21_17h08.34.399,OS3_Mult_verification,2022.2.4,Win32,60.80505898,,,40,1.5681,1,"[""4"",""0"",""return""]","[0.9283000000007462,1.3174000000003616,1.532100000000554]",1,18,49,20,1,40,,,,,,,,,,,,,,,,,,,,,,,,,,,,,,,,,,,,,,,,,,,,,,,,,,,,,,,,,,,,,,,,,,,,,,,,,,,,,,,,,,,,,,,,,,,,,,,,,,,,,,,,,,,,,,,,,,,,,,,,,,,,,,,,,,,,,,,,,,,,,,,,,,,,,,,,,,,,,,,,,
,8509,BAC,05/05/2005,001,2023-03-21_17h08.34.399,OS3_Mult_verification,2022.2.4,Win32,60.80505898,,,48,1.6179,1,"[""4"",""8"",""return""]","[0.9385000000000048,1.4145000000000039,1.5859999999999843]",1,19,50,23,1,48,,,,,,,,,,,,,,,,,,,,,,,,,,,,,,,,,,,,,,,,,,,,,,,,,,,,,,,,,,,,,,,,,,,,,,,,,,,,,,,,,,,,,,,,,,,,,,,,,,,,,,,,,,,,,,,,,,,,,,,,,,,,,,,,,,,,,,,,,,,,,,,,,,,,,,,,,,,,,,,,,
,8509,BAC,05/05/2005,001,2023-03-21_17h08.34.399,OS3_Mult_verification,2022.2.4,Win32,60.80505898,,,14,2.9853,1,"[""1"",""4"",""return""]","[1.1792000000001792,1.438300000000737,2.9579000000003646]",1,20,51,6,1,14,,,,,,,,,,,,,,,,,,,,,,,,,,,,,,,,,,,,,,,,,,,,,,,,,,,,,,,,,,,,,,,,,,,,,,,,,,,,,,,,,,,,,,,,,,,,,,,,,,,,,,,,,,,,,,,,,,,,,,,,,,,,,,,,,,,,,,,,,,,,,,,,,,,,,,,,,,,,,,,,,
,8509,BAC,05/05/2005,001,2023-03-21_17h08.34.399,OS3_Mult_verification,2022.2.4,Win32,60.80505898,,,10,1.3846,1,"[""1"",""0"",""return""]","[0.6456000000005417,1.15040000000036,1.3451000000005422]",1,21,52,4,1,10,,,,,,,,,,,,,,,,,,,,,,,,,,,,,,,,,,,,,,,,,,,,,,,,,,,,,,,,,,,,,,,,,,,,,,,,,,,,,,,,,,,,,,,,,,,,,,,,,,,,,,,,,,,,,,,,,,,,,,,,,,,,,,,,,,,,,,,,,,,,,,,,,,,,,,,,,,,,,,,,,
,8509,BAC,05/05/2005,001,2023-03-21_17h08.34.399,OS3_Mult_verification,2022.2.4,Win32,60.80505898,,,18,1.7848,1,"[""1"",""8"",""return""]","[0.7190999999996279,1.5342999999998312,1.7517999999998324]",1,22,53,9,1,18,,,,,,,,,,,,,,,,,,,,,,,,,,,,,,,,,,,,,,,,,,,,,,,,,,,,,,,,,,,,,,,,,,,,,,,,,,,,,,,,,,,,,,,,,,,,,,,,,,,,,,,,,,,,,,,,,,,,,,,,,,,,,,,,,,,,,,,,,,,,,,,,,,,,,,,,,,,,,,,,,
,8509,BAC,05/05/2005,001,2023-03-21_17h08.34.399,OS3_Mult_verification,2022.2.4,Win32,60.80505898,,,81,1.7346,1,"[""8"",""1"",""return""]","[1.0122999999998115,1.49939999999944,1.695999999999998]",1,23,54,30,1,81,,,,,,,,,,,,,,,,,,,,,,,,,,,,,,,,,,,,,,,,,,,,,,,,,,,,,,,,,,,,,,,,,,,,,,,,,,,,,,,,,,,,,,,,,,,,,,,,,,,,,,,,,,,,,,,,,,,,,,,,,,,,,,,,,,,,,,,,,,,,,,,,,,,,,,,,,,,,,,,,,
,8509,BAC,05/05/2005,001,2023-03-21_17h08.34.399,OS3_Mult_verification,2022.2.4,Win32,60.80505898,,,32,2.1849,1,"[""3"",""2"",""return""]","[1.8495000000000061,2.0162999999998306,2.1522999999998262]",1,24,55,17,1,32,,,,,,,,,,,,,,,,,,,,,,,,,,,,,,,,,,,,,,,,,,,,,,,,,,,,,,,,,,,,,,,,,,,,,,,,,,,,,,,,,,,,,,,,,,,,,,,,,,,,,,,,,,,,,,,,,,,,,,,,,,,,,,,,,,,,,,,,,,,,,,,,,,,,,,,,,,,,,,,,,
,8509,BAC,05/05/2005,001,2023-03-21_17h08.34.399,OS3_Mult_verification,2022.2.4,Win32,60.80505898,,,42,1.6678,1,"[""4"",""2"",""return""]","[0.9969999999999857,1.454700000000173,1.6380000000000052]",1,25,56,21,1,42,,,,,,,,,,,,,,,,,,,,,,,,,,,,,,,,,,,,,,,,,,,,,,,,,,,,,,,,,,,,,,,,,,,,,,,,,,,,,,,,,,,,,,,,,,,,,,,,,,,,,,,,,,,,,,,,,,,,,,,,,,,,,,,,,,,,,,,,,,,,,,,,,,,,,,,,,,,,,,,,,
,8509,BAC,05/05/2005,001,2023-03-21_17h08.34.399,OS3_Mult_verification,2022.2.4,Win32,60.80505898,,,16,2.035,1,"[""1"",""6"",""return""]","[0.6498999999994624,1.8143999999994662,1.999099999999629]",1,26,57,8,1,16,,,,,,,,,,,,,,,,,,,,,,,,,,,,,,,,,,,,,,,,,,,,,,,,,,,,,,,,,,,,,,,,,,,,,,,,,,,,,,,,,,,,,,,,,,,,,,,,,,,,,,,,,,,,,,,,,,,,,,,,,,,,,,,,,,,,,,,,,,,,,,,,,,,,,,,,,,,,,,,,,
,8509,BAC,05/05/2005,001,2023-03-21_17h08.34.399,OS3_Mult_verification,2022.2.4,Win32,60.80505898,,,2897,1.3343,0,"[""2"",""8"",""9"",""7"",""return""]","[0.8766000000005647,1.232400000000382,1.2647999999998092,1.2805000000000177,1.297600000000557]",1,27,58,15,1,28,,,,,,,,,,,,,,,,,,,,,,,,,,,,,,,,,,,,,,,,,,,,,,,,,,,,,,,,,,,,,,,,,,,,,,,,,,,,,,,,,,,,,,,,,,,,,,,,,,,,,,,,,,,,,,,,,,,,,,,,,,,,,,,,,,,,,,,,,,,,,,,,,,,,,,,,,,,,,,,,,
,8509,BAC,05/05/2005,001,2023-03-21_17h08.34.399,OS3_Mult_verification,2022.2.4,Win32,60.80505898,,,3,1.3181,0,"[""3"",""return""]","[1.0635000000000048,1.2802999999998121]",1,28,59,18,1,35,,,,,,,,,,,,,,,,,,,,,,,,,,,,,,,,,,,,,,,,,,,,,,,,,,,,,,,,,,,,,,,,,,,,,,,,,,,,,,,,,,,,,,,,,,,,,,,,,,,,,,,,,,,,,,,,,,,,,,,,,,,,,,,,,,,,,,,,,,,,,,,,,,,,,,,,,,,,,,,,,
,8509,BAC,05/05/2005,001,2023-03-21_17h08.34.399,OS3_Mult_verification,2022.2.4,Win32,60.80505898,,,54,1.6512,1,"[""5"",""4"",""return""]","[1.34050000000002,1.5515999999996382,1.6207999999998322]",1,29,60,25,1,54,,,,,,,,,,,,,,,,,,,,,,,,,,,,,,,,,,,,,,,,,,,,,,,,,,,,,,,,,,,,,,,,,,,,,,,,,,,,,,,,,,,,,,,,,,,,,,,,,,,,,,,,,,,,,,,,,,,,,,,,,,,,,,,,,,,,,,,,,,,,,,,,,,,,,,,,,,,,,,,,,
,8509,BAC,05/05/2005,001,2023-03-21_17h08.34.399,OS3_Mult_verification,2022.2.4,Win32,60.80505898,,,64,1.685,1,"[""6"",""4"",""return""]","[1.047900000000368,1.500299999999811,1.6550000000000011]",1,30,61,28,1,64,,,,,,,,,,,,,,,,,,,,,,,,,,,,,,,,,,,,,,,,,,,,,,,,,,,,,,,,,,,,,,,,,,,,,,,,,,,,,,,,,,,,,,,,,,,,,,,,,,,,,,,,,,,,,,,,,,,,,,,,,,,,,,,,,,,,,,,,,,,,,,,,,,,,,,,,,,,,,,,,,
,8509,BAC,05/05/2005,001,2023-03-21_17h08.34.399,OS3_Mult_verification,2022.2.4,Win32,60.80505898,,,,,,,,,,,,,,space,6.8352,,,,,,,,,,,,,,,,,,,,,,,,,,,,,,,,,,,,,,,,,,,,,,,,,,,,,,,,,,,,,,,,,,,,,,,,,,,,,,,,,,,,,,,,,,,,,,,,,,,,,,,,,,,,,,,,,,,,,,,,,,,,,,,,,,,,,,,,,,,,,,,,,,,,,,,,,,,,,,,
,8509,BAC,05/05/2005,001,2023-03-21_17h08.34.399,OS3_Mult_verification,2022.2.4,Win32,60.80505898,,,,,,,,,,,,,,,,,,,,,,,,,,,,,,,,,,,,,,,,,,,,,,,,,,,,,,,,,,,,,,,,,,,,,,,,,,,,,,,,,,,,,,,,,,,,,,,,,,,,,,,,,,,,,,,,,,,,,,,,,,,,,,,,,,,,,,,,,,,,,,,,,,,,,,,,,,,,,,,,,,,,,,,,,,,,,,
,8509,BAC,05/05/2005,001,2023-03-21_17h08.34.399,OS3_Mult_verification,2022.2.4,Win32,60.80505898,,,,,,,,,,,,,,,,space,4.6887,,,,,,,,,,,,,,,,,,,,,,,,,,,,,,,,,,,,,,,,,,,,,,,,,,,,,,,,,,,,,,,,,,,,,,,,,,,,,,,,,,,,,,,,,,,,,,,,,,,,,,,,,,,,,,,,,,,,,,,,,,,,,,,,,,,,,,,,,,,,,,,,,,,,,,,,,,,,,
,8509,BAC,05/05/2005,001,2023-03-21_17h08.34.399,OS3_Mult_verification,2022.2.4,Win32,60.80505898,,,,,,,,,,,,,,,,,,20,2.9104,1,"[""2"",""0"",""return""]","[1.6801000000005502,1.8789000000003568,2.6152000000001863]",0,0,0,1,1,2 × 10 =,20,,,,,,,,,,,,,,,,,,,,,,,,,,,,,,,,,,,,,,,,,,,,,,,,,,,,,,,,,,,,,,,,,,,,,,,,,,,,,,,,,,,,,,,,,,,,,,,,,,,,,,,,,,,,,,,,,,,,,,,,,,,,,,,,,,,,,,,,,,,,,,,,,
,8509,BAC,05/05/2005,001,2023-03-21_17h08.34.399,OS3_Mult_verification,2022.2.4,Win32,60.80505898,,,,,,,,,,,,,,,,,,78,2.0059,0,"[""7"",""8"",""return""]","[1.4197999999998103,1.4517999999997926,1.7134000000003766]",0,1,1,0,1,1 × 7 =,7,,,,,,,,,,,,,,,,,,,,,,,,,,,,,,,,,,,,,,,,,,,,,,,,,,,,,,,,,,,,,,,,,,,,,,,,,,,,,,,,,,,,,,,,,,,,,,,,,,,,,,,,,,,,,,,,,,,,,,,,,,,,,,,,,,,,,,,,,,,,,,,,,
,8509,BAC,05/05/2005,001,2023-03-21_17h08.34.399,OS3_Mult_verification,2022.2.4,Win32,60.80505898,,,,,,,,,,,,,,,,,,22,1.6511,1,"[""2"",""2"",""return""]","[1.0135999999996272,1.1522999999997978,1.3522999999998149]",0,2,2,2,1,2 × 11 =,22,,,,,,,,,,,,,,,,,,,,,,,,,,,,,,,,,,,,,,,,,,,,,,,,,,,,,,,,,,,,,,,,,,,,,,,,,,,,,,,,,,,,,,,,,,,,,,,,,,,,,,,,,,,,,,,,,,,,,,,,,,,,,,,,,,,,,,,,,,,,,,,,,
,8509,BAC,05/05/2005,001,2023-03-21_17h08.34.399,OS3_Mult_verification,2022.2.4,Win32,60.80505898,,,,,,,,,,,,,,,,,,,,,,,,,,,,,,,,,,,,,,,,,,,,,,,,,,,,,,,,,,,,,,,,,,,,,,,,,,,,,,,,,,,,,,,,,,,,,,,,,,,,,,,,,,,,,,,,,,,,,,,,,,,,,,,,,,,,,,,,,,,,,,,,,,,,,,,,,,,,,,,,,,,,,,,,,,,,,,
,8509,BAC,05/05/2005,001,2023-03-21_17h08.34.399,OS3_Mult_verification,2022.2.4,Win32,60.80505898,,,,,,,,,,,,,,,,,,,,,,,,,,,,,,,,,,,,,,,,,,,,,,,,,,,,,,,,,,,,,,,,,,,,,,,,,,,,,,,,,,,,,,,,,,,,,,,,,,,,,,,,,,,,,,,,,,,,,,,,,,,,,,,,,,,,,,,,,,,,,,,,,,,,,,,,,,,,,,,,,,,,,,,,,,,,,,
,8509,BAC,05/05/2005,001,2023-03-21_17h08.34.399,OS3_Mult_verification,2022.2.4,Win32,60.80505898,,,,,,,,,,,,,,,,,,6,1.9283,1,"[""6"",""return""]","[1.3872999999998115,1.618899999999428]",,,,,,2 × 3 =,6,0,0,0,0,1,,,,,,,,,,,,,,,,,,,,,,,,,,,,,,,,,,,,,,,,,,,,,,,,,,,,,,,,,,,,,,,,,,,,,,,,,,,,,,,,,,,,,,,,,,,,,,,,,,,,,,,,,,,,,,,,,,,,,,,,,,,,,,,,,,,,,,,,,,,,
,8509,BAC,05/05/2005,001,2023-03-21_17h08.34.399,OS3_Mult_verification,2022.2.4,Win32,60.80505898,,,,,,,,,,,,,,,,,,40,1.9168,1,"[""4"",""0"",""return""]","[1.156000000000006,1.3350999999996418,1.6037000000002024]",,,,,,5 × 8 =,40,0,1,1,1,1,,,,,,,,,,,,,,,,,,,,,,,,,,,,,,,,,,,,,,,,,,,,,,,,,,,,,,,,,,,,,,,,,,,,,,,,,,,,,,,,,,,,,,,,,,,,,,,,,,,,,,,,,,,,,,,,,,,,,,,,,,,,,,,,,,,,,,,,,,,,
,8509,BAC,05/05/2005,001,2023-03-21_17h08.34.399,OS3_Mult_verification,2022.2.4,Win32,60.80505898,,,,,,,,,,,,,,,,,,12,1.7002,1,"[""1"",""2"",""return""]","[0.9173999999994464,1.1520999999996206,1.3899999999999864]",,,,,,3 × 4 =,12,0,2,2,2,1,,,,,,,,,,,,,,,,,,,,,,,,,,,,,,,,,,,,,,,,,,,,,,,,,,,,,,,,,,,,,,,,,,,,,,,,,,,,,,,,,,,,,,,,,,,,,,,,,,,,,,,,,,,,,,,,,,,,,,,,,,,,,,,,,,,,,,,,,,,,
,8509,BAC,05/05/2005,001,2023-03-21_17h08.34.399,OS3_Mult_verification,2022.2.4,Win32,60.80505898,,,,,,,,,,,,,,,,,,15,1.6758,1,"[""1"",""5"",""return""]","[0.7844000000003746,1.0526000000005808,1.3640000000000043]",,,,,,5 × 3 =,15,0,3,3,3,1,,,,,,,,,,,,,,,,,,,,,,,,,,,,,,,,,,,,,,,,,,,,,,,,,,,,,,,,,,,,,,,,,,,,,,,,,,,,,,,,,,,,,,,,,,,,,,,,,,,,,,,,,,,,,,,,,,,,,,,,,,,,,,,,,,,,,,,,,,,,
,8509,BAC,05/05/2005,001,2023-03-21_17h08.34.399,OS3_Mult_verification,2022.2.4,Win32,60.80505898,,,,,,,,,,,,,,,,,,8,1.5918,1,"[""8"",""return""]","[1.01829999999984,1.2922000000002072]",,,,,,2 × 4 =,8,0,4,4,4,1,,,,,,,,,,,,,,,,,,,,,,,,,,,,,,,,,,,,,,,,,,,,,,,,,,,,,,,,,,,,,,,,,,,,,,,,,,,,,,,,,,,,,,,,,,,,,,,,,,,,,,,,,,,,,,,,,,,,,,,,,,,,,,,,,,,,,,,,,,,,
,8509,BAC,05/05/2005,001,2023-03-21_17h08.34.399,OS3_Mult_verification,2022.2.4,Win32,60.80505898,,,,,,,,,,,,,,,,,,4,1.7003,1,"[""4"",""return""]","[1.1513999999994553,1.3851999999992586]",,,,,,2 × 2 =,4,0,5,5,5,1,,,,,,,,,,,,,,,,,,,,,,,,,,,,,,,,,,,,,,,,,,,,,,,,,,,,,,,,,,,,,,,,,,,,,,,,,,,,,,,,,,,,,,,,,,,,,,,,,,,,,,,,,,,,,,,,,,,,,,,,,,,,,,,,,,,,,,,,,,,,
,8509,BAC,05/05/2005,001,2023-03-21_17h08.34.399,OS3_Mult_verification,2022.2.4,Win32,60.80505898,,,,,,,,,,,,,,,,,,20,1.8341,1,"[""2"",""0"",""return""]","[1.0810999999996511,1.2520000000000095,1.5185999999996511]",,,,,,4 × 5 =,20,0,6,6,6,1,,,,,,,,,,,,,,,,,,,,,,,,,,,,,,,,,,,,,,,,,,,,,,,,,,,,,,,,,,,,,,,,,,,,,,,,,,,,,,,,,,,,,,,,,,,,,,,,,,,,,,,,,,,,,,,,,,,,,,,,,,,,,,,,,,,,,,,,,,,,
,8509,BAC,05/05/2005,001,2023-03-21_17h08.34.399,OS3_Mult_verification,2022.2.4,Win32,60.80505898,,,,,,,,,,,,,,,,,,9,1.6928,1,"[""9"",""return""]","[1.11749999999995,1.3862000000001444]",,,,,,3 × 3 =,9,0,7,7,7,1,,,,,,,,,,,,,,,,,,,,,,,,,,,,,,,,,,,,,,,,,,,,,,,,,,,,,,,,,,,,,,,,,,,,,,,,,,,,,,,,,,,,,,,,,,,,,,,,,,,,,,,,,,,,,,,,,,,,,,,,,,,,,,,,,,,,,,,,,,,,
,8509,BAC,05/05/2005,001,2023-03-21_17h08.34.399,OS3_Mult_verification,2022.2.4,Win32,60.80505898,,,,,,,,,,,,,,,,,,10,1.6841,1,"[""1"",""0"",""return""]","[0.951200000000199,1.1016000000005874,1.38480000000078]",,,,,,5 × 2 =,10,0,8,8,8,1,,,,,,,,,,,,,,,,,,,,,,,,,,,,,,,,,,,,,,,,,,,,,,,,,,,,,,,,,,,,,,,,,,,,,,,,,,,,,,,,,,,,,,,,,,,,,,,,,,,,,,,,,,,,,,,,,,,,,,,,,,,,,,,,,,,,,,,,,,,,
,8509,BAC,05/05/2005,001,2023-03-21_17h08.34.399,OS3_Mult_verification,2022.2.4,Win32,60.80505898,,,,,,,,,,,,,,,,,,16,2.0757,1,"[""1"",""6"",""return""]","[0.9350000000000023,1.4184000000003607,1.7689000000003716]",,,,,,4 × 4 =,16,0,9,9,9,1,,,,,,,,,,,,,,,,,,,,,,,,,,,,,,,,,,,,,,,,,,,,,,,,,,,,,,,,,,,,,,,,,,,,,,,,,,,,,,,,,,,,,,,,,,,,,,,,,,,,,,,,,,,,,,,,,,,,,,,,,,,,,,,,,,,,,,,,,,,,
,8509,BAC,05/05/2005,001,2023-03-21_17h08.34.399,OS3_Mult_verification,2022.2.4,Win32,60.80505898,,,,,,,,,,,,,,,,,,24,1.8674,1,"[""2"",""4"",""return""]","[1.0842999999998142,1.34050000000002,1.5728999999994357]",,,,,,8 × 3 =,24,0,10,10,10,1,,,,,,,,,,,,,,,,,,,,,,,,,,,,,,,,,,,,,,,,,,,,,,,,,,,,,,,,,,,,,,,,,,,,,,,,,,,,,,,,,,,,,,,,,,,,,,,,,,,,,,,,,,,,,,,,,,,,,,,,,,,,,,,,,,,,,,,,,,,,
,8509,BAC,05/05/2005,001,2023-03-21_17h08.34.399,OS3_Mult_verification,2022.2.4,Win32,60.80505898,,,,,,,,,,,,,,,,,,30,1.7176,1,"[""3"",""0"",""return""]","[0.9014999999999986,1.1014000000003534,1.4084000000003698]",,,,,,6 × 5 =,30,0,11,11,11,1,,,,,,,,,,,,,,,,,,,,,,,,,,,,,,,,,,,,,,,,,,,,,,,,,,,,,,,,,,,,,,,,,,,,,,,,,,,,,,,,,,,,,,,,,,,,,,,,,,,,,,,,,,,,,,,,,,,,,,,,,,,,,,,,,,,,,,,,,,,,
,8509,BAC,05/05/2005,001,2023-03-21_17h08.34.399,OS3_Mult_verification,2022.2.4,Win32,60.80505898,,,,,,,,,,,,,,,,,,14,2.484,1,"[""1"",""4"",""return""]","[0.901900000000353,1.135200000000168,2.1695999999996047]",,,,,,7 × 2 =,14,0,12,12,12,1,,,,,,,,,,,,,,,,,,,,,,,,,,,,,,,,,,,,,,,,,,,,,,,,,,,,,,,,,,,,,,,,,,,,,,,,,,,,,,,,,,,,,,,,,,,,,,,,,,,,,,,,,,,,,,,,,,,,,,,,,,,,,,,,,,,,,,,,,,,,
,8509,BAC,05/05/2005,001,2023-03-21_17h08.34.399,OS3_Mult_verification,2022.2.4,Win32,60.80505898,,,,,,,,,,,,,,,,,,27,1.951,1,"[""2"",""7"",""return""]","[1.013700000000199,1.3193999999994617,1.6365000000000123]",,,,,,3 × 9 =,27,0,13,13,13,1,,,,,,,,,,,,,,,,,,,,,,,,,,,,,,,,,,,,,,,,,,,,,,,,,,,,,,,,,,,,,,,,,,,,,,,,,,,,,,,,,,,,,,,,,,,,,,,,,,,,,,,,,,,,,,,,,,,,,,,,,,,,,,,,,,,,,,,,,,,,
,8509,BAC,05/05/2005,001,2023-03-21_17h08.34.399,OS3_Mult_verification,2022.2.4,Win32,60.80505898,,,,,,,,,,,,,,,,,,16,2.0844,1,"[""1"",""6"",""return""]","[1.1850000000000023,1.4382000000002222,1.7690999999996393]",,,,,,2 × 8 =,16,0,14,14,14,1,,,,,,,,,,,,,,,,,,,,,,,,,,,,,,,,,,,,,,,,,,,,,,,,,,,,,,,,,,,,,,,,,,,,,,,,,,,,,,,,,,,,,,,,,,,,,,,,,,,,,,,,,,,,,,,,,,,,,,,,,,,,,,,,,,,,,,,,,,,,
,8509,BAC,05/05/2005,001,2023-03-21_17h08.34.399,OS3_Mult_verification,2022.2.4,Win32,60.80505898,,,,,,,,,,,,,,,,,,24,1.6261,1,"[""2"",""4"",""return""]","[0.9011000000005538,1.1517999999998096,1.3182999999997946]",,,,,,4 × 6 =,24,0,15,15,15,1,,,,,,,,,,,,,,,,,,,,,,,,,,,,,,,,,,,,,,,,,,,,,,,,,,,,,,,,,,,,,,,,,,,,,,,,,,,,,,,,,,,,,,,,,,,,,,,,,,,,,,,,,,,,,,,,,,,,,,,,,,,,,,,,,,,,,,,,,,,,
,8509,BAC,05/05/2005,001,2023-03-21_17h08.34.399,OS3_Mult_verification,2022.2.4,Win32,60.80505898,,,,,,,,,,,,,,,,,,21,1.5503,1,"[""2"",""1"",""return""]","[0.9347999999998251,1.13470000000018,1.2520000000000095]",,,,,,7 × 3 =,21,0,16,16,16,1,,,,,,,,,,,,,,,,,,,,,,,,,,,,,,,,,,,,,,,,,,,,,,,,,,,,,,,,,,,,,,,,,,,,,,,,,,,,,,,,,,,,,,,,,,,,,,,,,,,,,,,,,,,,,,,,,,,,,,,,,,,,,,,,,,,,,,,,,,,,
,8509,BAC,05/05/2005,001,2023-03-21_17h08.34.399,OS3_Mult_verification,2022.2.4,Win32,60.80505898,,,,,,,,,,,,,,,,,,27,1.7254,1,"[""2"",""7"",""return""]","[0.9011000000005538,1.134300000000735,1.4181000000005497]",,,,,,9 × 3 =,27,0,17,17,17,1,,,,,,,,,,,,,,,,,,,,,,,,,,,,,,,,,,,,,,,,,,,,,,,,,,,,,,,,,,,,,,,,,,,,,,,,,,,,,,,,,,,,,,,,,,,,,,,,,,,,,,,,,,,,,,,,,,,,,,,,,,,,,,,,,,,,,,,,,,,,
,8509,BAC,05/05/2005,001,2023-03-21_17h08.34.399,OS3_Mult_verification,2022.2.4,Win32,60.80505898,,,,,,,,,,,,,,,,,,28,1.9174,1,"[""2"",""8"",""return""]","[0.9756000000005542,1.3032999999998083,1.6019999999999754]",,,,,,4 × 7 =,28,0,18,18,18,1,,,,,,,,,,,,,,,,,,,,,,,,,,,,,,,,,,,,,,,,,,,,,,,,,,,,,,,,,,,,,,,,,,,,,,,,,,,,,,,,,,,,,,,,,,,,,,,,,,,,,,,,,,,,,,,,,,,,,,,,,,,,,,,,,,,,,,,,,,,,
,8509,BAC,05/05/2005,001,2023-03-21_17h08.34.399,OS3_Mult_verification,2022.2.4,Win32,60.80505898,,,,,,,,,,,,,,,,,,18,1.7505,1,"[""1"",""8"",""return""]","[0.9345000000000141,1.1852000000001794,1.4352000000001794]",,,,,,2 × 9 =,18,0,19,19,19,1,,,,,,,,,,,,,,,,,,,,,,,,,,,,,,,,,,,,,,,,,,,,,,,,,,,,,,,,,,,,,,,,,,,,,,,,,,,,,,,,,,,,,,,,,,,,,,,,,,,,,,,,,,,,,,,,,,,,,,,,,,,,,,,,,,,,,,,,,,,,
,8509,BAC,05/05/2005,001,2023-03-21_17h08.34.399,OS3_Mult_verification,2022.2.4,Win32,60.80505898,,,,,,,,,,,,,,,,,,72,1.8172,1,"[""7"",""2"",""return""]","[1.0910999999995852,1.3388999999993985,1.5222999999998024]",,,,,,9 × 8 =,72,0,20,20,20,1,,,,,,,,,,,,,,,,,,,,,,,,,,,,,,,,,,,,,,,,,,,,,,,,,,,,,,,,,,,,,,,,,,,,,,,,,,,,,,,,,,,,,,,,,,,,,,,,,,,,,,,,,,,,,,,,,,,,,,,,,,,,,,,,,,,,,,,,,,,,
,8509,BAC,05/05/2005,001,2023-03-21_17h08.34.399,OS3_Mult_verification,2022.2.4,Win32,60.80505898,,,,,,,,,,,,,,,,,,42,1.759,1,"[""4"",""2"",""return""]","[1.0559999999999832,1.2241000000005329,1.4517000000001872]",,,,,,7 × 6 =,42,0,21,21,21,1,,,,,,,,,,,,,,,,,,,,,,,,,,,,,,,,,,,,,,,,,,,,,,,,,,,,,,,,,,,,,,,,,,,,,,,,,,,,,,,,,,,,,,,,,,,,,,,,,,,,,,,,,,,,,,,,,,,,,,,,,,,,,,,,,,,,,,,,,,,,
,8509,BAC,05/05/2005,001,2023-03-21_17h08.34.399,OS3_Mult_verification,2022.2.4,Win32,60.80505898,,,,,,,,,,,,,,,,,,54,1.7422,1,"[""5"",""4"",""return""]","[1.0716000000005579,1.2557999999998515,1.434799999999825]",,,,,,6 × 9 =,54,0,22,22,22,1,,,,,,,,,,,,,,,,,,,,,,,,,,,,,,,,,,,,,,,,,,,,,,,,,,,,,,,,,,,,,,,,,,,,,,,,,,,,,,,,,,,,,,,,,,,,,,,,,,,,,,,,,,,,,,,,,,,,,,,,,,,,,,,,,,,,,,,,,,,,
,8509,BAC,05/05/2005,001,2023-03-21_17h08.34.399,OS3_Mult_verification,2022.2.4,Win32,60.80505898,,,,,,,,,,,,,,,,,,45,1.8754,1,"[""4"",""5"",""return""]","[1.017799999999795,1.2345000000000255,1.5681000000005838]",,,,,,9 × 5 =,45,0,23,23,23,1,,,,,,,,,,,,,,,,,,,,,,,,,,,,,,,,,,,,,,,,,,,,,,,,,,,,,,,,,,,,,,,,,,,,,,,,,,,,,,,,,,,,,,,,,,,,,,,,,,,,,,,,,,,,,,,,,,,,,,,,,,,,,,,,,,,,,,,,,,,,
,8509,BAC,05/05/2005,001,2023-03-21_17h08.34.399,OS3_Mult_verification,2022.2.4,Win32,60.80505898,,,,,,,,,,,,,,,,,,56,1.6763,1,"[""5"",""6"",""return""]","[0.9513999999994667,1.1017999999998551,1.3725000000000023]",,,,,,8 × 7 =,56,0,24,24,24,1,,,,,,,,,,,,,,,,,,,,,,,,,,,,,,,,,,,,,,,,,,,,,,,,,,,,,,,,,,,,,,,,,,,,,,,,,,,,,,,,,,,,,,,,,,,,,,,,,,,,,,,,,,,,,,,,,,,,,,,,,,,,,,,,,,,,,,,,,,,,
,8509,BAC,05/05/2005,001,2023-03-21_17h08.34.399,OS3_Mult_verification,2022.2.4,Win32,60.80505898,,,,,,,,,,,,,,,,,,36,2.1845,1,"[""3"",""6"",""return""]","[1.35129999999981,1.5517999999998437,1.8684000000003493]",,,,,,6 × 6 =,36,0,25,25,25,1,,,,,,,,,,,,,,,,,,,,,,,,,,,,,,,,,,,,,,,,,,,,,,,,,,,,,,,,,,,,,,,,,,,,,,,,,,,,,,,,,,,,,,,,,,,,,,,,,,,,,,,,,,,,,,,,,,,,,,,,,,,,,,,,,,,,,,,,,,,,
,8509,BAC,05/05/2005,001,2023-03-21_17h08.34.399,OS3_Mult_verification,2022.2.4,Win32,60.80505898,,,,,,,,,,,,,,,,,,35,1.7427,1,"[""3"",""5"",""return""]","[0.95150000000001,1.0848999999994362,1.4347000000001913]",,,,,,5 × 7 =,35,0,26,26,26,1,,,,,,,,,,,,,,,,,,,,,,,,,,,,,,,,,,,,,,,,,,,,,,,,,,,,,,,,,,,,,,,,,,,,,,,,,,,,,,,,,,,,,,,,,,,,,,,,,,,,,,,,,,,,,,,,,,,,,,,,,,,,,,,,,,,,,,,,,,,,
,8509,BAC,05/05/2005,001,2023-03-21_17h08.34.399,OS3_Mult_verification,2022.2.4,Win32,60.80505898,,,,,,,,,,,,,,,,,,36,3.0433,1,"[""3"",""6"",""return""]","[1.8237000000002013,2.3865000000000123,2.7364000000003443]",,,,,,4 × 9 =,36,0,27,27,27,1,,,,,,,,,,,,,,,,,,,,,,,,,,,,,,,,,,,,,,,,,,,,,,,,,,,,,,,,,,,,,,,,,,,,,,,,,,,,,,,,,,,,,,,,,,,,,,,,,,,,,,,,,,,,,,,,,,,,,,,,,,,,,,,,,,,,,,,,,,,,
,8509,BAC,05/05/2005,001,2023-03-21_17h08.34.399,OS3_Mult_verification,2022.2.4,Win32,60.80505898,,,,,,,,,,,,,,,,,,48,2.3795,1,"[""4"",""8"",""return""]","[1.4521999999992659,1.739599999999598,2.069099999999594]",,,,,,8 × 6 =,48,0,28,28,28,1,,,,,,,,,,,,,,,,,,,,,,,,,,,,,,,,,,,,,,,,,,,,,,,,,,,,,,,,,,,,,,,,,,,,,,,,,,,,,,,,,,,,,,,,,,,,,,,,,,,,,,,,,,,,,,,,,,,,,,,,,,,,,,,,,,,,,,,,,,,,
,8509,BAC,05/05/2005,001,2023-03-21_17h08.34.399,OS3_Mult_verification,2022.2.4,Win32,60.80505898,,,,,,,,,,,,,,,,,,63,2.009,1,"[""6"",""3"",""return""]","[1.0679999999999836,1.531000000000006,1.701799999999821]",,,,,,9 × 7 =,63,0,29,29,29,1,,,,,,,,,,,,,,,,,,,,,,,,,,,,,,,,,,,,,,,,,,,,,,,,,,,,,,,,,,,,,,,,,,,,,,,,,,,,,,,,,,,,,,,,,,,,,,,,,,,,,,,,,,,,,,,,,,,,,,,,,,,,,,,,,,,,,,,,,,,,
,8509,BAC,05/05/2005,001,2023-03-21_17h08.34.399,OS3_Mult_verification,2022.2.4,Win32,60.80505898,,,,,,,,,,,,,,,,,,12,1.7671,1,"[""1"",""2"",""return""]","[1.0345000000000368,1.256400000000383,1.4519000000004212]",,,,,,4 × 3 =,12,0,30,30,30,1,,,,,,,,,,,,,,,,,,,,,,,,,,,,,,,,,,,,,,,,,,,,,,,,,,,,,,,,,,,,,,,,,,,,,,,,,,,,,,,,,,,,,,,,,,,,,,,,,,,,,,,,,,,,,,,,,,,,,,,,,,,,,,,,,,,,,,,,,,,,
,8509,BAC,05/05/2005,001,2023-03-21_17h08.34.399,OS3_Mult_verification,2022.2.4,Win32,60.80505898,,,,,,,,,,,,,,,,,,25,2.0508,1,"[""2"",""5"",""return""]","[1.219599999999616,1.4250999999996452,1.73599999999999]",,,,,,5 × 5 =,25,0,31,31,31,1,,,,,,,,,,,,,,,,,,,,,,,,,,,,,,,,,,,,,,,,,,,,,,,,,,,,,,,,,,,,,,,,,,,,,,,,,,,,,,,,,,,,,,,,,,,,,,,,,,,,,,,,,,,,,,,,,,,,,,,,,,,,,,,,,,,,,,,,,,,,
,8509,BAC,05/05/2005,001,2023-03-21_17h08.34.399,OS3_Mult_verification,2022.2.4,Win32,60.80505898,,,,,,,,,,,,,,,,,,6,1.8338,1,"[""6"",""return""]","[1.3474000000003912,1.541400000000408]",,,,,,3 × 2 =,6,0,32,32,32,1,,,,,,,,,,,,,,,,,,,,,,,,,,,,,,,,,,,,,,,,,,,,,,,,,,,,,,,,,,,,,,,,,,,,,,,,,,,,,,,,,,,,,,,,,,,,,,,,,,,,,,,,,,,,,,,,,,,,,,,,,,,,,,,,,,,,,,,,,,,,
,8509,BAC,05/05/2005,001,2023-03-21_17h08.34.399,OS3_Mult_verification,2022.2.4,Win32,60.80505898,,,,,,,,,,,,,,,,,,20,1.7,1,"[""2"",""0"",""return""]","[0.952699999999254,1.1201999999992722,1.3880999999996106]",,,,,,5 × 4 =,20,0,33,33,33,1,,,,,,,,,,,,,,,,,,,,,,,,,,,,,,,,,,,,,,,,,,,,,,,,,,,,,,,,,,,,,,,,,,,,,,,,,,,,,,,,,,,,,,,,,,,,,,,,,,,,,,,,,,,,,,,,,,,,,,,,,,,,,,,,,,,,,,,,,,,,
,8509,BAC,05/05/2005,001,2023-03-21_17h08.34.399,OS3_Mult_verification,2022.2.4,Win32,60.80505898,,,,,,,,,,,,,,,,,,8,1.6677,1,"[""8"",""return""]","[1.0855000000000246,1.3559000000004175]",,,,,,4 × 2 =,8,0,34,34,34,1,,,,,,,,,,,,,,,,,,,,,,,,,,,,,,,,,,,,,,,,,,,,,,,,,,,,,,,,,,,,,,,,,,,,,,,,,,,,,,,,,,,,,,,,,,,,,,,,,,,,,,,,,,,,,,,,,,,,,,,,,,,,,,,,,,,,,,,,,,,,
,8509,BAC,05/05/2005,001,2023-03-21_17h08.34.399,OS3_Mult_verification,2022.2.4,Win32,60.80505898,,,,,,,,,,,,,,,,,,12,1.4503,1,"[""1"",""2"",""return""]","[0.7845999999996138,0.9847999999997796,1.1348999999994476]",,,,,,2 × 6 =,12,0,35,35,35,1,,,,,,,,,,,,,,,,,,,,,,,,,,,,,,,,,,,,,,,,,,,,,,,,,,,,,,,,,,,,,,,,,,,,,,,,,,,,,,,,,,,,,,,,,,,,,,,,,,,,,,,,,,,,,,,,,,,,,,,,,,,,,,,,,,,,,,,,,,,,
,8509,BAC,05/05/2005,001,2023-03-21_17h08.34.399,OS3_Mult_verification,2022.2.4,Win32,60.80505898,,,,,,,,,,,,,,,,,,15,1.6337,1,"[""1"",""5"",""return""]","[0.7965999999996711,1.1510999999996443,1.3350000000000364]",,,,,,3 × 5 =,15,0,36,36,36,1,,,,,,,,,,,,,,,,,,,,,,,,,,,,,,,,,,,,,,,,,,,,,,,,,,,,,,,,,,,,,,,,,,,,,,,,,,,,,,,,,,,,,,,,,,,,,,,,,,,,,,,,,,,,,,,,,,,,,,,,,,,,,,,,,,,,,,,,,,,,
,8509,BAC,05/05/2005,001,2023-03-21_17h08.34.399,OS3_Mult_verification,2022.2.4,Win32,60.80505898,,,,,,,,,,,,,,,,,,18,1.7596,1,"[""1"",""8"",""return""]","[0.9680000000000177,1.1857000000002245,1.4472999999998137]",,,,,,6 × 3 =,18,0,37,37,37,1,,,,,,,,,,,,,,,,,,,,,,,,,,,,,,,,,,,,,,,,,,,,,,,,,,,,,,,,,,,,,,,,,,,,,,,,,,,,,,,,,,,,,,,,,,,,,,,,,,,,,,,,,,,,,,,,,,,,,,,,,,,,,,,,,,,,,,,,,,,,
,8509,BAC,05/05/2005,001,2023-03-21_17h08.34.399,OS3_Mult_verification,2022.2.4,Win32,60.80505898,,,,,,,,,,,,,,,,,,10,1.5838,1,"[""1"",""0"",""return""]","[0.7846000000005802,0.985100000000557,1.274499999999989]",,,,,,2 × 5 =,10,0,38,38,38,1,,,,,,,,,,,,,,,,,,,,,,,,,,,,,,,,,,,,,,,,,,,,,,,,,,,,,,,,,,,,,,,,,,,,,,,,,,,,,,,,,,,,,,,,,,,,,,,,,,,,,,,,,,,,,,,,,,,,,,,,,,,,,,,,,,,,,,,,,,,,
,8509,BAC,05/05/2005,001,2023-03-21_17h08.34.399,OS3_Mult_verification,2022.2.4,Win32,60.80505898,,,,,,,,,,,,,,,,,,32,1.792,1,"[""3"",""2"",""return""]","[1.1472999999998592,1.353900000000408,1.5062999999998397]",,,,,,4 × 8 =,32,0,39,39,39,1,,,,,,,,,,,,,,,,,,,,,,,,,,,,,,,,,,,,,,,,,,,,,,,,,,,,,,,,,,,,,,,,,,,,,,,,,,,,,,,,,,,,,,,,,,,,,,,,,,,,,,,,,,,,,,,,,,,,,,,,,,,,,,,,,,,,,,,,,,,,
,8509,BAC,05/05/2005,001,2023-03-21_17h08.34.399,OS3_Mult_verification,2022.2.4,Win32,60.80505898,,,,,,,,,,,,,,,,,,24,1.9099,1,"[""2"",""4"",""return""]","[1.1517000000001758,1.4025000000000318,1.614500000000021]",,,,,,3 × 8 =,24,0,40,40,40,1,,,,,,,,,,,,,,,,,,,,,,,,,,,,,,,,,,,,,,,,,,,,,,,,,,,,,,,,,,,,,,,,,,,,,,,,,,,,,,,,,,,,,,,,,,,,,,,,,,,,,,,,,,,,,,,,,,,,,,,,,,,,,,,,,,,,,,,,,,,,
,8509,BAC,05/05/2005,001,2023-03-21_17h08.34.399,OS3_Mult_verification,2022.2.4,Win32,60.80505898,,,,,,,,,,,,,,,,,,30,1.7172,1,"[""3"",""0"",""return""]","[1.0014000000003307,1.151600000000542,1.4181000000005497]",,,,,,5 × 6 =,30,0,41,41,41,1,,,,,,,,,,,,,,,,,,,,,,,,,,,,,,,,,,,,,,,,,,,,,,,,,,,,,,,,,,,,,,,,,,,,,,,,,,,,,,,,,,,,,,,,,,,,,,,,,,,,,,,,,,,,,,,,,,,,,,,,,,,,,,,,,,,,,,,,,,,,
,8509,BAC,05/05/2005,001,2023-03-21_17h08.34.399,OS3_Mult_verification,2022.2.4,Win32,60.80505898,,,,,,,,,,,,,,,,,,14,1.6011,1,"[""1"",""4"",""return""]","[0.8182000000002176,1.118200000000229,1.3180999999996175]",,,,,,2 × 7 =,14,0,42,42,42,1,,,,,,,,,,,,,,,,,,,,,,,,,,,,,,,,,,,,,,,,,,,,,,,,,,,,,,,,,,,,,,,,,,,,,,,,,,,,,,,,,,,,,,,,,,,,,,,,,,,,,,,,,,,,,,,,,,,,,,,,,,,,,,,,,,,,,,,,,,,,
,8509,BAC,05/05/2005,001,2023-03-21_17h08.34.399,OS3_Mult_verification,2022.2.4,Win32,60.80505898,,,,,,,,,,,,,,,,,,24,1.9591,1,"[""2"",""4"",""return""]","[1.1677000000001954,1.4187000000002286,1.6517999999998096]",,,,,,6 × 4 =,24,0,43,43,43,1,,,,,,,,,,,,,,,,,,,,,,,,,,,,,,,,,,,,,,,,,,,,,,,,,,,,,,,,,,,,,,,,,,,,,,,,,,,,,,,,,,,,,,,,,,,,,,,,,,,,,,,,,,,,,,,,,,,,,,,,,,,,,,,,,,,,,,,,,,,,
,8509,BAC,05/05/2005,001,2023-03-21_17h08.34.399,OS3_Mult_verification,2022.2.4,Win32,60.80505898,,,,,,,,,,,,,,,,,,21,1.4836,1,"[""2"",""1"",""return""]","[0.8015999999996097,1.0019000000003757,1.1689000000003489]",,,,,,3 × 7 =,21,0,44,44,44,1,,,,,,,,,,,,,,,,,,,,,,,,,,,,,,,,,,,,,,,,,,,,,,,,,,,,,,,,,,,,,,,,,,,,,,,,,,,,,,,,,,,,,,,,,,,,,,,,,,,,,,,,,,,,,,,,,,,,,,,,,,,,,,,,,,,,,,,,,,,,
,8509,BAC,05/05/2005,001,2023-03-21_17h08.34.399,OS3_Mult_verification,2022.2.4,Win32,60.80505898,,,,,,,,,,,,,,,,,,81,2.2508,1,"[""8"",""1"",""return""]","[1.6018000000007078,1.7684999999999604,1.9421000000005506]",,,,,,9 × 9 =,81,0,45,45,45,1,,,,,,,,,,,,,,,,,,,,,,,,,,,,,,,,,,,,,,,,,,,,,,,,,,,,,,,,,,,,,,,,,,,,,,,,,,,,,,,,,,,,,,,,,,,,,,,,,,,,,,,,,,,,,,,,,,,,,,,,,,,,,,,,,,,,,,,,,,,,
,8509,BAC,05/05/2005,001,2023-03-21_17h08.34.399,OS3_Mult_verification,2022.2.4,Win32,60.80505898,,,,,,,,,,,,,,,,,,16,1.9839,1,"[""1"",""6"",""return""]","[0.8037000000002195,1.4519000000004212,1.6749000000003775]",,,,,,8 × 2 =,16,0,46,46,46,1,,,,,,,,,,,,,,,,,,,,,,,,,,,,,,,,,,,,,,,,,,,,,,,,,,,,,,,,,,,,,,,,,,,,,,,,,,,,,,,,,,,,,,,,,,,,,,,,,,,,,,,,,,,,,,,,,,,,,,,,,,,,,,,,,,,,,,,,,,,,
,8509,BAC,05/05/2005,001,2023-03-21_17h08.34.399,OS3_Mult_verification,2022.2.4,Win32,60.80505898,,,,,,,,,,,,,,,,,,48,2.1422,1,"[""4"",""8"",""return""]","[1.225500000000011,1.568600000000572,1.8356000000005679]",,,,,,6 × 8 =,48,0,47,47,47,1,,,,,,,,,,,,,,,,,,,,,,,,,,,,,,,,,,,,,,,,,,,,,,,,,,,,,,,,,,,,,,,,,,,,,,,,,,,,,,,,,,,,,,,,,,,,,,,,,,,,,,,,,,,,,,,,,,,,,,,,,,,,,,,,,,,,,,,,,,,,
,8509,BAC,05/05/2005,001,2023-03-21_17h08.34.399,OS3_Mult_verification,2022.2.4,Win32,60.80505898,,,,,,,,,,,,,,,,,,,0.9585,0,,,,,,,,7 × 4 =,28,0,48,48,48,1,,,,,,,,,,,,,,,,,,,,,,,,,,,,,,,,,,,,,,,,,,,,,,,,,,,,,,,,,,,,,,,,,,,,,,,,,,,,,,,,,,,,,,,,,,,,,,,,,,,,,,,,,,,,,,,,,,,,,,,,,,,,,,,,,,,,,,,,,,,,
,8509,BAC,05/05/2005,001,2023-03-21_17h08.34.399,OS3_Mult_verification,2022.2.4,Win32,60.80505898,,,,,,,,,,,,,,,,space,1.4176,,,,,,,,,,,,,,,,,,FALSE,5.1951,-0.032638868,-0.336805556,1,0,0,0,0,0,1,1,practice trial,,3,3,,,,,,,,,,,,,,,,,,,,,,,,,,,,,,,,,,,,,,,,,,,,,,,,,,,,,,,,,,,,,,,,,,,,,,,,,,,,,,,,,,,,,,,,,,,,,,,,,,,,,,,,,,,,,,,,,,,,,,,,,,,,
,8509,BAC,05/05/2005,001,2023-03-21_17h08.34.399,OS3_Mult_verification,2022.2.4,Win32,60.80505898,,,,,,,,,,,,,,,,,,,,,,,,,,,,,,,,,,,TRUE,2.5351,-0.013194455,-0.347222222,1,0,0,0,1,1,2,1,practice trial,,3,3,,,,,,,,,,,,,,,,,,,,,,,,,,,,,,,,,,,,,,,,,,,,,,,,,,,,,,,,,,,,,,,,,,,,,,,,,,,,,,,,,,,,,,,,,,,,,,,,,,,,,,,,,,,,,,,,,,,,,,,,,,,,
,8509,BAC,05/05/2005,001,2023-03-21_17h08.34.399,OS3_Mult_verification,2022.2.4,Win32,60.80505898,,,,,,,,,,,,,,,,,,,,,,,,,,,,,,,,,,,TRUE,4.3699,0.01666673,-0.363888899,1,0,0,0,2,2,0,1,practice trial,,3,3,,,,,,,,,,,,,,,,,,,,,,,,,,,,,,,,,,,,,,,,,,,,,,,,,,,,,,,,,,,,,,,,,,,,,,,,,,,,,,,,,,,,,,,,,,,,,,,,,,,,,,,,,,,,,,,,,,,,,,,,,,,,
,8509,BAC,05/05/2005,001,2023-03-21_17h08.34.399,OS3_Mult_verification,2022.2.4,Win32,60.80505898,,,,,,,,,,,,,,,,,,,,,,,,,,,,,,,,,,,TRUE,1.2175,0.061805619,-0.361805545,1,0,0,,,,,,Trial #1,,2,2,0,0,0,0,1,2,,,,,,,,,,,,,,,,,,,,,,,,,,,,,,,,,,,,,,,,,,,,,,,,,,,,,,,,,,,,,,,,,,,,,,,,,,,,,,,,,,,,,,,,,,,,,,,,,,,,,,,,,,,,,,,,,,,,,,
,8509,BAC,05/05/2005,001,2023-03-21_17h08.34.399,OS3_Mult_verification,2022.2.4,Win32,60.80505898,,,,,,,,,,,,,,,,,,,,,,,,,,,,,,,,,,,TRUE,1.4844,0.035416709,-0.328472243,1,0,0,,,,,,Trial #1,,2,2,0,1,1,1,1,2,,,,,,,,,,,,,,,,,,,,,,,,,,,,,,,,,,,,,,,,,,,,,,,,,,,,,,,,,,,,,,,,,,,,,,,,,,,,,,,,,,,,,,,,,,,,,,,,,,,,,,,,,,,,,,,,,,,,,,
,8509,BAC,05/05/2005,001,2023-03-21_17h08.34.399,OS3_Mult_verification,2022.2.4,Win32,60.80505898,,,,,,,,,,,,,,,,,,,,,,,,,,,,,,,,,,,TRUE,1.2171,0.006944444,-0.319444444,1,0,0,,,,,,Trial #1,,2,2,0,2,2,2,1,2,,,,,,,,,,,,,,,,,,,,,,,,,,,,,,,,,,,,,,,,,,,,,,,,,,,,,,,,,,,,,,,,,,,,,,,,,,,,,,,,,,,,,,,,,,,,,,,,,,,,,,,,,,,,,,,,,,,,,,
,8509,BAC,05/05/2005,001,2023-03-21_17h08.34.399,OS3_Mult_verification,2022.2.4,Win32,60.80505898,,,,,,,,,,,,,,,,,,,,,,,,,,,,,,,,,,,TRUE,1.8187,0.060416645,-0.334027767,1,0,0,,,,,,Trial #2,,3,3,0,0,0,0,1,3,,,,,,,,,,,,,,,,,,,,,,,,,,,,,,,,,,,,,,,,,,,,,,,,,,,,,,,,,,,,,,,,,,,,,,,,,,,,,,,,,,,,,,,,,,,,,,,,,,,,,,,,,,,,,,,,,,,,,,
,8509,BAC,05/05/2005,001,2023-03-21_17h08.34.399,OS3_Mult_verification,2022.2.4,Win32,60.80505898,,,,,,,,,,,,,,,,,,,,,,,,,,,,,,,,,,,TRUE,2.0351,0.009027799,-0.343055566,1,0,0,,,,,,Trial #2,,3,3,0,1,1,1,1,3,,,,,,,,,,,,,,,,,,,,,,,,,,,,,,,,,,,,,,,,,,,,,,,,,,,,,,,,,,,,,,,,,,,,,,,,,,,,,,,,,,,,,,,,,,,,,,,,,,,,,,,,,,,,,,,,,,,,,,
,8509,BAC,05/05/2005,001,2023-03-21_17h08.34.399,OS3_Mult_verification,2022.2.4,Win32,60.80505898,,,,,,,,,,,,,,,,,,,,,,,,,,,,,,,,,,,TRUE,2.7438,0.025694423,-0.334027767,1,0,0,,,,,,Trial #2,,3,3,0,2,2,2,1,3,,,,,,,,,,,,,,,,,,,,,,,,,,,,,,,,,,,,,,,,,,,,,,,,,,,,,,,,,,,,,,,,,,,,,,,,,,,,,,,,,,,,,,,,,,,,,,,,,,,,,,,,,,,,,,,,,,,,,,
,8509,BAC,05/05/2005,001,2023-03-21_17h08.34.399,OS3_Mult_verification,2022.2.4,Win32,60.80505898,,,,,,,,,,,,,,,,,,,,,,,,,,,,,,,,,,,TRUE,2.378,0.013194508,-0.337499989,1,0,0,,,,,,Trial #3,,3,3,0,0,0,0,1,4,,,,,,,,,,,,,,,,,,,,,,,,,,,,,,,,,,,,,,,,,,,,,,,,,,,,,,,,,,,,,,,,,,,,,,,,,,,,,,,,,,,,,,,,,,,,,,,,,,,,,,,,,,,,,,,,,,,,,,
,8509,BAC,05/05/2005,001,2023-03-21_17h08.34.399,OS3_Mult_verification,2022.2.4,Win32,60.80505898,,,,,,,,,,,,,,,,,,,,,,,,,,,,,,,,,,,FALSE,2.7962,-0.018749979,-0.356944455,1,0,0,,,,,,Trial #3,,3,3,0,1,1,1,1,4,,,,,,,,,,,,,,,,,,,,,,,,,,,,,,,,,,,,,,,,,,,,,,,,,,,,,,,,,,,,,,,,,,,,,,,,,,,,,,,,,,,,,,,,,,,,,,,,,,,,,,,,,,,,,,,,,,,,,,
,8509,BAC,05/05/2005,001,2023-03-21_17h08.34.399,OS3_Mult_verification,2022.2.4,Win32,60.80505898,,,,,,,,,,,,,,,,,,,,,,,,,,,,,,,,,,,TRUE,2.6686,-0.032638868,-0.352083365,1,0,0,,,,,,Trial #3,,3,3,0,2,2,2,1,4,,,,,,,,,,,,,,,,,,,,,,,,,,,,,,,,,,,,,,,,,,,,,,,,,,,,,,,,,,,,,,,,,,,,,,,,,,,,,,,,,,,,,,,,,,,,,,,,,,,,,,,,,,,,,,,,,,,,,,
,8509,BAC,05/05/2005,001,2023-03-21_17h08.34.399,OS3_Mult_verification,2022.2.4,Win32,60.80505898,,,,,,,,,,,,,,,,,,,,,,,,,,,,,,,,,,,TRUE,3.0356,0.019444466,-0.377777788,1,0,0,,,,,,Trial #4,,4,4,0,0,0,0,1,5,,,,,,,,,,,,,,,,,,,,,,,,,,,,,,,,,,,,,,,,,,,,,,,,,,,,,,,,,,,,,,,,,,,,,,,,,,,,,,,,,,,,,,,,,,,,,,,,,,,,,,,,,,,,,,,,,,,,,,
,8509,BAC,05/05/2005,001,2023-03-21_17h08.34.399,OS3_Mult_verification,2022.2.4,Win32,60.80505898,,,,,,,,,,,,,,,,,,,,,,,,,,,,,,,,,,,TRUE,2.4018,-0.022916635,-0.321527799,1,0,0,,,,,,Trial #4,,4,4,0,1,1,1,1,5,,,,,,,,,,,,,,,,,,,,,,,,,,,,,,,,,,,,,,,,,,,,,,,,,,,,,,,,,,,,,,,,,,,,,,,,,,,,,,,,,,,,,,,,,,,,,,,,,,,,,,,,,,,,,,,,,,,,,,
,8509,BAC,05/05/2005,001,2023-03-21_17h08.34.399,OS3_Mult_verification,2022.2.4,Win32,60.80505898,,,,,,,,,,,,,,,,,,,,,,,,,,,,,,,,,,,TRUE,2.5685,0.006250064,-0.324305587,1,0,0,,,,,,Trial #4,,4,4,0,2,2,2,1,5,,,,,,,,,,,,,,,,,,,,,,,,,,,,,,,,,,,,,,,,,,,,,,,,,,,,,,,,,,,,,,,,,,,,,,,,,,,,,,,,,,,,,,,,,,,,,,,,,,,,,,,,,,,,,,,,,,,,,,
,8509,BAC,05/05/2005,001,2023-03-21_17h08.34.399,OS3_Mult_verification,2022.2.4,Win32,60.80505898,,,,,,,,,,,,,,,,,,,,,,,,,,,,,,,,,,,FALSE,2.5522,0.015972243,-0.339583344,1,0,0,,,,,,Trial #5,,4,4,0,0,0,0,1,6,,,,,,,,,,,,,,,,,,,,,,,,,,,,,,,,,,,,,,,,,,,,,,,,,,,,,,,,,,,,,,,,,,,,,,,,,,,,,,,,,,,,,,,,,,,,,,,,,,,,,,,,,,,,,,,,,,,,,,
,8509,BAC,05/05/2005,001,2023-03-21_17h08.34.399,OS3_Mult_verification,2022.2.4,Win32,60.80505898,,,,,,,,,,,,,,,,,,,,,,,,,,,,,,,,,,,TRUE,2.3527,0.031944487,-0.329166677,1,0,0,,,,,,Trial #5,,4,4,0,1,1,1,1,6,,,,,,,,,,,,,,,,,,,,,,,,,,,,,,,,,,,,,,,,,,,,,,,,,,,,,,,,,,,,,,,,,,,,,,,,,,,,,,,,,,,,,,,,,,,,,,,,,,,,,,,,,,,,,,,,,,,,,,
,8509,BAC,05/05/2005,001,2023-03-21_17h08.34.399,OS3_Mult_verification,2022.2.4,Win32,60.80505898,,,,,,,,,,,,,,,,,,,,,,,,,,,,,,,,,,,TRUE,2.4428,0.046527757,-0.352083365,1,0,0,,,,,,Trial #5,,4,4,0,2,2,2,1,6,,,,,,,,,,,,,,,,,,,,,,,,,,,,,,,,,,,,,,,,,,,,,,,,,,,,,,,,,,,,,,,,,,,,,,,,,,,,,,,,,,,,,,,,,,,,,,,,,,,,,,,,,,,,,,,,,,,,,,
,8509,BAC,05/05/2005,001,2023-03-21_17h08.34.399,OS3_Mult_verification,2022.2.4,Win32,60.80505898,,,,,,,,,,,,,,,,,,,,,,,,,,,,,,,,,,,TRUE,2.8639,0.005555577,-0.329861111,1,0,0,,,,,,Trial #6,,4,4,0,0,0,0,1,7,,,,,,,,,,,,,,,,,,,,,,,,,,,,,,,,,,,,,,,,,,,,,,,,,,,,,,,,,,,,,,,,,,,,,,,,,,,,,,,,,,,,,,,,,,,,,,,,,,,,,,,,,,,,,,,,,,,,,,
,8509,BAC,05/05/2005,001,2023-03-21_17h08.34.399,OS3_Mult_verification,2022.2.4,Win32,60.80505898,,,,,,,,,,,,,,,,,,,,,,,,,,,,,,,,,,,FALSE,4.0706,0.043750021,-0.334027767,1,0,0,,,,,,Trial #6,,4,4,0,1,1,1,1,7,,,,,,,,,,,,,,,,,,,,,,,,,,,,,,,,,,,,,,,,,,,,,,,,,,,,,,,,,,,,,,,,,,,,,,,,,,,,,,,,,,,,,,,,,,,,,,,,,,,,,,,,,,,,,,,,,,,,,,
,8509,BAC,05/05/2005,001,2023-03-21_17h08.34.399,OS3_Mult_verification,2022.2.4,Win32,60.80505898,,,,,,,,,,,,,,,,,,,,,,,,,,,,,,,,,,,FALSE,3.5191,0.05277782,-0.325694455,1,0,0,,,,,,Trial #6,,4,4,0,2,2,2,1,7,,,,,,,,,,,,,,,,,,,,,,,,,,,,,,,,,,,,,,,,,,,,,,,,,,,,,,,,,,,,,,,,,,,,,,,,,,,,,,,,,,,,,,,,,,,,,,,,,,,,,,,,,,,,,,,,,,,,,,
,8509,BAC,05/05/2005,001,2023-03-21_17h08.34.399,OS3_Mult_verification,2022.2.4,Win32,60.80505898,,,,,,,,,,,,,,,,,,,,,,,,,,,,,,,,,,,,,,,,,,,,,,,,,,,,,,,,,0,0,0,0,1,,,,,,,,,,,,,,,,,,,,,,,,,,,,,,,,,,,,,,,,,,,,,,,,,,,,,,,,,,,,,,,,,,,,,,,,,,,,,,,,,,,,,,,,,,,,,,,,,,,,,,,,,,,,,,,,,
,8509,BAC,05/05/2005,001,2023-03-21_17h08.34.399,OS3_Mult_verification,2022.2.4,Win32,60.80505898,,,,,,,,,,,,,,,,,,,,,,,,,,,,,,,,,,,,,,,,,,,,,,,,,,,,,,,,,,,,,,0,0,0,0,1,0,1,0,,,,,,,,,,,,,,,,,,,,,,,,,,,,,,,,,,,,,,,,,,,,,,,,,,,,,,,,,,,,,,,,,,,,,,,,,,,,,,,,,,,,,,,,,,,,,,,,,,,,,,,,,
,8509,BAC,05/05/2005,001,2023-03-21_17h08.34.399,OS3_Mult_verification,2022.2.4,Win32,60.80505898,,,,,,,,,,,,,,,,space,1.1682,,,,,,,,,,,,,,,,,,,,,,,,,,,,,,,,,,,,,,,,,,,,,,,,,,,,,right,1,1.295,0,0,0,1,1,practice,7,8,7 | 8,1,0.065,0.05,incongruent,right,,,,,,,,,,,,,,,,,,,,,,,,,,,,,,,,,,,,,,,,,,,,,,,,,,,,,,,,,,,,,,,,,,,,,,,,,,,,,,,,,,,,,,,,
,8509,BAC,05/05/2005,001,2023-03-21_17h08.34.399,OS3_Mult_verification,2022.2.4,Win32,60.80505898,,,,,,,,,,,,,,,,,,,,,,,,,,,,,,,,,,,,,,,,,,,,,,,,,,,,,,,,,,,,,,,,,,,,,,right,1,0.7246,0,1,1,2,1,practice,4,9,4 | 9,5,0.06,0.06,neutral,right,,,,,,,,,,,,,,,,,,,,,,,,,,,,,,,,,,,,,,,,,,,,,,,,,,,,,,,,,,,,,,,,,,,,,,,,,,,,,,,,,,,,,,,,
,8509,BAC,05/05/2005,001,2023-03-21_17h08.34.399,OS3_Mult_verification,2022.2.4,Win32,60.80505898,,,,,,,,,,,,,,,,,,,,,,,,,,,,,,,,,,,,,,,,,,,,,,,,,,,,,,,,,,,,,,,,,,,,,,right,1,1.078,0,2,2,0,1,practice,1,2,1 | 2,1,0.05,0.065,congruent,right,,,,,,,,,,,,,,,,,,,,,,,,,,,,,,,,,,,,,,,,,,,,,,,,,,,,,,,,,,,,,,,,,,,,,,,,,,,,,,,,,,,,,,,,
,8509,BAC,05/05/2005,001,2023-03-21_17h08.34.399,OS3_Mult_verification,2022.2.4,Win32,60.80505898,,,,,,,,,,,,,,,,,,,,,,,,,,,,,,,,,,,,,,,,,,,,,,,,,,,,,,,,,,,,,,,,,,,,,,right,1,1.3988,,,,,,magnitude,4,9,4 | 9,5,0.05,0.065,congruent,right,0,0,0,19,1,,,,,,,,,,,,,,,,,,,,,,,,,,,,,,,,,,,,,,,,,,,,,,,,,,,,,,,,,,,,,,,,,,,,,,,,,,,,,,,,,,,
,8509,BAC,05/05/2005,001,2023-03-21_17h08.34.399,OS3_Mult_verification,2022.2.4,Win32,60.80505898,,,,,,,,,,,,,,,,,,,,,,,,,,,,,,,,,,,,,,,,,,,,,,,,,,,,,,,,,,,,,,,,,,,,,,right,1,1.7512,,,,,,magnitude,4,9,4 | 9,5,0.065,0.05,incongruent,right,0,1,1,43,1,,,,,,,,,,,,,,,,,,,,,,,,,,,,,,,,,,,,,,,,,,,,,,,,,,,,,,,,,,,,,,,,,,,,,,,,,,,,,,,,,,,
,8509,BAC,05/05/2005,001,2023-03-21_17h08.34.399,OS3_Mult_verification,2022.2.4,Win32,60.80505898,,,,,,,,,,,,,,,,,,,,,,,,,,,,,,,,,,,,,,,,,,,,,,,,,,,,,,,,,,,,,,,,,,,,,,left,1,0.8639,,,,,,magnitude,9,8,9 | 8,1,0.065,0.05,congruent,left,0,2,2,7,1,,,,,,,,,,,,,,,,,,,,,,,,,,,,,,,,,,,,,,,,,,,,,,,,,,,,,,,,,,,,,,,,,,,,,,,,,,,,,,,,,,,
,8509,BAC,05/05/2005,001,2023-03-21_17h08.34.399,OS3_Mult_verification,2022.2.4,Win32,60.80505898,,,,,,,,,,,,,,,,,,,,,,,,,,,,,,,,,,,,,,,,,,,,,,,,,,,,,,,,,,,,,,,,,,,,,,right,1,0.7315,,,,,,magnitude,3,8,3 | 8,5,0.065,0.05,incongruent,right,0,3,3,42,1,,,,,,,,,,,,,,,,,,,,,,,,,,,,,,,,,,,,,,,,,,,,,,,,,,,,,,,,,,,,,,,,,,,,,,,,,,,,,,,,,,,
,8509,BAC,05/05/2005,001,2023-03-21_17h08.34.399,OS3_Mult_verification,2022.2.4,Win32,60.80505898,,,,,,,,,,,,,,,,,,,,,,,,,,,,,,,,,,,,,,,,,,,,,,,,,,,,,,,,,,,,,,,,,,,,,,right,1,0.6951,,,,,,magnitude,6,8,6 | 8,2,0.065,0.05,incongruent,right,0,4,4,34,1,,,,,,,,,,,,,,,,,,,,,,,,,,,,,,,,,,,,,,,,,,,,,,,,,,,,,,,,,,,,,,,,,,,,,,,,,,,,,,,,,,,
,8509,BAC,05/05/2005,001,2023-03-21_17h08.34.399,OS3_Mult_verification,2022.2.4,Win32,60.80505898,,,,,,,,,,,,,,,,,,,,,,,,,,,,,,,,,,,,,,,,,,,,,,,,,,,,,,,,,,,,,,,,,,,,,,right,1,0.6316,,,,,,magnitude,1,3,1 | 3,2,0.05,0.065,congruent,right,0,5,5,8,1,,,,,,,,,,,,,,,,,,,,,,,,,,,,,,,,,,,,,,,,,,,,,,,,,,,,,,,,,,,,,,,,,,,,,,,,,,,,,,,,,,,
,8509,BAC,05/05/2005,001,2023-03-21_17h08.34.399,OS3_Mult_verification,2022.2.4,Win32,60.80505898,,,,,,,,,,,,,,,,,,,,,,,,,,,,,,,,,,,,,,,,,,,,,,,,,,,,,,,,,,,,,,,,,,,,,,right,1,0.4615,,,,,,magnitude,1,3,1 | 3,2,0.06,0.06,neutral,right,0,6,6,56,1,,,,,,,,,,,,,,,,,,,,,,,,,,,,,,,,,,,,,,,,,,,,,,,,,,,,,,,,,,,,,,,,,,,,,,,,,,,,,,,,,,,
,8509,BAC,05/05/2005,001,2023-03-21_17h08.34.399,OS3_Mult_verification,2022.2.4,Win32,60.80505898,,,,,,,,,,,,,,,,,,,,,,,,,,,,,,,,,,,,,,,,,,,,,,,,,,,,,,,,,,,,,,,,,,,,,,right,1,0.6295,,,,,,magnitude,2,4,2 | 4,2,0.05,0.065,congruent,right,0,7,7,9,1,,,,,,,,,,,,,,,,,,,,,,,,,,,,,,,,,,,,,,,,,,,,,,,,,,,,,,,,,,,,,,,,,,,,,,,,,,,,,,,,,,,
,8509,BAC,05/05/2005,001,2023-03-21_17h08.34.399,OS3_Mult_verification,2022.2.4,Win32,60.80505898,,,,,,,,,,,,,,,,,,,,,,,,,,,,,,,,,,,,,,,,,,,,,,,,,,,,,,,,,,,,,,,,,,,,,,left,1,0.553,,,,,,magnitude,8,3,8 | 3,5,0.05,0.065,incongruent,left,0,8,8,46,1,,,,,,,,,,,,,,,,,,,,,,,,,,,,,,,,,,,,,,,,,,,,,,,,,,,,,,,,,,,,,,,,,,,,,,,,,,,,,,,,,,,
,8509,BAC,05/05/2005,001,2023-03-21_17h08.34.399,OS3_Mult_verification,2022.2.4,Win32,60.80505898,,,,,,,,,,,,,,,,,,,,,,,,,,,,,,,,,,,,,,,,,,,,,,,,,,,,,,,,,,,,,,,,,,,,,,right,0,0.607,,,,,,magnitude,9,7,9 | 7,2,0.065,0.05,congruent,left,0,9,9,15,1,,,,,,,,,,,,,,,,,,,,,,,,,,,,,,,,,,,,,,,,,,,,,,,,,,,,,,,,,,,,,,,,,,,,,,,,,,,,,,,,,,,
,8509,BAC,05/05/2005,001,2023-03-21_17h08.34.399,OS3_Mult_verification,2022.2.4,Win32,60.80505898,,,,,,,,,,,,,,,,,,,,,,,,,,,,,,,,,,,,,,,,,,,,,,,,,,,,,,,,,,,,,,,,,,,,,,left,1,1.5251,,,,,,magnitude,2,1,2 | 1,1,0.06,0.06,neutral,left,0,10,10,52,1,,,,,,,,,,,,,,,,,,,,,,,,,,,,,,,,,,,,,,,,,,,,,,,,,,,,,,,,,,,,,,,,,,,,,,,,,,,,,,,,,,,
,8509,BAC,05/05/2005,001,2023-03-21_17h08.34.399,OS3_Mult_verification,2022.2.4,Win32,60.80505898,,,,,,,,,,,,,,,,,,,,,,,,,,,,,,,,,,,,,,,,,,,,,,,,,,,,,,,,,,,,,,,,,,,,,,left,1,0.7568,,,,,,magnitude,9,4,9 | 4,5,0.05,0.065,incongruent,left,0,11,11,47,1,,,,,,,,,,,,,,,,,,,,,,,,,,,,,,,,,,,,,,,,,,,,,,,,,,,,,,,,,,,,,,,,,,,,,,,,,,,,,,,,,,,
,8509,BAC,05/05/2005,001,2023-03-21_17h08.34.399,OS3_Mult_verification,2022.2.4,Win32,60.80505898,,,,,,,,,,,,,,,,,,,,,,,,,,,,,,,,,,,,,,,,,,,,,,,,,,,,,,,,,,,,,,,,,,,,,,left,1,0.6159,,,,,,magnitude,4,2,4 | 2,2,0.05,0.065,incongruent,left,0,12,12,37,1,,,,,,,,,,,,,,,,,,,,,,,,,,,,,,,,,,,,,,,,,,,,,,,,,,,,,,,,,,,,,,,,,,,,,,,,,,,,,,,,,,,
,8509,BAC,05/05/2005,001,2023-03-21_17h08.34.399,OS3_Mult_verification,2022.2.4,Win32,60.80505898,,,,,,,,,,,,,,,,,,,,,,,,,,,,,,,,,,,,,,,,,,,,,,,,,,,,,,,,,,,,,,,,,,,,,,right,1,0.9137,,,,,,magnitude,3,4,3 | 4,1,0.05,0.065,congruent,right,0,13,13,1,1,,,,,,,,,,,,,,,,,,,,,,,,,,,,,,,,,,,,,,,,,,,,,,,,,,,,,,,,,,,,,,,,,,,,,,,,,,,,,,,,,,,
,8509,BAC,05/05/2005,001,2023-03-21_17h08.34.399,OS3_Mult_verification,2022.2.4,Win32,60.80505898,,,,,,,,,,,,,,,,,,,,,,,,,,,,,,,,,,,,,,,,,,,,,,,,,,,,,,,,,,,,,,,,,,,,,,left,0,1.3601,,,,,,magnitude,2,7,2 | 7,5,0.06,0.06,neutral,right,0,14,14,65,1,,,,,,,,,,,,,,,,,,,,,,,,,,,,,,,,,,,,,,,,,,,,,,,,,,,,,,,,,,,,,,,,,,,,,,,,,,,,,,,,,,,
,8509,BAC,05/05/2005,001,2023-03-21_17h08.34.399,OS3_Mult_verification,2022.2.4,Win32,60.80505898,,,,,,,,,,,,,,,,,,,,,,,,,,,,,,,,,,,,,,,,,,,,,,,,,,,,,,,,,,,,,,,,,,,,,,right,1,0.661,,,,,,magnitude,1,3,1 | 3,2,0.065,0.05,incongruent,right,0,15,15,32,1,,,,,,,,,,,,,,,,,,,,,,,,,,,,,,,,,,,,,,,,,,,,,,,,,,,,,,,,,,,,,,,,,,,,,,,,,,,,,,,,,,,
,8509,BAC,05/05/2005,001,2023-03-21_17h08.34.399,OS3_Mult_verification,2022.2.4,Win32,60.80505898,,,,,,,,,,,,,,,,,,,,,,,,,,,,,,,,,,,,,,,,,,,,,,,,,,,,,,,,,,,,,,,,,,,,,,right,1,0.7769,,,,,,magnitude,6,7,6 | 7,1,0.065,0.05,incongruent,right,0,16,16,26,1,,,,,,,,,,,,,,,,,,,,,,,,,,,,,,,,,,,,,,,,,,,,,,,,,,,,,,,,,,,,,,,,,,,,,,,,,,,,,,,,,,,
,8509,BAC,05/05/2005,001,2023-03-21_17h08.34.399,OS3_Mult_verification,2022.2.4,Win32,60.80505898,,,,,,,,,,,,,,,,,,,,,,,,,,,,,,,,,,,,,,,,,,,,,,,,,,,,,,,,,,,,,,,,,,,,,,right,1,0.5965,,,,,,magnitude,6,7,6 | 7,1,0.06,0.06,neutral,right,0,17,17,50,1,,,,,,,,,,,,,,,,,,,,,,,,,,,,,,,,,,,,,,,,,,,,,,,,,,,,,,,,,,,,,,,,,,,,,,,,,,,,,,,,,,,
,8509,BAC,05/05/2005,001,2023-03-21_17h08.34.399,OS3_Mult_verification,2022.2.4,Win32,60.80505898,,,,,,,,,,,,,,,,,,,,,,,,,,,,,,,,,,,,,,,,,,,,,,,,,,,,,,,,,,,,,,,,,,,,,,left,1,0.7977,,,,,,magnitude,9,7,9 | 7,2,0.06,0.06,neutral,left,0,18,18,63,1,,,,,,,,,,,,,,,,,,,,,,,,,,,,,,,,,,,,,,,,,,,,,,,,,,,,,,,,,,,,,,,,,,,,,,,,,,,,,,,,,,,
,8509,BAC,05/05/2005,001,2023-03-21_17h08.34.399,OS3_Mult_verification,2022.2.4,Win32,60.80505898,,,,,,,,,,,,,,,,,,,,,,,,,,,,,,,,,,,,,,,,,,,,,,,,,,,,,,,,,,,,,,,,,,,,,,right,1,0.7609,,,,,,magnitude,8,9,8 | 9,1,0.06,0.06,neutral,right,0,19,19,51,1,,,,,,,,,,,,,,,,,,,,,,,,,,,,,,,,,,,,,,,,,,,,,,,,,,,,,,,,,,,,,,,,,,,,,,,,,,,,,,,,,,,
,8509,BAC,05/05/2005,001,2023-03-21_17h08.34.399,OS3_Mult_verification,2022.2.4,Win32,60.80505898,,,,,,,,,,,,,,,,,,,,,,,,,,,,,,,,,,,,,,,,,,,,,,,,,,,,,,,,,,,,,,,,,,,,,,right,1,0.6788,,,,,,magnitude,4,9,4 | 9,5,0.06,0.06,neutral,right,0,20,20,67,1,,,,,,,,,,,,,,,,,,,,,,,,,,,,,,,,,,,,,,,,,,,,,,,,,,,,,,,,,,,,,,,,,,,,,,,,,,,,,,,,,,,
,8509,BAC,05/05/2005,001,2023-03-21_17h08.34.399,OS3_Mult_verification,2022.2.4,Win32,60.80505898,,,,,,,,,,,,,,,,,,,,,,,,,,,,,,,,,,,,,,,,,,,,,,,,,,,,,,,,,,,,,,,,,,,,,,left,1,0.6128,,,,,,magnitude,4,3,4 | 3,1,0.05,0.065,incongruent,left,0,21,21,29,1,,,,,,,,,,,,,,,,,,,,,,,,,,,,,,,,,,,,,,,,,,,,,,,,,,,,,,,,,,,,,,,,,,,,,,,,,,,,,,,,,,,
,8509,BAC,05/05/2005,001,2023-03-21_17h08.34.399,OS3_Mult_verification,2022.2.4,Win32,60.80505898,,,,,,,,,,,,,,,,,,,,,,,,,,,,,,,,,,,,,,,,,,,,,,,,,,,,,,,,,,,,,,,,,,,,,,right,1,1.1984,,,,,,magnitude,8,9,8 | 9,1,0.065,0.05,incongruent,right,0,22,22,27,1,,,,,,,,,,,,,,,,,,,,,,,,,,,,,,,,,,,,,,,,,,,,,,,,,,,,,,,,,,,,,,,,,,,,,,,,,,,,,,,,,,,
,8509,BAC,05/05/2005,001,2023-03-21_17h08.34.399,OS3_Mult_verification,2022.2.4,Win32,60.80505898,,,,,,,,,,,,,,,,,,,,,,,,,,,,,,,,,,,,,,,,,,,,,,,,,,,,,,,,,,,,,,,,,,,,,,left,1,1.2653,,,,,,magnitude,2,1,2 | 1,1,0.05,0.065,incongruent,left,0,23,23,28,1,,,,,,,,,,,,,,,,,,,,,,,,,,,,,,,,,,,,,,,,,,,,,,,,,,,,,,,,,,,,,,,,,,,,,,,,,,,,,,,,,,,
,8509,BAC,05/05/2005,001,2023-03-21_17h08.34.399,OS3_Mult_verification,2022.2.4,Win32,60.80505898,,,,,,,,,,,,,,,,,,,,,,,,,,,,,,,,,,,,,,,,,,,,,,,,,,,,,,,,,,,,,,,,,,,,,,left,1,1.2338,,,,,,magnitude,6,1,6 | 1,5,0.065,0.05,congruent,left,0,24,24,20,1,,,,,,,,,,,,,,,,,,,,,,,,,,,,,,,,,,,,,,,,,,,,,,,,,,,,,,,,,,,,,,,,,,,,,,,,,,,,,,,,,,,
,8509,BAC,05/05/2005,001,2023-03-21_17h08.34.399,OS3_Mult_verification,2022.2.4,Win32,60.80505898,,,,,,,,,,,,,,,,,,,,,,,,,,,,,,,,,,,,,,,,,,,,,,,,,,,,,,,,,,,,,,,,,,,,,,right,1,0.6686,,,,,,magnitude,7,9,7 | 9,2,0.05,0.065,congruent,right,0,25,25,11,1,,,,,,,,,,,,,,,,,,,,,,,,,,,,,,,,,,,,,,,,,,,,,,,,,,,,,,,,,,,,,,,,,,,,,,,,,,,,,,,,,,,
,8509,BAC,05/05/2005,001,2023-03-21_17h08.34.399,OS3_Mult_verification,2022.2.4,Win32,60.80505898,,,,,,,,,,,,,,,,,,,,,,,,,,,,,,,,,,,,,,,,,,,,,,,,,,,,,,,,,,,,,,,,,,,,,,right,1,1.0588,,,,,,magnitude,3,4,3 | 4,1,0.06,0.06,neutral,right,0,26,26,49,1,,,,,,,,,,,,,,,,,,,,,,,,,,,,,,,,,,,,,,,,,,,,,,,,,,,,,,,,,,,,,,,,,,,,,,,,,,,,,,,,,,,
,8509,BAC,05/05/2005,001,2023-03-21_17h08.34.399,OS3_Mult_verification,2022.2.4,Win32,60.80505898,,,,,,,,,,,,,,,,,,,,,,,,,,,,,,,,,,,,,,,,,,,,,,,,,,,,,,,,,,,,,,,,,,,,,,right,0,0.6261,,,,,,magnitude,8,6,8 | 6,2,0.05,0.065,incongruent,left,0,27,27,38,1,,,,,,,,,,,,,,,,,,,,,,,,,,,,,,,,,,,,,,,,,,,,,,,,,,,,,,,,,,,,,,,,,,,,,,,,,,,,,,,,,,,
,8509,BAC,05/05/2005,001,2023-03-21_17h08.34.399,OS3_Mult_verification,2022.2.4,Win32,60.80505898,,,,,,,,,,,,,,,,,,,,,,,,,,,,,,,,,,,,,,,,,,,,,,,,,,,,,,,,,,,,,,,,,,,,,,right,1,0.8971,,,,,,magnitude,2,7,2 | 7,5,0.05,0.065,congruent,right,0,28,28,17,1,,,,,,,,,,,,,,,,,,,,,,,,,,,,,,,,,,,,,,,,,,,,,,,,,,,,,,,,,,,,,,,,,,,,,,,,,,,,,,,,,,,
,8509,BAC,05/05/2005,001,2023-03-21_17h08.34.399,OS3_Mult_verification,2022.2.4,Win32,60.80505898,,,,,,,,,,,,,,,,,,,,,,,,,,,,,,,,,,,,,,,,,,,,,,,,,,,,,,,,,,,,,,,,,,,,,,left,1,0.7869,,,,,,magnitude,7,6,7 | 6,1,0.05,0.065,incongruent,left,0,29,29,30,1,,,,,,,,,,,,,,,,,,,,,,,,,,,,,,,,,,,,,,,,,,,,,,,,,,,,,,,,,,,,,,,,,,,,,,,,,,,,,,,,,,,
,8509,BAC,05/05/2005,001,2023-03-21_17h08.34.399,OS3_Mult_verification,2022.2.4,Win32,60.80505898,,,,,,,,,,,,,,,,,,,,,,,,,,,,,,,,,,,,,,,,,,,,,,,,,,,,,,,,,,,,,,,,,,,,,,right,1,0.5998,,,,,,magnitude,3,4,3 | 4,1,0.065,0.05,incongruent,right,0,30,30,25,1,,,,,,,,,,,,,,,,,,,,,,,,,,,,,,,,,,,,,,,,,,,,,,,,,,,,,,,,,,,,,,,,,,,,,,,,,,,,,,,,,,,
,8509,BAC,05/05/2005,001,2023-03-21_17h08.34.399,OS3_Mult_verification,2022.2.4,Win32,60.80505898,,,,,,,,,,,,,,,,,,,,,,,,,,,,,,,,,,,,,,,,,,,,,,,,,,,,,,,,,,,,,,,,,,,,,,left,1,1.001,,,,,,magnitude,9,8,9 | 8,1,0.05,0.065,incongruent,left,0,31,31,31,1,,,,,,,,,,,,,,,,,,,,,,,,,,,,,,,,,,,,,,,,,,,,,,,,,,,,,,,,,,,,,,,,,,,,,,,,,,,,,,,,,,,
,8509,BAC,05/05/2005,001,2023-03-21_17h08.34.399,OS3_Mult_verification,2022.2.4,Win32,60.80505898,,,,,,,,,,,,,,,,,,,,,,,,,,,,,,,,,,,,,,,,,,,,,,,,,,,,,,,,,,,,,,,,,,,,,,left,1,1.1771,,,,,,magnitude,7,6,7 | 6,1,0.06,0.06,neutral,left,0,32,32,54,1,,,,,,,,,,,,,,,,,,,,,,,,,,,,,,,,,,,,,,,,,,,,,,,,,,,,,,,,,,,,,,,,,,,,,,,,,,,,,,,,,,,
,8509,BAC,05/05/2005,001,2023-03-21_17h08.34.399,OS3_Mult_verification,2022.2.4,Win32,60.80505898,,,,,,,,,,,,,,,,,,,,,,,,,,,,,,,,,,,,,,,,,,,,,,,,,,,,,,,,,,,,,,,,,,,,,,right,1,1.5159,,,,,,magnitude,8,9,8 | 9,1,0.05,0.065,congruent,right,0,33,33,3,1,,,,,,,,,,,,,,,,,,,,,,,,,,,,,,,,,,,,,,,,,,,,,,,,,,,,,,,,,,,,,,,,,,,,,,,,,,,,,,,,,,,
,8509,BAC,05/05/2005,001,2023-03-21_17h08.34.399,OS3_Mult_verification,2022.2.4,Win32,60.80505898,,,,,,,,,,,,,,,,,,,,,,,,,,,,,,,,,,,,,,,,,,,,,,,,,,,,,,,,,,,,,,,,,,,,,,right,1,0.7207,,,,,,magnitude,3,8,3 | 8,5,0.06,0.06,neutral,right,0,34,34,66,1,,,,,,,,,,,,,,,,,,,,,,,,,,,,,,,,,,,,,,,,,,,,,,,,,,,,,,,,,,,,,,,,,,,,,,,,,,,,,,,,,,,
,8509,BAC,05/05/2005,001,2023-03-21_17h08.34.399,OS3_Mult_verification,2022.2.4,Win32,60.80505898,,,,,,,,,,,,,,,,,,,,,,,,,,,,,,,,,,,,,,,,,,,,,,,,,,,,,,,,,,,,,,,,,,,,,,right,0,0.9641,,,,,,magnitude,8,6,8 | 6,2,0.065,0.05,congruent,left,0,35,35,14,1,,,,,,,,,,,,,,,,,,,,,,,,,,,,,,,,,,,,,,,,,,,,,,,,,,,,,,,,,,,,,,,,,,,,,,,,,,,,,,,,,,,
,8509,BAC,05/05/2005,001,2023-03-21_17h08.34.399,OS3_Mult_verification,2022.2.4,Win32,60.80505898,,,,,,,,,,,,,,,,,,,,,,,,,,,,,,,,,,,,,,,,,,,,,,,,,,,,,,,,,,,,,,,,,,,,,,left,1,0.6653,,,,,,magnitude,8,6,8 | 6,2,0.06,0.06,neutral,left,0,36,36,62,1,,,,,,,,,,,,,,,,,,,,,,,,,,,,,,,,,,,,,,,,,,,,,,,,,,,,,,,,,,,,,,,,,,,,,,,,,,,,,,,,,,,
,8509,BAC,05/05/2005,001,2023-03-21_17h08.34.399,OS3_Mult_verification,2022.2.4,Win32,60.80505898,,,,,,,,,,,,,,,,,,,,,,,,,,,,,,,,,,,,,,,,,,,,,,,,,,,,,,,,,,,,,,,,,,,,,,right,1,1.0705,,,,,,magnitude,2,7,2 | 7,5,0.065,0.05,incongruent,right,0,37,37,41,1,,,,,,,,,,,,,,,,,,,,,,,,,,,,,,,,,,,,,,,,,,,,,,,,,,,,,,,,,,,,,,,,,,,,,,,,,,,,,,,,,,,
,8509,BAC,05/05/2005,001,2023-03-21_17h08.34.399,OS3_Mult_verification,2022.2.4,Win32,60.80505898,,,,,,,,,,,,,,,,,,,,,,,,,,,,,,,,,,,,,,,,,,,,,,,,,,,,,,,,,,,,,,,,,,,,,,left,1,0.8445,,,,,,magnitude,6,1,6 | 1,5,0.06,0.06,neutral,left,0,38,38,68,1,,,,,,,,,,,,,,,,,,,,,,,,,,,,,,,,,,,,,,,,,,,,,,,,,,,,,,,,,,,,,,,,,,,,,,,,,,,,,,,,,,,
,8509,BAC,05/05/2005,001,2023-03-21_17h08.34.399,OS3_Mult_verification,2022.2.4,Win32,60.80505898,,,,,,,,,,,,,,,,,,,,,,,,,,,,,,,,,,,,,,,,,,,,,,,,,,,,,,,,,,,,,,,,,,,,,,left,1,0.6185,,,,,,magnitude,4,3,4 | 3,1,0.06,0.06,neutral,left,0,39,39,53,1,,,,,,,,,,,,,,,,,,,,,,,,,,,,,,,,,,,,,,,,,,,,,,,,,,,,,,,,,,,,,,,,,,,,,,,,,,,,,,,,,,,
,8509,BAC,05/05/2005,001,2023-03-21_17h08.34.399,OS3_Mult_verification,2022.2.4,Win32,60.80505898,,,,,,,,,,,,,,,,,,,,,,,,,,,,,,,,,,,,,,,,,,,,,,,,,,,,,,,,,,,,,,,,,,,,,,right,1,0.6116,,,,,,magnitude,6,7,6 | 7,1,0.05,0.065,congruent,right,0,40,40,2,1,,,,,,,,,,,,,,,,,,,,,,,,,,,,,,,,,,,,,,,,,,,,,,,,,,,,,,,,,,,,,,,,,,,,,,,,,,,,,,,,,,,
,8509,BAC,05/05/2005,001,2023-03-21_17h08.34.399,OS3_Mult_verification,2022.2.4,Win32,60.80505898,,,,,,,,,,,,,,,,,,,,,,,,,,,,,,,,,,,,,,,,,,,,,,,,,,,,,,,,,,,,,,,,,,,,,,right,1,0.8168,,,,,,magnitude,1,6,1 | 6,5,0.06,0.06,neutral,right,0,41,41,64,1,,,,,,,,,,,,,,,,,,,,,,,,,,,,,,,,,,,,,,,,,,,,,,,,,,,,,,,,,,,,,,,,,,,,,,,,,,,,,,,,,,,
,8509,BAC,05/05/2005,001,2023-03-21_17h08.34.399,OS3_Mult_verification,2022.2.4,Win32,60.80505898,,,,,,,,,,,,,,,,,,,,,,,,,,,,,,,,,,,,,,,,,,,,,,,,,,,,,,,,,,,,,,,,,,,,,,right,1,0.7803,,,,,,magnitude,3,8,3 | 8,5,0.05,0.065,congruent,right,0,42,42,18,1,,,,,,,,,,,,,,,,,,,,,,,,,,,,,,,,,,,,,,,,,,,,,,,,,,,,,,,,,,,,,,,,,,,,,,,,,,,,,,,,,,,
,8509,BAC,05/05/2005,001,2023-03-21_17h08.34.399,OS3_Mult_verification,2022.2.4,Win32,60.80505898,,,,,,,,,,,,,,,,,,,,,,,,,,,,,,,,,,,,,,,,,,,,,,,,,,,,,,,,,,,,,,,,,,,,,,left,1,0.5498,,,,,,magnitude,7,2,7 | 2,5,0.06,0.06,neutral,left,0,43,43,69,1,,,,,,,,,,,,,,,,,,,,,,,,,,,,,,,,,,,,,,,,,,,,,,,,,,,,,,,,,,,,,,,,,,,,,,,,,,,,,,,,,,,
,8509,BAC,05/05/2005,001,2023-03-21_17h08.34.399,OS3_Mult_verification,2022.2.4,Win32,60.80505898,,,,,,,,,,,,,,,,,,,,,,,,,,,,,,,,,,,,,,,,,,,,,,,,,,,,,,,,,,,,,,,,,,,,,,right,1,0.7982,,,,,,magnitude,7,9,7 | 9,2,0.065,0.05,incongruent,right,0,44,44,35,1,,,,,,,,,,,,,,,,,,,,,,,,,,,,,,,,,,,,,,,,,,,,,,,,,,,,,,,,,,,,,,,,,,,,,,,,,,,,,,,,,,,
,8509,BAC,05/05/2005,001,2023-03-21_17h08.34.399,OS3_Mult_verification,2022.2.4,Win32,60.80505898,,,,,,,,,,,,,,,,,,,,,,,,,,,,,,,,,,,,,,,,,,,,,,,,,,,,,,,,,,,,,,,,,,,,,,right,1,0.7515,,,,,,magnitude,1,6,1 | 6,5,0.065,0.05,incongruent,right,0,45,45,40,1,,,,,,,,,,,,,,,,,,,,,,,,,,,,,,,,,,,,,,,,,,,,,,,,,,,,,,,,,,,,,,,,,,,,,,,,,,,,,,,,,,,
,8509,BAC,05/05/2005,001,2023-03-21_17h08.34.399,OS3_Mult_verification,2022.2.4,Win32,60.80505898,,,,,,,,,,,,,,,,,,,,,,,,,,,,,,,,,,,,,,,,,,,,,,,,,,,,,,,,,,,,,,,,,,,,,,left,1,0.6801,,,,,,magnitude,9,4,9 | 4,5,0.065,0.05,congruent,left,0,46,46,23,1,,,,,,,,,,,,,,,,,,,,,,,,,,,,,,,,,,,,,,,,,,,,,,,,,,,,,,,,,,,,,,,,,,,,,,,,,,,,,,,,,,,
,8509,BAC,05/05/2005,001,2023-03-21_17h08.34.399,OS3_Mult_verification,2022.2.4,Win32,60.80505898,,,,,,,,,,,,,,,,,,,,,,,,,,,,,,,,,,,,,,,,,,,,,,,,,,,,,,,,,,,,,,,,,,,,,,left,1,0.8756,,,,,,magnitude,3,1,3 | 1,2,0.05,0.065,incongruent,left,0,47,47,36,1,,,,,,,,,,,,,,,,,,,,,,,,,,,,,,,,,,,,,,,,,,,,,,,,,,,,,,,,,,,,,,,,,,,,,,,,,,,,,,,,,,,
,8509,BAC,05/05/2005,001,2023-03-21_17h08.34.399,OS3_Mult_verification,2022.2.4,Win32,60.80505898,,,,,,,,,,,,,,,,,,,,,,,,,,,,,,,,,,,,,,,,,,,,,,,,,,,,,,,,,,,,,,,,,,,,,,left,1,0.6744,,,,,,magnitude,8,3,8 | 3,5,0.06,0.06,neutral,left,0,48,48,70,1,,,,,,,,,,,,,,,,,,,,,,,,,,,,,,,,,,,,,,,,,,,,,,,,,,,,,,,,,,,,,,,,,,,,,,,,,,,,,,,,,,,
,8509,BAC,05/05/2005,001,2023-03-21_17h08.34.399,OS3_Mult_verification,2022.2.4,Win32,60.80505898,,,,,,,,,,,,,,,,,,,,,,,,,,,,,,,,,,,,,,,,,,,,,,,,,,,,,,,,,,,,,,,,,,,,,,right,1,0.6711,,,,,,magnitude,7,9,7 | 9,2,0.06,0.06,neutral,right,0,49,49,59,1,,,,,,,,,,,,,,,,,,,,,,,,,,,,,,,,,,,,,,,,,,,,,,,,,,,,,,,,,,,,,,,,,,,,,,,,,,,,,,,,,,,
,8509,BAC,05/05/2005,001,2023-03-21_17h08.34.399,OS3_Mult_verification,2022.2.4,Win32,60.80505898,,,,,,,,,,,,,,,,,,,,,,,,,,,,,,,,,,,,,,,,,,,,,,,,,,,,,,,,,,,,,,,,,,,,,,right,1,0.6644,,,,,,magnitude,6,8,6 | 8,2,0.05,0.065,congruent,right,0,50,50,10,1,,,,,,,,,,,,,,,,,,,,,,,,,,,,,,,,,,,,,,,,,,,,,,,,,,,,,,,,,,,,,,,,,,,,,,,,,,,,,,,,,,,
,8509,BAC,05/05/2005,001,2023-03-21_17h08.34.399,OS3_Mult_verification,2022.2.4,Win32,60.80505898,,,,,,,,,,,,,,,,,,,,,,,,,,,,,,,,,,,,,,,,,,,,,,,,,,,,,,,,,,,,,,,,,,,,,,left,1,0.6595,,,,,,magnitude,4,2,4 | 2,2,0.06,0.06,neutral,left,0,51,51,61,1,,,,,,,,,,,,,,,,,,,,,,,,,,,,,,,,,,,,,,,,,,,,,,,,,,,,,,,,,,,,,,,,,,,,,,,,,,,,,,,,,,,
,8509,BAC,05/05/2005,001,2023-03-21_17h08.34.399,OS3_Mult_verification,2022.2.4,Win32,60.80505898,,,,,,,,,,,,,,,,,,,,,,,,,,,,,,,,,,,,,,,,,,,,,,,,,,,,,,,,,,,,,,,,,,,,,,left,1,0.6335,,,,,,magnitude,7,2,7 | 2,5,0.065,0.05,congruent,left,0,52,52,21,1,,,,,,,,,,,,,,,,,,,,,,,,,,,,,,,,,,,,,,,,,,,,,,,,,,,,,,,,,,,,,,,,,,,,,,,,,,,,,,,,,,,
,8509,BAC,05/05/2005,001,2023-03-21_17h08.34.399,OS3_Mult_verification,2022.2.4,Win32,60.80505898,,,,,,,,,,,,,,,,,,,,,,,,,,,,,,,,,,,,,,,,,,,,,,,,,,,,,,,,,,,,,,,,,,,,,,left,1,0.5343,,,,,,magnitude,7,2,7 | 2,5,0.05,0.065,incongruent,left,0,53,53,45,1,,,,,,,,,,,,,,,,,,,,,,,,,,,,,,,,,,,,,,,,,,,,,,,,,,,,,,,,,,,,,,,,,,,,,,,,,,,,,,,,,,,
,8509,BAC,05/05/2005,001,2023-03-21_17h08.34.399,OS3_Mult_verification,2022.2.4,Win32,60.80505898,,,,,,,,,,,,,,,,,,,,,,,,,,,,,,,,,,,,,,,,,,,,,,,,,,,,,,,,,,,,,,,,,,,,,,left,1,0.6125,,,,,,magnitude,4,2,4 | 2,2,0.065,0.05,congruent,left,0,54,54,13,1,,,,,,,,,,,,,,,,,,,,,,,,,,,,,,,,,,,,,,,,,,,,,,,,,,,,,,,,,,,,,,,,,,,,,,,,,,,,,,,,,,,
,8509,BAC,05/05/2005,001,2023-03-21_17h08.34.399,OS3_Mult_verification,2022.2.4,Win32,60.80505898,,,,,,,,,,,,,,,,,,,,,,,,,,,,,,,,,,,,,,,,,,,,,,,,,,,,,,,,,,,,,,,,,,,,,,left,1,0.5445,,,,,,magnitude,3,1,3 | 1,2,0.065,0.05,congruent,left,0,55,55,12,1,,,,,,,,,,,,,,,,,,,,,,,,,,,,,,,,,,,,,,,,,,,,,,,,,,,,,,,,,,,,,,,,,,,,,,,,,,,,,,,,,,,
,8509,BAC,05/05/2005,001,2023-03-21_17h08.34.399,OS3_Mult_verification,2022.2.4,Win32,60.80505898,,,,,,,,,,,,,,,,,,,,,,,,,,,,,,,,,,,,,,,,,,,,,,,,,,,,,,,,,,,,,,,,,,,,,,left,1,0.7987,,,,,,magnitude,6,1,6 | 1,5,0.05,0.065,incongruent,left,0,56,56,44,1,,,,,,,,,,,,,,,,,,,,,,,,,,,,,,,,,,,,,,,,,,,,,,,,,,,,,,,,,,,,,,,,,,,,,,,,,,,,,,,,,,,
,8509,BAC,05/05/2005,001,2023-03-21_17h08.34.399,OS3_Mult_verification,2022.2.4,Win32,60.80505898,,,,,,,,,,,,,,,,,,,,,,,,,,,,,,,,,,,,,,,,,,,,,,,,,,,,,,,,,,,,,,,,,,,,,,right,1,1.3612,,,,,,magnitude,1,2,1 | 2,1,0.065,0.05,incongruent,right,0,57,57,24,1,,,,,,,,,,,,,,,,,,,,,,,,,,,,,,,,,,,,,,,,,,,,,,,,,,,,,,,,,,,,,,,,,,,,,,,,,,,,,,,,,,,
,8509,BAC,05/05/2005,001,2023-03-21_17h08.34.399,OS3_Mult_verification,2022.2.4,Win32,60.80505898,,,,,,,,,,,,,,,,,,,,,,,,,,,,,,,,,,,,,,,,,,,,,,,,,,,,,,,,,,,,,,,,,,,,,,right,1,0.6115,,,,,,magnitude,1,2,1 | 2,1,0.05,0.065,congruent,right,0,58,58,0,1,,,,,,,,,,,,,,,,,,,,,,,,,,,,,,,,,,,,,,,,,,,,,,,,,,,,,,,,,,,,,,,,,,,,,,,,,,,,,,,,,,,
,8509,BAC,05/05/2005,001,2023-03-21_17h08.34.399,OS3_Mult_verification,2022.2.4,Win32,60.80505898,,,,,,,,,,,,,,,,,,,,,,,,,,,,,,,,,,,,,,,,,,,,,,,,,,,,,,,,,,,,,,,,,,,,,,left,1,0.5759,,,,,,magnitude,4,3,4 | 3,1,0.065,0.05,congruent,left,0,59,59,5,1,,,,,,,,,,,,,,,,,,,,,,,,,,,,,,,,,,,,,,,,,,,,,,,,,,,,,,,,,,,,,,,,,,,,,,,,,,,,,,,,,,,
,8509,BAC,05/05/2005,001,2023-03-21_17h08.34.399,OS3_Mult_verification,2022.2.4,Win32,60.80505898,,,,,,,,,,,,,,,,,,,,,,,,,,,,,,,,,,,,,,,,,,,,,,,,,,,,,,,,,,,,,,,,,,,,,,right,1,0.5352,,,,,,magnitude,6,8,6 | 8,2,0.06,0.06,neutral,right,0,60,60,58,1,,,,,,,,,,,,,,,,,,,,,,,,,,,,,,,,,,,,,,,,,,,,,,,,,,,,,,,,,,,,,,,,,,,,,,,,,,,,,,,,,,,
,8509,BAC,05/05/2005,001,2023-03-21_17h08.34.399,OS3_Mult_verification,2022.2.4,Win32,60.80505898,,,,,,,,,,,,,,,,,,,,,,,,,,,,,,,,,,,,,,,,,,,,,,,,,,,,,,,,,,,,,,,,,,,,,,left,1,0.5596,,,,,,magnitude,2,1,2 | 1,1,0.065,0.05,congruent,left,0,61,61,4,1,,,,,,,,,,,,,,,,,,,,,,,,,,,,,,,,,,,,,,,,,,,,,,,,,,,,,,,,,,,,,,,,,,,,,,,,,,,,,,,,,,,
,8509,BAC,05/05/2005,001,2023-03-21_17h08.34.399,OS3_Mult_verification,2022.2.4,Win32,60.80505898,,,,,,,,,,,,,,,,,,,,,,,,,,,,,,,,,,,,,,,,,,,,,,,,,,,,,,,,,,,,,,,,,,,,,,left,1,0.8034,,,,,,magnitude,9,8,9 | 8,1,0.06,0.06,neutral,left,0,62,62,55,1,,,,,,,,,,,,,,,,,,,,,,,,,,,,,,,,,,,,,,,,,,,,,,,,,,,,,,,,,,,,,,,,,,,,,,,,,,,,,,,,,,,
,8509,BAC,05/05/2005,001,2023-03-21_17h08.34.399,OS3_Mult_verification,2022.2.4,Win32,60.80505898,,,,,,,,,,,,,,,,,,,,,,,,,,,,,,,,,,,,,,,,,,,,,,,,,,,,,,,,,,,,,,,,,,,,,,right,1,1.0288,,,,,,magnitude,1,2,1 | 2,1,0.06,0.06,neutral,right,0,63,63,48,1,,,,,,,,,,,,,,,,,,,,,,,,,,,,,,,,,,,,,,,,,,,,,,,,,,,,,,,,,,,,,,,,,,,,,,,,,,,,,,,,,,,
,8509,BAC,05/05/2005,001,2023-03-21_17h08.34.399,OS3_Mult_verification,2022.2.4,Win32,60.80505898,,,,,,,,,,,,,,,,,,,,,,,,,,,,,,,,,,,,,,,,,,,,,,,,,,,,,,,,,,,,,,,,,,,,,,left,1,0.6504,,,,,,magnitude,8,3,8 | 3,5,0.065,0.05,congruent,left,0,64,64,22,1,,,,,,,,,,,,,,,,,,,,,,,,,,,,,,,,,,,,,,,,,,,,,,,,,,,,,,,,,,,,,,,,,,,,,,,,,,,,,,,,,,,
,8509,BAC,05/05/2005,001,2023-03-21_17h08.34.399,OS3_Mult_verification,2022.2.4,Win32,60.80505898,,,,,,,,,,,,,,,,,,,,,,,,,,,,,,,,,,,,,,,,,,,,,,,,,,,,,,,,,,,,,,,,,,,,,,right,0,0.5935,,,,,,magnitude,3,1,3 | 1,2,0.06,0.06,neutral,left,0,65,65,60,1,,,,,,,,,,,,,,,,,,,,,,,,,,,,,,,,,,,,,,,,,,,,,,,,,,,,,,,,,,,,,,,,,,,,,,,,,,,,,,,,,,,
,8509,BAC,05/05/2005,001,2023-03-21_17h08.34.399,OS3_Mult_verification,2022.2.4,Win32,60.80505898,,,,,,,,,,,,,,,,,,,,,,,,,,,,,,,,,,,,,,,,,,,,,,,,,,,,,,,,,,,,,,,,,,,,,,left,1,0.583,,,,,,magnitude,9,4,9 | 4,5,0.06,0.06,neutral,left,0,66,66,71,1,,,,,,,,,,,,,,,,,,,,,,,,,,,,,,,,,,,,,,,,,,,,,,,,,,,,,,,,,,,,,,,,,,,,,,,,,,,,,,,,,,,
,8509,BAC,05/05/2005,001,2023-03-21_17h08.34.399,OS3_Mult_verification,2022.2.4,Win32,60.80505898,,,,,,,,,,,,,,,,,,,,,,,,,,,,,,,,,,,,,,,,,,,,,,,,,,,,,,,,,,,,,,,,,,,,,,left,1,1.1478,,,,,,magnitude,9,7,9 | 7,2,0.05,0.065,incongruent,left,0,67,67,39,1,,,,,,,,,,,,,,,,,,,,,,,,,,,,,,,,,,,,,,,,,,,,,,,,,,,,,,,,,,,,,,,,,,,,,,,,,,,,,,,,,,,
,8509,BAC,05/05/2005,001,2023-03-21_17h08.34.399,OS3_Mult_verification,2022.2.4,Win32,60.80505898,,,,,,,,,,,,,,,,,,,,,,,,,,,,,,,,,,,,,,,,,,,,,,,,,,,,,,,,,,,,,,,,,,,,,,right,1,0.5118,,,,,,magnitude,1,6,1 | 6,5,0.05,0.065,congruent,right,0,68,68,16,1,,,,,,,,,,,,,,,,,,,,,,,,,,,,,,,,,,,,,,,,,,,,,,,,,,,,,,,,,,,,,,,,,,,,,,,,,,,,,,,,,,,
,8509,BAC,05/05/2005,001,2023-03-21_17h08.34.399,OS3_Mult_verification,2022.2.4,Win32,60.80505898,,,,,,,,,,,,,,,,,,,,,,,,,,,,,,,,,,,,,,,,,,,,,,,,,,,,,,,,,,,,,,,,,,,,,,left,1,0.6605,,,,,,magnitude,7,6,7 | 6,1,0.065,0.05,congruent,left,0,69,69,6,1,,,,,,,,,,,,,,,,,,,,,,,,,,,,,,,,,,,,,,,,,,,,,,,,,,,,,,,,,,,,,,,,,,,,,,,,,,,,,,,,,,,
,8509,BAC,05/05/2005,001,2023-03-21_17h08.34.399,OS3_Mult_verification,2022.2.4,Win32,60.80505898,,,,,,,,,,,,,,,,,,,,,,,,,,,,,,,,,,,,,,,,,,,,,,,,,,,,,,,,,,,,,,,,,,,,,,right,1,0.6272,,,,,,magnitude,2,4,2 | 4,2,0.065,0.05,incongruent,right,0,70,70,33,1,,,,,,,,,,,,,,,,,,,,,,,,,,,,,,,,,,,,,,,,,,,,,,,,,,,,,,,,,,,,,,,,,,,,,,,,,,,,,,,,,,,
,8509,BAC,05/05/2005,001,2023-03-21_17h08.34.399,OS3_Mult_verification,2022.2.4,Win32,60.80505898,,,,,,,,,,,,,,,,,,,,,,,,,,,,,,,,,,,,,,,,,,,,,,,,,,,,,,,,,,,,,,,,,,,,,,right,1,0.5623,,,,,,magnitude,2,4,2 | 4,2,0.06,0.06,neutral,right,0,71,71,57,1,,,,,,,,,,,,,,,,,,,,,,,,,,,,,,,,,,,,,,,,,,,,,,,,,,,,,,,,,,,,,,,,,,,,,,,,,,,,,,,,,,,
,8509,BAC,05/05/2005,001,2023-03-21_17h08.34.399,OS3_Mult_verification,2022.2.4,Win32,60.80505898,,,,,,,,,,,,,,,,,,,,,,,,,,,,,,,,,,,,,,,,,,,,,,,,,,,,,,,,,,,,,,,,,,,,,,,,,,,,,,,,,,,,,,,,,,,,0,0,0,0,1,stroop_stim/magnitude.xlsx,stroop_stim/prac_magnitude.xlsx,NUMERICALLY larger (larger coefficient).,images/numericallyLarger.png,,,,,,,,,,,,,,,,,,,,,,,,,,,,,,,,,,,,,,,,,,,,,,,,,,,,,,,,,,,,,,,,,,,,,,,,,,
,8509,BAC,05/05/2005,001,2023-03-21_17h08.34.399,OS3_Mult_verification,2022.2.4,Win32,60.80505898,,,,,,,,,,,,,,,,space,0.4671,,,,,,,,,,,,,,,,,,,,,,,,,,,,,,,,,,,,,,,,,,,,,,,,,,,,,right,1,0.703,0,0,0,2,1,practice,9,9,9 | 9,0,0.05,0.065,neutral,right,,,,,,,,,,,,,,,,,,,,,,,,,,,,,,,,,,,,,,,,,,,,,,,,,,,,,,,,,,,,,,,,,,,,,,,,,,,,,,,,,,,,,,,,
,8509,BAC,05/05/2005,001,2023-03-21_17h08.34.399,OS3_Mult_verification,2022.2.4,Win32,60.80505898,,,,,,,,,,,,,,,,,,,,,,,,,,,,,,,,,,,,,,,,,,,,,,,,,,,,,,,,,,,,,,,,,,,,,,right,1,0.6215,0,1,1,1,1,practice,4,3,4 | 3,1,0.05,0.065,incongruent,right,,,,,,,,,,,,,,,,,,,,,,,,,,,,,,,,,,,,,,,,,,,,,,,,,,,,,,,,,,,,,,,,,,,,,,,,,,,,,,,,,,,,,,,,
,8509,BAC,05/05/2005,001,2023-03-21_17h08.34.399,OS3_Mult_verification,2022.2.4,Win32,60.80505898,,,,,,,,,,,,,,,,,,,,,,,,,,,,,,,,,,,,,,,,,,,,,,,,,,,,,,,,,,,,,,,,,,,,,,left,1,0.6176,0,2,2,0,1,practice,9,8,9 | 8,1,0.065,0.05,congruent,left,,,,,,,,,,,,,,,,,,,,,,,,,,,,,,,,,,,,,,,,,,,,,,,,,,,,,,,,,,,,,,,,,,,,,,,,,,,,,,,,,,,,,,,,
,8509,BAC,05/05/2005,001,2023-03-21_17h08.34.399,OS3_Mult_verification,2022.2.4,Win32,60.80505898,,,,,,,,,,,,,,,,,,,,,,,,,,,,,,,,,,,,,,,,,,,,,,,,,,,,,,,,,,,,,,,,,,,,,,right,1,0.8916,,,,,,physical,2,1,2 | 1,1,0.05,0.065,incongruent,right,0,0,0,28,1,,,,,,,,,,,,,,,,,,,,,,,,,,,,,,,,,,,,,,,,,,,,,,,,,,,,,,,,,,,,,,,,,,,,,,,,,,,,,,,,,,,
,8509,BAC,05/05/2005,001,2023-03-21_17h08.34.399,OS3_Mult_verification,2022.2.4,Win32,60.80505898,,,,,,,,,,,,,,,,,,,,,,,,,,,,,,,,,,,,,,,,,,,,,,,,,,,,,,,,,,,,,,,,,,,,,,left,1,0.4744,,,,,,physical,7,7,7 | 7,0,0.065,0.05,neutral,left,0,1,1,54,1,,,,,,,,,,,,,,,,,,,,,,,,,,,,,,,,,,,,,,,,,,,,,,,,,,,,,,,,,,,,,,,,,,,,,,,,,,,,,,,,,,,
,8509,BAC,05/05/2005,001,2023-03-21_17h08.34.399,OS3_Mult_verification,2022.2.4,Win32,60.80505898,,,,,,,,,,,,,,,,,,,,,,,,,,,,,,,,,,,,,,,,,,,,,,,,,,,,,,,,,,,,,,,,,,,,,,right,1,0.4708,,,,,,physical,8,9,8 | 9,1,0.05,0.065,congruent,right,0,2,2,3,1,,,,,,,,,,,,,,,,,,,,,,,,,,,,,,,,,,,,,,,,,,,,,,,,,,,,,,,,,,,,,,,,,,,,,,,,,,,,,,,,,,,
,8509,BAC,05/05/2005,001,2023-03-21_17h08.34.399,OS3_Mult_verification,2022.2.4,Win32,60.80505898,,,,,,,,,,,,,,,,,,,,,,,,,,,,,,,,,,,,,,,,,,,,,,,,,,,,,,,,,,,,,,,,,,,,,,right,1,0.551,,,,,,physical,3,4,3 | 4,1,0.05,0.065,congruent,right,0,3,3,1,1,,,,,,,,,,,,,,,,,,,,,,,,,,,,,,,,,,,,,,,,,,,,,,,,,,,,,,,,,,,,,,,,,,,,,,,,,,,,,,,,,,,
,8509,BAC,05/05/2005,001,2023-03-21_17h08.34.399,OS3_Mult_verification,2022.2.4,Win32,60.80505898,,,,,,,,,,,,,,,,,,,,,,,,,,,,,,,,,,,,,,,,,,,,,,,,,,,,,,,,,,,,,,,,,,,,,,left,1,0.5178,,,,,,physical,2,4,2 | 4,2,0.065,0.05,incongruent,left,0,4,4,33,1,,,,,,,,,,,,,,,,,,,,,,,,,,,,,,,,,,,,,,,,,,,,,,,,,,,,,,,,,,,,,,,,,,,,,,,,,,,,,,,,,,,
,8509,BAC,05/05/2005,001,2023-03-21_17h08.34.399,OS3_Mult_verification,2022.2.4,Win32,60.80505898,,,,,,,,,,,,,,,,,,,,,,,,,,,,,,,,,,,,,,,,,,,,,,,,,,,,,,,,,,,,,,,,,,,,,,right,1,0.451,,,,,,physical,8,6,8 | 6,2,0.05,0.065,incongruent,right,0,5,5,38,1,,,,,,,,,,,,,,,,,,,,,,,,,,,,,,,,,,,,,,,,,,,,,,,,,,,,,,,,,,,,,,,,,,,,,,,,,,,,,,,,,,,
,8509,BAC,05/05/2005,001,2023-03-21_17h08.34.399,OS3_Mult_verification,2022.2.4,Win32,60.80505898,,,,,,,,,,,,,,,,,,,,,,,,,,,,,,,,,,,,,,,,,,,,,,,,,,,,,,,,,,,,,,,,,,,,,,left,0,0.4402,,,,,,physical,4,3,4 | 3,1,0.05,0.065,incongruent,right,0,6,6,29,1,,,,,,,,,,,,,,,,,,,,,,,,,,,,,,,,,,,,,,,,,,,,,,,,,,,,,,,,,,,,,,,,,,,,,,,,,,,,,,,,,,,
,8509,BAC,05/05/2005,001,2023-03-21_17h08.34.399,OS3_Mult_verification,2022.2.4,Win32,60.80505898,,,,,,,,,,,,,,,,,,,,,,,,,,,,,,,,,,,,,,,,,,,,,,,,,,,,,,,,,,,,,,,,,,,,,,left,1,0.985,,,,,,physical,9,8,9 | 8,1,0.065,0.05,congruent,left,0,7,7,7,1,,,,,,,,,,,,,,,,,,,,,,,,,,,,,,,,,,,,,,,,,,,,,,,,,,,,,,,,,,,,,,,,,,,,,,,,,,,,,,,,,,,
,8509,BAC,05/05/2005,001,2023-03-21_17h08.34.399,OS3_Mult_verification,2022.2.4,Win32,60.80505898,,,,,,,,,,,,,,,,,,,,,,,,,,,,,,,,,,,,,,,,,,,,,,,,,,,,,,,,,,,,,,,,,,,,,,right,1,0.7682,,,,,,physical,8,3,8 | 3,5,0.05,0.065,incongruent,right,0,8,8,46,1,,,,,,,,,,,,,,,,,,,,,,,,,,,,,,,,,,,,,,,,,,,,,,,,,,,,,,,,,,,,,,,,,,,,,,,,,,,,,,,,,,,
,8509,BAC,05/05/2005,001,2023-03-21_17h08.34.399,OS3_Mult_verification,2022.2.4,Win32,60.80505898,,,,,,,,,,,,,,,,,,,,,,,,,,,,,,,,,,,,,,,,,,,,,,,,,,,,,,,,,,,,,,,,,,,,,,left,1,0.918,,,,,,physical,3,8,3 | 8,5,0.065,0.05,incongruent,left,0,9,9,42,1,,,,,,,,,,,,,,,,,,,,,,,,,,,,,,,,,,,,,,,,,,,,,,,,,,,,,,,,,,,,,,,,,,,,,,,,,,,,,,,,,,,
,8509,BAC,05/05/2005,001,2023-03-21_17h08.34.399,OS3_Mult_verification,2022.2.4,Win32,60.80505898,,,,,,,,,,,,,,,,,,,,,,,,,,,,,,,,,,,,,,,,,,,,,,,,,,,,,,,,,,,,,,,,,,,,,,left,1,0.9681,,,,,,physical,7,6,7 | 6,1,0.065,0.05,congruent,left,0,10,10,6,1,,,,,,,,,,,,,,,,,,,,,,,,,,,,,,,,,,,,,,,,,,,,,,,,,,,,,,,,,,,,,,,,,,,,,,,,,,,,,,,,,,,
,8509,BAC,05/05/2005,001,2023-03-21_17h08.34.399,OS3_Mult_verification,2022.2.4,Win32,60.80505898,,,,,,,,,,,,,,,,,,,,,,,,,,,,,,,,,,,,,,,,,,,,,,,,,,,,,,,,,,,,,,,,,,,,,,right,1,0.8013,,,,,,physical,1,2,1 | 2,1,0.05,0.065,congruent,right,0,11,11,0,1,,,,,,,,,,,,,,,,,,,,,,,,,,,,,,,,,,,,,,,,,,,,,,,,,,,,,,,,,,,,,,,,,,,,,,,,,,,,,,,,,,,
,8509,BAC,05/05/2005,001,2023-03-21_17h08.34.399,OS3_Mult_verification,2022.2.4,Win32,60.80505898,,,,,,,,,,,,,,,,,,,,,,,,,,,,,,,,,,,,,,,,,,,,,,,,,,,,,,,,,,,,,,,,,,,,,,right,1,0.8183,,,,,,physical,6,7,6 | 7,1,0.05,0.065,congruent,right,0,12,12,2,1,,,,,,,,,,,,,,,,,,,,,,,,,,,,,,,,,,,,,,,,,,,,,,,,,,,,,,,,,,,,,,,,,,,,,,,,,,,,,,,,,,,
,8509,BAC,05/05/2005,001,2023-03-21_17h08.34.399,OS3_Mult_verification,2022.2.4,Win32,60.80505898,,,,,,,,,,,,,,,,,,,,,,,,,,,,,,,,,,,,,,,,,,,,,,,,,,,,,,,,,,,,,,,,,,,,,,left,1,0.5688,,,,,,physical,4,2,4 | 2,2,0.065,0.05,congruent,left,0,13,13,13,1,,,,,,,,,,,,,,,,,,,,,,,,,,,,,,,,,,,,,,,,,,,,,,,,,,,,,,,,,,,,,,,,,,,,,,,,,,,,,,,,,,,
,8509,BAC,05/05/2005,001,2023-03-21_17h08.34.399,OS3_Mult_verification,2022.2.4,Win32,60.80505898,,,,,,,,,,,,,,,,,,,,,,,,,,,,,,,,,,,,,,,,,,,,,,,,,,,,,,,,,,,,,,,,,,,,,,left,1,0.6322,,,,,,physical,9,9,9 | 9,0,0.065,0.05,neutral,left,0,14,14,55,1,,,,,,,,,,,,,,,,,,,,,,,,,,,,,,,,,,,,,,,,,,,,,,,,,,,,,,,,,,,,,,,,,,,,,,,,,,,,,,,,,,,
,8509,BAC,05/05/2005,001,2023-03-21_17h08.34.399,OS3_Mult_verification,2022.2.4,Win32,60.80505898,,,,,,,,,,,,,,,,,,,,,,,,,,,,,,,,,,,,,,,,,,,,,,,,,,,,,,,,,,,,,,,,,,,,,,left,1,0.9346,,,,,,physical,8,9,8 | 9,1,0.065,0.05,incongruent,left,0,15,15,27,1,,,,,,,,,,,,,,,,,,,,,,,,,,,,,,,,,,,,,,,,,,,,,,,,,,,,,,,,,,,,,,,,,,,,,,,,,,,,,,,,,,,
,8509,BAC,05/05/2005,001,2023-03-21_17h08.34.399,OS3_Mult_verification,2022.2.4,Win32,60.80505898,,,,,,,,,,,,,,,,,,,,,,,,,,,,,,,,,,,,,,,,,,,,,,,,,,,,,,,,,,,,,,,,,,,,,,right,1,0.5919,,,,,,physical,1,1,1 | 1,0,0.05,0.065,neutral,right,0,16,16,56,1,,,,,,,,,,,,,,,,,,,,,,,,,,,,,,,,,,,,,,,,,,,,,,,,,,,,,,,,,,,,,,,,,,,,,,,,,,,,,,,,,,,
,8509,BAC,05/05/2005,001,2023-03-21_17h08.34.399,OS3_Mult_verification,2022.2.4,Win32,60.80505898,,,,,,,,,,,,,,,,,,,,,,,,,,,,,,,,,,,,,,,,,,,,,,,,,,,,,,,,,,,,,,,,,,,,,,left,1,0.7017,,,,,,physical,7,9,7 | 9,2,0.065,0.05,incongruent,left,0,17,17,35,1,,,,,,,,,,,,,,,,,,,,,,,,,,,,,,,,,,,,,,,,,,,,,,,,,,,,,,,,,,,,,,,,,,,,,,,,,,,,,,,,,,,
,8509,BAC,05/05/2005,001,2023-03-21_17h08.34.399,OS3_Mult_verification,2022.2.4,Win32,60.80505898,,,,,,,,,,,,,,,,,,,,,,,,,,,,,,,,,,,,,,,,,,,,,,,,,,,,,,,,,,,,,,,,,,,,,,right,1,0.6181,,,,,,physical,9,8,9 | 8,1,0.05,0.065,incongruent,right,0,18,18,31,1,,,,,,,,,,,,,,,,,,,,,,,,,,,,,,,,,,,,,,,,,,,,,,,,,,,,,,,,,,,,,,,,,,,,,,,,,,,,,,,,,,,
,8509,BAC,05/05/2005,001,2023-03-21_17h08.34.399,OS3_Mult_verification,2022.2.4,Win32,60.80505898,,,,,,,,,,,,,,,,,,,,,,,,,,,,,,,,,,,,,,,,,,,,,,,,,,,,,,,,,,,,,,,,,,,,,,left,1,0.5676,,,,,,physical,1,2,1 | 2,1,0.065,0.05,incongruent,left,0,19,19,24,1,,,,,,,,,,,,,,,,,,,,,,,,,,,,,,,,,,,,,,,,,,,,,,,,,,,,,,,,,,,,,,,,,,,,,,,,,,,,,,,,,,,
,8509,BAC,05/05/2005,001,2023-03-21_17h08.34.399,OS3_Mult_verification,2022.2.4,Win32,60.80505898,,,,,,,,,,,,,,,,,,,,,,,,,,,,,,,,,,,,,,,,,,,,,,,,,,,,,,,,,,,,,,,,,,,,,,left,1,0.6055,,,,,,physical,2,1,2 | 1,1,0.065,0.05,congruent,left,0,20,20,4,1,,,,,,,,,,,,,,,,,,,,,,,,,,,,,,,,,,,,,,,,,,,,,,,,,,,,,,,,,,,,,,,,,,,,,,,,,,,,,,,,,,,
,8509,BAC,05/05/2005,001,2023-03-21_17h08.34.399,OS3_Mult_verification,2022.2.4,Win32,60.80505898,,,,,,,,,,,,,,,,,,,,,,,,,,,,,,,,,,,,,,,,,,,,,,,,,,,,,,,,,,,,,,,,,,,,,,right,1,0.5175,,,,,,physical,9,7,9 | 7,2,0.05,0.065,incongruent,right,0,21,21,39,1,,,,,,,,,,,,,,,,,,,,,,,,,,,,,,,,,,,,,,,,,,,,,,,,,,,,,,,,,,,,,,,,,,,,,,,,,,,,,,,,,,,
,8509,BAC,05/05/2005,001,2023-03-21_17h08.34.399,OS3_Mult_verification,2022.2.4,Win32,60.80505898,,,,,,,,,,,,,,,,,,,,,,,,,,,,,,,,,,,,,,,,,,,,,,,,,,,,,,,,,,,,,,,,,,,,,,left,1,0.459,,,,,,physical,3,1,3 | 1,2,0.065,0.05,congruent,left,0,22,22,12,1,,,,,,,,,,,,,,,,,,,,,,,,,,,,,,,,,,,,,,,,,,,,,,,,,,,,,,,,,,,,,,,,,,,,,,,,,,,,,,,,,,,
,8509,BAC,05/05/2005,001,2023-03-21_17h08.34.399,OS3_Mult_verification,2022.2.4,Win32,60.80505898,,,,,,,,,,,,,,,,,,,,,,,,,,,,,,,,,,,,,,,,,,,,,,,,,,,,,,,,,,,,,,,,,,,,,,left,1,0.58,,,,,,physical,2,7,2 | 7,5,0.065,0.05,incongruent,left,0,23,23,41,1,,,,,,,,,,,,,,,,,,,,,,,,,,,,,,,,,,,,,,,,,,,,,,,,,,,,,,,,,,,,,,,,,,,,,,,,,,,,,,,,,,,
,8509,BAC,05/05/2005,001,2023-03-21_17h08.34.399,OS3_Mult_verification,2022.2.4,Win32,60.80505898,,,,,,,,,,,,,,,,,,,,,,,,,,,,,,,,,,,,,,,,,,,,,,,,,,,,,,,,,,,,,,,,,,,,,,right,0,0.5563,,,,,,physical,1,6,1 | 6,5,0.065,0.05,incongruent,left,0,24,24,40,1,,,,,,,,,,,,,,,,,,,,,,,,,,,,,,,,,,,,,,,,,,,,,,,,,,,,,,,,,,,,,,,,,,,,,,,,,,,,,,,,,,,
,8509,BAC,05/05/2005,001,2023-03-21_17h08.34.399,OS3_Mult_verification,2022.2.4,Win32,60.80505898,,,,,,,,,,,,,,,,,,,,,,,,,,,,,,,,,,,,,,,,,,,,,,,,,,,,,,,,,,,,,,,,,,,,,,left,0,0.4621,,,,,,physical,6,8,6 | 8,2,0.05,0.065,congruent,right,0,25,25,10,1,,,,,,,,,,,,,,,,,,,,,,,,,,,,,,,,,,,,,,,,,,,,,,,,,,,,,,,,,,,,,,,,,,,,,,,,,,,,,,,,,,,
,8509,BAC,05/05/2005,001,2023-03-21_17h08.34.399,OS3_Mult_verification,2022.2.4,Win32,60.80505898,,,,,,,,,,,,,,,,,,,,,,,,,,,,,,,,,,,,,,,,,,,,,,,,,,,,,,,,,,,,,,,,,,,,,,left,1,0.6525,,,,,,physical,9,7,9 | 7,2,0.065,0.05,congruent,left,0,26,26,15,1,,,,,,,,,,,,,,,,,,,,,,,,,,,,,,,,,,,,,,,,,,,,,,,,,,,,,,,,,,,,,,,,,,,,,,,,,,,,,,,,,,,
,8509,BAC,05/05/2005,001,2023-03-21_17h08.34.399,OS3_Mult_verification,2022.2.4,Win32,60.80505898,,,,,,,,,,,,,,,,,,,,,,,,,,,,,,,,,,,,,,,,,,,,,,,,,,,,,,,,,,,,,,,,,,,,,,right,1,0.6967,,,,,,physical,7,9,7 | 9,2,0.05,0.065,congruent,right,0,27,27,11,1,,,,,,,,,,,,,,,,,,,,,,,,,,,,,,,,,,,,,,,,,,,,,,,,,,,,,,,,,,,,,,,,,,,,,,,,,,,,,,,,,,,
,8509,BAC,05/05/2005,001,2023-03-21_17h08.34.399,OS3_Mult_verification,2022.2.4,Win32,60.80505898,,,,,,,,,,,,,,,,,,,,,,,,,,,,,,,,,,,,,,,,,,,,,,,,,,,,,,,,,,,,,,,,,,,,,,left,1,0.4797,,,,,,physical,3,3,3 | 3,0,0.065,0.05,neutral,left,0,28,28,49,1,,,,,,,,,,,,,,,,,,,,,,,,,,,,,,,,,,,,,,,,,,,,,,,,,,,,,,,,,,,,,,,,,,,,,,,,,,,,,,,,,,,
,8509,BAC,05/05/2005,001,2023-03-21_17h08.34.399,OS3_Mult_verification,2022.2.4,Win32,60.80505898,,,,,,,,,,,,,,,,,,,,,,,,,,,,,,,,,,,,,,,,,,,,,,,,,,,,,,,,,,,,,,,,,,,,,,left,1,0.7623,,,,,,physical,6,6,6 | 6,0,0.065,0.05,neutral,left,0,29,29,68,1,,,,,,,,,,,,,,,,,,,,,,,,,,,,,,,,,,,,,,,,,,,,,,,,,,,,,,,,,,,,,,,,,,,,,,,,,,,,,,,,,,,
,8509,BAC,05/05/2005,001,2023-03-21_17h08.34.399,OS3_Mult_verification,2022.2.4,Win32,60.80505898,,,,,,,,,,,,,,,,,,,,,,,,,,,,,,,,,,,,,,,,,,,,,,,,,,,,,,,,,,,,,,,,,,,,,,right,1,1.2022,,,,,,physical,4,2,4 | 2,2,0.05,0.065,incongruent,right,0,30,30,37,1,,,,,,,,,,,,,,,,,,,,,,,,,,,,,,,,,,,,,,,,,,,,,,,,,,,,,,,,,,,,,,,,,,,,,,,,,,,,,,,,,,,
,8509,BAC,05/05/2005,001,2023-03-21_17h08.34.399,OS3_Mult_verification,2022.2.4,Win32,60.80505898,,,,,,,,,,,,,,,,,,,,,,,,,,,,,,,,,,,,,,,,,,,,,,,,,,,,,,,,,,,,,,,,,,,,,,right,1,0.8528,,,,,,physical,6,6,6 | 6,0,0.05,0.065,neutral,right,0,31,31,58,1,,,,,,,,,,,,,,,,,,,,,,,,,,,,,,,,,,,,,,,,,,,,,,,,,,,,,,,,,,,,,,,,,,,,,,,,,,,,,,,,,,,
,8509,BAC,05/05/2005,001,2023-03-21_17h08.34.399,OS3_Mult_verification,2022.2.4,Win32,60.80505898,,,,,,,,,,,,,,,,,,,,,,,,,,,,,,,,,,,,,,,,,,,,,,,,,,,,,,,,,,,,,,,,,,,,,,left,1,0.9133,,,,,,physical,6,6,6 | 6,0,0.065,0.05,neutral,left,0,32,32,50,1,,,,,,,,,,,,,,,,,,,,,,,,,,,,,,,,,,,,,,,,,,,,,,,,,,,,,,,,,,,,,,,,,,,,,,,,,,,,,,,,,,,
,8509,BAC,05/05/2005,001,2023-03-21_17h08.34.399,OS3_Mult_verification,2022.2.4,Win32,60.80505898,,,,,,,,,,,,,,,,,,,,,,,,,,,,,,,,,,,,,,,,,,,,,,,,,,,,,,,,,,,,,,,,,,,,,,right,1,0.8122,,,,,,physical,7,6,7 | 6,1,0.05,0.065,incongruent,right,0,33,33,30,1,,,,,,,,,,,,,,,,,,,,,,,,,,,,,,,,,,,,,,,,,,,,,,,,,,,,,,,,,,,,,,,,,,,,,,,,,,,,,,,,,,,
,8509,BAC,05/05/2005,001,2023-03-21_17h08.34.399,OS3_Mult_verification,2022.2.4,Win32,60.80505898,,,,,,,,,,,,,,,,,,,,,,,,,,,,,,,,,,,,,,,,,,,,,,,,,,,,,,,,,,,,,,,,,,,,,,left,1,1.3489,,,,,,physical,6,7,6 | 7,1,0.065,0.05,incongruent,left,0,34,34,26,1,,,,,,,,,,,,,,,,,,,,,,,,,,,,,,,,,,,,,,,,,,,,,,,,,,,,,,,,,,,,,,,,,,,,,,,,,,,,,,,,,,,
,8509,BAC,05/05/2005,001,2023-03-21_17h08.34.399,OS3_Mult_verification,2022.2.4,Win32,60.80505898,,,,,,,,,,,,,,,,,,,,,,,,,,,,,,,,,,,,,,,,,,,,,,,,,,,,,,,,,,,,,,,,,,,,,,left,1,0.5957,,,,,,physical,1,1,1 | 1,0,0.065,0.05,neutral,left,0,35,35,48,1,,,,,,,,,,,,,,,,,,,,,,,,,,,,,,,,,,,,,,,,,,,,,,,,,,,,,,,,,,,,,,,,,,,,,,,,,,,,,,,,,,,
,8509,BAC,05/05/2005,001,2023-03-21_17h08.34.399,OS3_Mult_verification,2022.2.4,Win32,60.80505898,,,,,,,,,,,,,,,,,,,,,,,,,,,,,,,,,,,,,,,,,,,,,,,,,,,,,,,,,,,,,,,,,,,,,,left,1,0.6197,,,,,,physical,2,2,2 | 2,0,0.065,0.05,neutral,left,0,36,36,52,1,,,,,,,,,,,,,,,,,,,,,,,,,,,,,,,,,,,,,,,,,,,,,,,,,,,,,,,,,,,,,,,,,,,,,,,,,,,,,,,,,,,
,8509,BAC,05/05/2005,001,2023-03-21_17h08.34.399,OS3_Mult_verification,2022.2.4,Win32,60.80505898,,,,,,,,,,,,,,,,,,,,,,,,,,,,,,,,,,,,,,,,,,,,,,,,,,,,,,,,,,,,,,,,,,,,,,left,1,0.6453,,,,,,physical,4,3,4 | 3,1,0.065,0.05,congruent,left,0,37,37,5,1,,,,,,,,,,,,,,,,,,,,,,,,,,,,,,,,,,,,,,,,,,,,,,,,,,,,,,,,,,,,,,,,,,,,,,,,,,,,,,,,,,,
,8509,BAC,05/05/2005,001,2023-03-21_17h08.34.399,OS3_Mult_verification,2022.2.4,Win32,60.80505898,,,,,,,,,,,,,,,,,,,,,,,,,,,,,,,,,,,,,,,,,,,,,,,,,,,,,,,,,,,,,,,,,,,,,,left,1,0.5336,,,,,,physical,8,3,8 | 3,5,0.065,0.05,congruent,left,0,38,38,22,1,,,,,,,,,,,,,,,,,,,,,,,,,,,,,,,,,,,,,,,,,,,,,,,,,,,,,,,,,,,,,,,,,,,,,,,,,,,,,,,,,,,
,8509,BAC,05/05/2005,001,2023-03-21_17h08.34.399,OS3_Mult_verification,2022.2.4,Win32,60.80505898,,,,,,,,,,,,,,,,,,,,,,,,,,,,,,,,,,,,,,,,,,,,,,,,,,,,,,,,,,,,,,,,,,,,,,left,1,0.5477,,,,,,physical,8,6,8 | 6,2,0.065,0.05,congruent,left,0,39,39,14,1,,,,,,,,,,,,,,,,,,,,,,,,,,,,,,,,,,,,,,,,,,,,,,,,,,,,,,,,,,,,,,,,,,,,,,,,,,,,,,,,,,,
,8509,BAC,05/05/2005,001,2023-03-21_17h08.34.399,OS3_Mult_verification,2022.2.4,Win32,60.80505898,,,,,,,,,,,,,,,,,,,,,,,,,,,,,,,,,,,,,,,,,,,,,,,,,,,,,,,,,,,,,,,,,,,,,,left,1,0.5408,,,,,,physical,7,2,7 | 2,5,0.065,0.05,congruent,left,0,40,40,21,1,,,,,,,,,,,,,,,,,,,,,,,,,,,,,,,,,,,,,,,,,,,,,,,,,,,,,,,,,,,,,,,,,,,,,,,,,,,,,,,,,,,
,8509,BAC,05/05/2005,001,2023-03-21_17h08.34.399,OS3_Mult_verification,2022.2.4,Win32,60.80505898,,,,,,,,,,,,,,,,,,,,,,,,,,,,,,,,,,,,,,,,,,,,,,,,,,,,,,,,,,,,,,,,,,,,,,right,0,1.5002,,,,,,physical,4,9,4 | 9,5,0.065,0.05,incongruent,left,0,41,41,43,1,,,,,,,,,,,,,,,,,,,,,,,,,,,,,,,,,,,,,,,,,,,,,,,,,,,,,,,,,,,,,,,,,,,,,,,,,,,,,,,,,,,
,8509,BAC,05/05/2005,001,2023-03-21_17h08.34.399,OS3_Mult_verification,2022.2.4,Win32,60.80505898,,,,,,,,,,,,,,,,,,,,,,,,,,,,,,,,,,,,,,,,,,,,,,,,,,,,,,,,,,,,,,,,,,,,,,right,1,0.9436,,,,,,physical,7,7,7 | 7,0,0.05,0.065,neutral,right,0,42,42,59,1,,,,,,,,,,,,,,,,,,,,,,,,,,,,,,,,,,,,,,,,,,,,,,,,,,,,,,,,,,,,,,,,,,,,,,,,,,,,,,,,,,,
,8509,BAC,05/05/2005,001,2023-03-21_17h08.34.399,OS3_Mult_verification,2022.2.4,Win32,60.80505898,,,,,,,,,,,,,,,,,,,,,,,,,,,,,,,,,,,,,,,,,,,,,,,,,,,,,,,,,,,,,,,,,,,,,,right,1,0.8665,,,,,,physical,4,9,4 | 9,5,0.05,0.065,congruent,right,0,43,43,19,1,,,,,,,,,,,,,,,,,,,,,,,,,,,,,,,,,,,,,,,,,,,,,,,,,,,,,,,,,,,,,,,,,,,,,,,,,,,,,,,,,,,
,8509,BAC,05/05/2005,001,2023-03-21_17h08.34.399,OS3_Mult_verification,2022.2.4,Win32,60.80505898,,,,,,,,,,,,,,,,,,,,,,,,,,,,,,,,,,,,,,,,,,,,,,,,,,,,,,,,,,,,,,,,,,,,,,right,1,1.215,,,,,,physical,9,4,9 | 4,5,0.05,0.065,incongruent,right,0,44,44,47,1,,,,,,,,,,,,,,,,,,,,,,,,,,,,,,,,,,,,,,,,,,,,,,,,,,,,,,,,,,,,,,,,,,,,,,,,,,,,,,,,,,,
,8509,BAC,05/05/2005,001,2023-03-21_17h08.34.399,OS3_Mult_verification,2022.2.4,Win32,60.80505898,,,,,,,,,,,,,,,,,,,,,,,,,,,,,,,,,,,,,,,,,,,,,,,,,,,,,,,,,,,,,,,,,,,,,,right,1,0.6382,,,,,,physical,9,9,9 | 9,0,0.05,0.065,neutral,right,0,45,45,71,1,,,,,,,,,,,,,,,,,,,,,,,,,,,,,,,,,,,,,,,,,,,,,,,,,,,,,,,,,,,,,,,,,,,,,,,,,,,,,,,,,,,
,8509,BAC,05/05/2005,001,2023-03-21_17h08.34.399,OS3_Mult_verification,2022.2.4,Win32,60.80505898,,,,,,,,,,,,,,,,,,,,,,,,,,,,,,,,,,,,,,,,,,,,,,,,,,,,,,,,,,,,,,,,,,,,,,right,1,0.7962,,,,,,physical,2,2,2 | 2,0,0.05,0.065,neutral,right,0,46,46,65,1,,,,,,,,,,,,,,,,,,,,,,,,,,,,,,,,,,,,,,,,,,,,,,,,,,,,,,,,,,,,,,,,,,,,,,,,,,,,,,,,,,,
,8509,BAC,05/05/2005,001,2023-03-21_17h08.34.399,OS3_Mult_verification,2022.2.4,Win32,60.80505898,,,,,,,,,,,,,,,,,,,,,,,,,,,,,,,,,,,,,,,,,,,,,,,,,,,,,,,,,,,,,,,,,,,,,,right,1,0.814,,,,,,physical,8,8,8 | 8,0,0.05,0.065,neutral,right,0,47,47,62,1,,,,,,,,,,,,,,,,,,,,,,,,,,,,,,,,,,,,,,,,,,,,,,,,,,,,,,,,,,,,,,,,,,,,,,,,,,,,,,,,,,,
,8509,BAC,05/05/2005,001,2023-03-21_17h08.34.399,OS3_Mult_verification,2022.2.4,Win32,60.80505898,,,,,,,,,,,,,,,,,,,,,,,,,,,,,,,,,,,,,,,,,,,,,,,,,,,,,,,,,,,,,,,,,,,,,,right,1,0.5651,,,,,,physical,2,2,2 | 2,0,0.05,0.065,neutral,right,0,48,48,57,1,,,,,,,,,,,,,,,,,,,,,,,,,,,,,,,,,,,,,,,,,,,,,,,,,,,,,,,,,,,,,,,,,,,,,,,,,,,,,,,,,,,
,8509,BAC,05/05/2005,001,2023-03-21_17h08.34.399,OS3_Mult_verification,2022.2.4,Win32,60.80505898,,,,,,,,,,,,,,,,,,,,,,,,,,,,,,,,,,,,,,,,,,,,,,,,,,,,,,,,,,,,,,,,,,,,,,right,1,0.581,,,,,,physical,1,6,1 | 6,5,0.05,0.065,congruent,right,0,49,49,16,1,,,,,,,,,,,,,,,,,,,,,,,,,,,,,,,,,,,,,,,,,,,,,,,,,,,,,,,,,,,,,,,,,,,,,,,,,,,,,,,,,,,
,8509,BAC,05/05/2005,001,2023-03-21_17h08.34.399,OS3_Mult_verification,2022.2.4,Win32,60.80505898,,,,,,,,,,,,,,,,,,,,,,,,,,,,,,,,,,,,,,,,,,,,,,,,,,,,,,,,,,,,,,,,,,,,,,left,1,0.8599,,,,,,physical,8,8,8 | 8,0,0.065,0.05,neutral,left,0,50,50,70,1,,,,,,,,,,,,,,,,,,,,,,,,,,,,,,,,,,,,,,,,,,,,,,,,,,,,,,,,,,,,,,,,,,,,,,,,,,,,,,,,,,,
,8509,BAC,05/05/2005,001,2023-03-21_17h08.34.399,OS3_Mult_verification,2022.2.4,Win32,60.80505898,,,,,,,,,,,,,,,,,,,,,,,,,,,,,,,,,,,,,,,,,,,,,,,,,,,,,,,,,,,,,,,,,,,,,,right,1,0.6037,,,,,,physical,1,3,1 | 3,2,0.05,0.065,congruent,right,0,51,51,8,1,,,,,,,,,,,,,,,,,,,,,,,,,,,,,,,,,,,,,,,,,,,,,,,,,,,,,,,,,,,,,,,,,,,,,,,,,,,,,,,,,,,
,8509,BAC,05/05/2005,001,2023-03-21_17h08.34.399,OS3_Mult_verification,2022.2.4,Win32,60.80505898,,,,,,,,,,,,,,,,,,,,,,,,,,,,,,,,,,,,,,,,,,,,,,,,,,,,,,,,,,,,,,,,,,,,,,right,1,0.9177,,,,,,physical,6,1,6 | 1,5,0.05,0.065,incongruent,right,0,52,52,44,1,,,,,,,,,,,,,,,,,,,,,,,,,,,,,,,,,,,,,,,,,,,,,,,,,,,,,,,,,,,,,,,,,,,,,,,,,,,,,,,,,,,
,8509,BAC,05/05/2005,001,2023-03-21_17h08.34.399,OS3_Mult_verification,2022.2.4,Win32,60.80505898,,,,,,,,,,,,,,,,,,,,,,,,,,,,,,,,,,,,,,,,,,,,,,,,,,,,,,,,,,,,,,,,,,,,,,right,1,0.5982,,,,,,physical,3,3,3 | 3,0,0.05,0.065,neutral,right,0,53,53,60,1,,,,,,,,,,,,,,,,,,,,,,,,,,,,,,,,,,,,,,,,,,,,,,,,,,,,,,,,,,,,,,,,,,,,,,,,,,,,,,,,,,,
,8509,BAC,05/05/2005,001,2023-03-21_17h08.34.399,OS3_Mult_verification,2022.2.4,Win32,60.80505898,,,,,,,,,,,,,,,,,,,,,,,,,,,,,,,,,,,,,,,,,,,,,,,,,,,,,,,,,,,,,,,,,,,,,,right,1,0.7476,,,,,,physical,7,7,7 | 7,0,0.05,0.065,neutral,right,0,54,54,69,1,,,,,,,,,,,,,,,,,,,,,,,,,,,,,,,,,,,,,,,,,,,,,,,,,,,,,,,,,,,,,,,,,,,,,,,,,,,,,,,,,,,
