windowSize,participant,group,DOB (DD/MM/YEAR),session,date,expName,psychopyVersion,OS,frameRate,typing_instr_resp.keys,typing_instr_resp.rt,typing_response,typing_rt,typing_score,typingSpeed_input_resp.keys,typingSpeed_input_resp.rt,typing_speed_trials.thisRepN,typing_speed_trials.thisTrialN,typing_speed_trials.thisN,typing_speed_trials.thisIndex,typing_speed_trials.ran,typing_speed_stim,typing_report_resp.keys,typing_report_resp.rt,vpt_trial_resp1.keys,vpt_trial_resp1.rt,typedResponse,fluency_rt,fluency_score,fluencyInputResp.keys,fluencyInputResp.rt,fluencyPracLoop.thisRepN,fluencyPracLoop.thisTrialN,fluencyPracLoop.thisN,fluencyPracLoop.thisIndex,fluencyPracLoop.ran,problem,answers,fluencyLoop.thisRepN,fluencyLoop.thisTrialN,fluencyLoop.thisN,fluencyLoop.thisIndex,fluencyLoop.ran,vptCorrect,vpt_rt,respMouse.x,respMouse.y,respMouse.leftButton,respMouse.midButton,respMouse.rightButton,vptPracticeLoop.thisRepN,vptPracticeLoop.thisTrialN,vptPracticeLoop.thisN,vptPracticeLoop.thisIndex,vptPracticeLoop.ran,trialType,tiles,rows,cols,vptTrialLoop.thisRepN,vptTrialLoop.thisTrialN,vptTrialLoop.thisN,vptTrialLoop.thisIndex,vptTrialLoop.ran,noOfBlocks,TASK_B.thisRepN,TASK_B.thisTrialN,TASK_B.thisN,TASK_B.thisIndex,TASK_B.ran,controlTaskOrder.thisRepN,controlTaskOrder.thisTrialN,controlTaskOrder.thisN,controlTaskOrder.thisIndex,controlTaskOrder.ran,nRepsTask1,nRepsTask2,nRepsTask3,sampleAudio_resp.keys,sampleAudio_resp.rt,subjResponse,audio_rt,DS_score,inputResp.keys,inputResp.rt,audioPracticeLoop.thisRepN,audioPracticeLoop.thisTrialN,audioPracticeLoop.thisN,audioPracticeLoop.thisIndex,audioPracticeLoop.ran,digitSpan,digits_audioStim,soundsFile,typeDS,audioTrials_Loop.thisRepN,audioTrials_Loop.thisTrialN,audioTrials_Loop.thisN,audioTrials_Loop.thisIndex,audioTrials_Loop.ran,audioBlocks_loop.thisRepN,audioBlocks_loop.thisTrialN,audioBlocks_loop.thisN,audioBlocks_loop.thisIndex,audioBlocks_loop.ran,ConditionFile,digitSpanTask_loop.thisRepN,digitSpanTask_loop.thisTrialN,digitSpanTask_loop.thisN,digitSpanTask_loop.thisIndex,digitSpanTask_loop.ran,dsFile,TASK_C.thisRepN,TASK_C.thisTrialN,TASK_C.thisN,TASK_C.thisIndex,TASK_C.ran,stroopResp.keys,stroopResp.corr,stroopResp.rt,stroopPracLoop.thisRepN,stroopPracLoop.thisTrialN,stroopPracLoop.thisN,stroopPracLoop.thisIndex,stroopPracLoop.ran,stroopCond,leftNo,rightNo,displayProblem,numDistance,leftNo_size,rightNo_size,Dims,keyAnswer,stroopLoop.thisRepN,stroopLoop.thisTrialN,stroopLoop.thisN,stroopLoop.thisIndex,stroopLoop.ran,stroopBlocks.thisRepN,stroopBlocks.thisTrialN,stroopBlocks.thisN,stroopBlocks.thisIndex,stroopBlocks.ran,stroop_condition,stroop_pracFile,ActionInst,instrImage,TASK_A.thisRepN,TASK_A.thisTrialN,TASK_A.thisN,TASK_A.thisIndex,TASK_A.ran,veriStim_resp.keys,veriStim_resp.corr,veriStim_resp.rt,verificationPracLoop.thisRepN,verificationPracLoop.thisTrialN,verificationPracLoop.thisN,verificationPracLoop.thisIndex,verificationPracLoop.ran,mult_problem,mult_answer,mult_type,error_distance,interferenceScore,problemType,interferenceLevel,problemSize,img_leftButton,img_rightButton,veriLoop.thisRepN,veriLoop.thisTrialN,veriLoop.thisN,veriLoop.thisIndex,veriLoop.ran,veriBlock.thisRepN,veriBlock.thisTrialN,veriBlock.thisN,veriBlock.thisIndex,veriBlock.ran,verificationFiles,end_resp.keys,end_resp.rt
"[1536,739]",517308643925,BCA,02/02/1998,001,2023-10-19_19h22.09.155,OS3_Mult_verification,2022.2.4,Win32,60.39741499,,,,,,,,,,,,,,,,,,,,,,,,,,,,,,,,,,,,,,,,,,,,,,,,,,,,,,,,,,,,,,,,,,,,,,,,,,,,,,,,,,,,,,,,,,,,,,,,,,,,,,,,,,,,,,,,,,,,,,,,,,,,,,,,,,,,,,,,,,,,,,,,,,,,,,,,,,,,,,,,,,,,,,,,,,,,,,
,517308643925,BCA,02/02/1998,001,2023-10-19_19h22.09.155,OS3_Mult_verification,2022.2.4,Win32,60.39741499,,,,,,,,,,,,,,,,,,,,,,,,,,,,,,,,,,,,,,,,,,,,,,,,,,,,,,,,,,,,,,,,,,,,,,,,,,,,,,,,,,,,,,,,,,,,,,,,,,,,,,,,,,,,,,,,,,,,,,,,,,,,,,,,,,,,,,,,,,,,,,,,,,,,,,,,,,,,,,,,,,,,,,,,,,,,,,
,517308643925,BCA,02/02/1998,001,2023-10-19_19h22.09.155,OS3_Mult_verification,2022.2.4,Win32,60.39741499,space,17.1371,,,,,,,,,,,,,,,,,,,,,,,,,,,,,,,,,,,,,,,,,,,,,,,,,,,,,,,,,,,,,,,,,,,,,,,,,,,,,,,,,,,,,,,,,,,,,,,,,,,,,,,,,,,,,,,,,,,,,,,,,,,,,,,,,,,,,,,,,,,,,,,,,,,,,,,,,,,,,,,,,,,,,,,,,,,,
,517308643925,BCA,02/02/1998,001,2023-10-19_19h22.09.155,OS3_Mult_verification,2022.2.4,Win32,60.39741499,,,28,3.098,1,"[""2"",""8"",""return""]","[1.141699999809262,1.6285999999046368,3.0526999998092634]",0,0,0,15,1,28,,,,,,,,,,,,,,,,,,,,,,,,,,,,,,,,,,,,,,,,,,,,,,,,,,,,,,,,,,,,,,,,,,,,,,,,,,,,,,,,,,,,,,,,,,,,,,,,,,,,,,,,,,,,,,,,,,,,,,,,,,,,,,,,,,,,,,,,,,,,,,,,,,,,,,,,,,,,,,,,,
,517308643925,BCA,02/02/1998,001,2023-10-19_19h22.09.155,OS3_Mult_verification,2022.2.4,Win32,60.39741499,,,21,1.1488,1,"[""2"",""1"",""return""]","[0.642300000190744,0.8801000001430594,1.106900000095365]",0,1,1,11,1,21,,,,,,,,,,,,,,,,,,,,,,,,,,,,,,,,,,,,,,,,,,,,,,,,,,,,,,,,,,,,,,,,,,,,,,,,,,,,,,,,,,,,,,,,,,,,,,,,,,,,,,,,,,,,,,,,,,,,,,,,,,,,,,,,,,,,,,,,,,,,,,,,,,,,,,,,,,,,,,,,,
,517308643925,BCA,02/02/1998,001,2023-10-19_19h22.09.155,OS3_Mult_verification,2022.2.4,Win32,60.39741499,,,27,1.3987,1,"[""2"",""7"",""return""]","[0.5434000000953603,0.9964000000953632,1.3624000000953629]",0,2,2,14,1,27,,,,,,,,,,,,,,,,,,,,,,,,,,,,,,,,,,,,,,,,,,,,,,,,,,,,,,,,,,,,,,,,,,,,,,,,,,,,,,,,,,,,,,,,,,,,,,,,,,,,,,,,,,,,,,,,,,,,,,,,,,,,,,,,,,,,,,,,,,,,,,,,,,,,,,,,,,,,,,,,,
,517308643925,BCA,02/02/1998,001,2023-10-19_19h22.09.155,OS3_Mult_verification,2022.2.4,Win32,60.39741499,,,40,1.3826,1,"[""4"",""0"",""return""]","[0.790899999856947,1.0268999998569512,1.3470999999046285]",0,3,3,20,1,40,,,,,,,,,,,,,,,,,,,,,,,,,,,,,,,,,,,,,,,,,,,,,,,,,,,,,,,,,,,,,,,,,,,,,,,,,,,,,,,,,,,,,,,,,,,,,,,,,,,,,,,,,,,,,,,,,,,,,,,,,,,,,,,,,,,,,,,,,,,,,,,,,,,,,,,,,,,,,,,,,
,517308643925,BCA,02/02/1998,001,2023-10-19_19h22.09.155,OS3_Mult_verification,2022.2.4,Win32,60.39741499,,,15,1.2322,1,"[""1"",""5"",""return""]","[0.6332000000476796,0.9621000001430531,1.192300000190727]",0,4,4,7,1,15,,,,,,,,,,,,,,,,,,,,,,,,,,,,,,,,,,,,,,,,,,,,,,,,,,,,,,,,,,,,,,,,,,,,,,,,,,,,,,,,,,,,,,,,,,,,,,,,,,,,,,,,,,,,,,,,,,,,,,,,,,,,,,,,,,,,,,,,,,,,,,,,,,,,,,,,,,,,,,,,,
,517308643925,BCA,02/02/1998,001,2023-10-19_19h22.09.155,OS3_Mult_verification,2022.2.4,Win32,60.39741499,,,36,1.4162,1,"[""3"",""6"",""return""]","[0.7740999999046352,1.1252999999523183,1.3815000000000026]",0,5,5,19,1,36,,,,,,,,,,,,,,,,,,,,,,,,,,,,,,,,,,,,,,,,,,,,,,,,,,,,,,,,,,,,,,,,,,,,,,,,,,,,,,,,,,,,,,,,,,,,,,,,,,,,,,,,,,,,,,,,,,,,,,,,,,,,,,,,,,,,,,,,,,,,,,,,,,,,,,,,,,,,,,,,,
,517308643925,BCA,02/02/1998,001,2023-10-19_19h22.09.155,OS3_Mult_verification,2022.2.4,Win32,60.39741499,,,32,1.3156,1,"[""3"",""2"",""return""]","[0.8850000000000051,1.0585999999046436,1.2732999999523287]",0,6,6,17,1,32,,,,,,,,,,,,,,,,,,,,,,,,,,,,,,,,,,,,,,,,,,,,,,,,,,,,,,,,,,,,,,,,,,,,,,,,,,,,,,,,,,,,,,,,,,,,,,,,,,,,,,,,,,,,,,,,,,,,,,,,,,,,,,,,,,,,,,,,,,,,,,,,,,,,,,,,,,,,,,,,,
,517308643925,BCA,02/02/1998,001,2023-10-19_19h22.09.155,OS3_Mult_verification,2022.2.4,Win32,60.39741499,,,10,1.1658,1,"[""1"",""0"",""return""]","[0.5765999999046301,0.8285000000000053,1.1240000000000094]",0,7,7,4,1,10,,,,,,,,,,,,,,,,,,,,,,,,,,,,,,,,,,,,,,,,,,,,,,,,,,,,,,,,,,,,,,,,,,,,,,,,,,,,,,,,,,,,,,,,,,,,,,,,,,,,,,,,,,,,,,,,,,,,,,,,,,,,,,,,,,,,,,,,,,,,,,,,,,,,,,,,,,,,,,,,,
,517308643925,BCA,02/02/1998,001,2023-10-19_19h22.09.155,OS3_Mult_verification,2022.2.4,Win32,60.39741499,,,18,1.4988,1,"[""1"",""8"",""return""]","[0.8804999999999978,1.0976000001430606,1.4637999999523146]",0,8,8,9,1,18,,,,,,,,,,,,,,,,,,,,,,,,,,,,,,,,,,,,,,,,,,,,,,,,,,,,,,,,,,,,,,,,,,,,,,,,,,,,,,,,,,,,,,,,,,,,,,,,,,,,,,,,,,,,,,,,,,,,,,,,,,,,,,,,,,,,,,,,,,,,,,,,,,,,,,,,,,,,,,,,,
,517308643925,BCA,02/02/1998,001,2023-10-19_19h22.09.155,OS3_Mult_verification,2022.2.4,Win32,60.39741499,,,49,1.3653,1,"[""4"",""9"",""return""]","[0.7417000000476861,1.0575999999046388,1.3272999999523165]",0,9,9,24,1,49,,,,,,,,,,,,,,,,,,,,,,,,,,,,,,,,,,,,,,,,,,,,,,,,,,,,,,,,,,,,,,,,,,,,,,,,,,,,,,,,,,,,,,,,,,,,,,,,,,,,,,,,,,,,,,,,,,,,,,,,,,,,,,,,,,,,,,,,,,,,,,,,,,,,,,,,,,,,,,,,,
,517308643925,BCA,02/02/1998,001,2023-10-19_19h22.09.155,OS3_Mult_verification,2022.2.4,Win32,60.39741499,,,14,1.1663,1,"[""1"",""4"",""return""]","[0.6017999999523056,0.8977999999523121,1.1287000000476866]",0,10,10,6,1,14,,,,,,,,,,,,,,,,,,,,,,,,,,,,,,,,,,,,,,,,,,,,,,,,,,,,,,,,,,,,,,,,,,,,,,,,,,,,,,,,,,,,,,,,,,,,,,,,,,,,,,,,,,,,,,,,,,,,,,,,,,,,,,,,,,,,,,,,,,,,,,,,,,,,,,,,,,,,,,,,,
,517308643925,BCA,02/02/1998,001,2023-10-19_19h22.09.155,OS3_Mult_verification,2022.2.4,Win32,60.39741499,,,20,1.2657,1,"[""2"",""0"",""return""]","[0.7307000000476904,0.9303999998569452,1.2243999998569564]",0,11,11,10,1,20,,,,,,,,,,,,,,,,,,,,,,,,,,,,,,,,,,,,,,,,,,,,,,,,,,,,,,,,,,,,,,,,,,,,,,,,,,,,,,,,,,,,,,,,,,,,,,,,,,,,,,,,,,,,,,,,,,,,,,,,,,,,,,,,,,,,,,,,,,,,,,,,,,,,,,,,,,,,,,,,,
,517308643925,BCA,02/02/1998,001,2023-10-19_19h22.09.155,OS3_Mult_verification,2022.2.4,Win32,60.39741499,,,81,1.5152,1,"[""8"",""1"",""return""]","[1.0162000000476752,1.2792000000476804,1.4762999999523174]",0,12,12,30,1,81,,,,,,,,,,,,,,,,,,,,,,,,,,,,,,,,,,,,,,,,,,,,,,,,,,,,,,,,,,,,,,,,,,,,,,,,,,,,,,,,,,,,,,,,,,,,,,,,,,,,,,,,,,,,,,,,,,,,,,,,,,,,,,,,,,,,,,,,,,,,,,,,,,,,,,,,,,,,,,,,,
,517308643925,BCA,02/02/1998,001,2023-10-19_19h22.09.155,OS3_Mult_verification,2022.2.4,Win32,60.39741499,,,8,1.1325,1,"[""8"",""return""]","[0.8002999999523155,1.094100000143058]",0,13,13,2,1,8,,,,,,,,,,,,,,,,,,,,,,,,,,,,,,,,,,,,,,,,,,,,,,,,,,,,,,,,,,,,,,,,,,,,,,,,,,,,,,,,,,,,,,,,,,,,,,,,,,,,,,,,,,,,,,,,,,,,,,,,,,,,,,,,,,,,,,,,,,,,,,,,,,,,,,,,,,,,,,,,,
,517308643925,BCA,02/02/1998,001,2023-10-19_19h22.09.155,OS3_Mult_verification,2022.2.4,Win32,60.39741499,,,30,1.3491,1,"[""3"",""0"",""return""]","[0.8135000000000048,1.0345000000000084,1.3130000000000024]",0,14,14,16,1,30,,,,,,,,,,,,,,,,,,,,,,,,,,,,,,,,,,,,,,,,,,,,,,,,,,,,,,,,,,,,,,,,,,,,,,,,,,,,,,,,,,,,,,,,,,,,,,,,,,,,,,,,,,,,,,,,,,,,,,,,,,,,,,,,,,,,,,,,,,,,,,,,,,,,,,,,,,,,,,,,,
,517308643925,BCA,02/02/1998,001,2023-10-19_19h22.09.155,OS3_Mult_verification,2022.2.4,Win32,60.39741499,,,12,1.1167,1,"[""1"",""2"",""return""]","[0.6510000000000105,0.8570999999046336,1.0797000000476942]",0,15,15,5,1,12,,,,,,,,,,,,,,,,,,,,,,,,,,,,,,,,,,,,,,,,,,,,,,,,,,,,,,,,,,,,,,,,,,,,,,,,,,,,,,,,,,,,,,,,,,,,,,,,,,,,,,,,,,,,,,,,,,,,,,,,,,,,,,,,,,,,,,,,,,,,,,,,,,,,,,,,,,,,,,,,,
,517308643925,BCA,02/02/1998,001,2023-10-19_19h22.09.155,OS3_Mult_verification,2022.2.4,Win32,60.39741499,,,4,1.1161,1,"[""4"",""return""]","[0.8301000001430481,1.0849999999999937]",0,16,16,0,1,4,,,,,,,,,,,,,,,,,,,,,,,,,,,,,,,,,,,,,,,,,,,,,,,,,,,,,,,,,,,,,,,,,,,,,,,,,,,,,,,,,,,,,,,,,,,,,,,,,,,,,,,,,,,,,,,,,,,,,,,,,,,,,,,,,,,,,,,,,,,,,,,,,,,,,,,,,,,,,,,,,
,517308643925,BCA,02/02/1998,001,2023-10-19_19h22.09.155,OS3_Mult_verification,2022.2.4,Win32,60.39741499,,,25,1.7331,1,"[""2"",""5"",""return""]","[1.20760000014306,1.5082000000476938,1.704299999952326]",0,17,17,13,1,25,,,,,,,,,,,,,,,,,,,,,,,,,,,,,,,,,,,,,,,,,,,,,,,,,,,,,,,,,,,,,,,,,,,,,,,,,,,,,,,,,,,,,,,,,,,,,,,,,,,,,,,,,,,,,,,,,,,,,,,,,,,,,,,,,,,,,,,,,,,,,,,,,,,,,,,,,,,,,,,,,
,517308643925,BCA,02/02/1998,001,2023-10-19_19h22.09.155,OS3_Mult_verification,2022.2.4,Win32,60.39741499,,,45,1.5488,1,"[""4"",""5"",""return""]","[0.7594999999999885,0.9495999999046205,1.5120000000000005]",0,18,18,22,1,45,,,,,,,,,,,,,,,,,,,,,,,,,,,,,,,,,,,,,,,,,,,,,,,,,,,,,,,,,,,,,,,,,,,,,,,,,,,,,,,,,,,,,,,,,,,,,,,,,,,,,,,,,,,,,,,,,,,,,,,,,,,,,,,,,,,,,,,,,,,,,,,,,,,,,,,,,,,,,,,,,
,517308643925,BCA,02/02/1998,001,2023-10-19_19h22.09.155,OS3_Mult_verification,2022.2.4,Win32,60.39741499,,,72,1.7987,1,"[""7"",""2"",""return""]","[1.2761999998092648,1.5668999998569433,1.7626999998092714]",0,19,19,29,1,72,,,,,,,,,,,,,,,,,,,,,,,,,,,,,,,,,,,,,,,,,,,,,,,,,,,,,,,,,,,,,,,,,,,,,,,,,,,,,,,,,,,,,,,,,,,,,,,,,,,,,,,,,,,,,,,,,,,,,,,,,,,,,,,,,,,,,,,,,,,,,,,,,,,,,,,,,,,,,,,,,
,517308643925,BCA,02/02/1998,001,2023-10-19_19h22.09.155,OS3_Mult_verification,2022.2.4,Win32,60.39741499,,,9,1.099,1,"[""9"",""return""]","[0.7751000001430555,1.061200000047691]",0,20,20,3,1,9,,,,,,,,,,,,,,,,,,,,,,,,,,,,,,,,,,,,,,,,,,,,,,,,,,,,,,,,,,,,,,,,,,,,,,,,,,,,,,,,,,,,,,,,,,,,,,,,,,,,,,,,,,,,,,,,,,,,,,,,,,,,,,,,,,,,,,,,,,,,,,,,,,,,,,,,,,,,,,,,,
,517308643925,BCA,02/02/1998,001,2023-10-19_19h22.09.155,OS3_Mult_verification,2022.2.4,Win32,60.39741499,,,48,1.3991,1,"[""4"",""8"",""return""]","[0.7613000001907295,1.054200000047686,1.3647000000476908]",0,21,21,23,1,48,,,,,,,,,,,,,,,,,,,,,,,,,,,,,,,,,,,,,,,,,,,,,,,,,,,,,,,,,,,,,,,,,,,,,,,,,,,,,,,,,,,,,,,,,,,,,,,,,,,,,,,,,,,,,,,,,,,,,,,,,,,,,,,,,,,,,,,,,,,,,,,,,,,,,,,,,,,,,,,,,
,517308643925,BCA,02/02/1998,001,2023-10-19_19h22.09.155,OS3_Mult_verification,2022.2.4,Win32,60.39741499,,,42,1.3159,1,"[""4"",""2"",""return""]","[0.677199999809261,1.0133999998569436,1.2846999998092627]",0,22,22,21,1,42,,,,,,,,,,,,,,,,,,,,,,,,,,,,,,,,,,,,,,,,,,,,,,,,,,,,,,,,,,,,,,,,,,,,,,,,,,,,,,,,,,,,,,,,,,,,,,,,,,,,,,,,,,,,,,,,,,,,,,,,,,,,,,,,,,,,,,,,,,,,,,,,,,,,,,,,,,,,,,,,,
,517308643925,BCA,02/02/1998,001,2023-10-19_19h22.09.155,OS3_Mult_verification,2022.2.4,Win32,60.39741499,,,56,2.8484,1,"[""4"",""backspace"",""5"",""6"",""return""]","[0.7147999999523194,1.4510000000000076,2.1623999998569445,2.5627999999523183,2.8115000000000094]",0,23,23,26,1,56,,,,,,,,,,,,,,,,,,,,,,,,,,,,,,,,,,,,,,,,,,,,,,,,,,,,,,,,,,,,,,,,,,,,,,,,,,,,,,,,,,,,,,,,,,,,,,,,,,,,,,,,,,,,,,,,,,,,,,,,,,,,,,,,,,,,,,,,,,,,,,,,,,,,,,,,,,,,,,,,,
,517308643925,BCA,02/02/1998,001,2023-10-19_19h22.09.155,OS3_Mult_verification,2022.2.4,Win32,60.39741499,,,54,1.1664,1,"[""5"",""4"",""return""]","[0.7444000000953679,0.9297999999523228,1.1326000001430572]",0,24,24,25,1,54,,,,,,,,,,,,,,,,,,,,,,,,,,,,,,,,,,,,,,,,,,,,,,,,,,,,,,,,,,,,,,,,,,,,,,,,,,,,,,,,,,,,,,,,,,,,,,,,,,,,,,,,,,,,,,,,,,,,,,,,,,,,,,,,,,,,,,,,,,,,,,,,,,,,,,,,,,,,,,,,,
,517308643925,BCA,02/02/1998,001,2023-10-19_19h22.09.155,OS3_Mult_verification,2022.2.4,Win32,60.39741499,,,64,1.2822,1,"[""6"",""4"",""return""]","[0.8627999999523155,1.0456999998092584,1.2441999998092683]",0,25,25,28,1,64,,,,,,,,,,,,,,,,,,,,,,,,,,,,,,,,,,,,,,,,,,,,,,,,,,,,,,,,,,,,,,,,,,,,,,,,,,,,,,,,,,,,,,,,,,,,,,,,,,,,,,,,,,,,,,,,,,,,,,,,,,,,,,,,,,,,,,,,,,,,,,,,,,,,,,,,,,,,,,,,,
,517308643925,BCA,02/02/1998,001,2023-10-19_19h22.09.155,OS3_Mult_verification,2022.2.4,Win32,60.39741499,,,6,0.8818,1,"[""6"",""return""]","[0.661399999856954,0.8435000000000059]",0,26,26,1,1,6,,,,,,,,,,,,,,,,,,,,,,,,,,,,,,,,,,,,,,,,,,,,,,,,,,,,,,,,,,,,,,,,,,,,,,,,,,,,,,,,,,,,,,,,,,,,,,,,,,,,,,,,,,,,,,,,,,,,,,,,,,,,,,,,,,,,,,,,,,,,,,,,,,,,,,,,,,,,,,,,,
,517308643925,BCA,02/02/1998,001,2023-10-19_19h22.09.155,OS3_Mult_verification,2022.2.4,Win32,60.39741499,,,63,1.5485,1,"[""6"",""3"",""return""]","[0.6782000000476813,1.325400000095371,1.5105999999046276]",0,27,27,27,1,63,,,,,,,,,,,,,,,,,,,,,,,,,,,,,,,,,,,,,,,,,,,,,,,,,,,,,,,,,,,,,,,,,,,,,,,,,,,,,,,,,,,,,,,,,,,,,,,,,,,,,,,,,,,,,,,,,,,,,,,,,,,,,,,,,,,,,,,,,,,,,,,,,,,,,,,,,,,,,,,,,
,517308643925,BCA,02/02/1998,001,2023-10-19_19h22.09.155,OS3_Mult_verification,2022.2.4,Win32,60.39741499,,,24,1.6825,1,"[""2"",""4"",""return""]","[1.281099999904626,1.4806999998092607,1.648699999809267]",0,28,28,12,1,24,,,,,,,,,,,,,,,,,,,,,,,,,,,,,,,,,,,,,,,,,,,,,,,,,,,,,,,,,,,,,,,,,,,,,,,,,,,,,,,,,,,,,,,,,,,,,,,,,,,,,,,,,,,,,,,,,,,,,,,,,,,,,,,,,,,,,,,,,,,,,,,,,,,,,,,,,,,,,,,,,
,517308643925,BCA,02/02/1998,001,2023-10-19_19h22.09.155,OS3_Mult_verification,2022.2.4,Win32,60.39741499,,,35,1.4488,1,"[""3"",""5"",""return""]","[1.0319000000953622,1.231900000095365,1.4186000001430443]",0,29,29,18,1,35,,,,,,,,,,,,,,,,,,,,,,,,,,,,,,,,,,,,,,,,,,,,,,,,,,,,,,,,,,,,,,,,,,,,,,,,,,,,,,,,,,,,,,,,,,,,,,,,,,,,,,,,,,,,,,,,,,,,,,,,,,,,,,,,,,,,,,,,,,,,,,,,,,,,,,,,,,,,,,,,,
,517308643925,BCA,02/02/1998,001,2023-10-19_19h22.09.155,OS3_Mult_verification,2022.2.4,Win32,60.39741499,,,16,1.4323,1,"[""1"",""6"",""return""]","[0.8438000001907255,1.193400000095366,1.3933000001907345]",0,30,30,8,1,16,,,,,,,,,,,,,,,,,,,,,,,,,,,,,,,,,,,,,,,,,,,,,,,,,,,,,,,,,,,,,,,,,,,,,,,,,,,,,,,,,,,,,,,,,,,,,,,,,,,,,,,,,,,,,,,,,,,,,,,,,,,,,,,,,,,,,,,,,,,,,,,,,,,,,,,,,,,,,,,,,
,517308643925,BCA,02/02/1998,001,2023-10-19_19h22.09.155,OS3_Mult_verification,2022.2.4,Win32,60.39741499,,,10,1.1488,1,"[""1"",""0"",""return""]","[0.5927999999523195,0.8340999999046375,1.1070999999046336]",1,0,31,4,1,10,,,,,,,,,,,,,,,,,,,,,,,,,,,,,,,,,,,,,,,,,,,,,,,,,,,,,,,,,,,,,,,,,,,,,,,,,,,,,,,,,,,,,,,,,,,,,,,,,,,,,,,,,,,,,,,,,,,,,,,,,,,,,,,,,,,,,,,,,,,,,,,,,,,,,,,,,,,,,,,,,
,517308643925,BCA,02/02/1998,001,2023-10-19_19h22.09.155,OS3_Mult_verification,2022.2.4,Win32,60.39741499,,,16,1.2152,1,"[""1"",""6"",""return""]","[0.5657000000476842,0.9780000000000086,1.179200000047686]",1,1,32,8,1,16,,,,,,,,,,,,,,,,,,,,,,,,,,,,,,,,,,,,,,,,,,,,,,,,,,,,,,,,,,,,,,,,,,,,,,,,,,,,,,,,,,,,,,,,,,,,,,,,,,,,,,,,,,,,,,,,,,,,,,,,,,,,,,,,,,,,,,,,,,,,,,,,,,,,,,,,,,,,,,,,,
,517308643925,BCA,02/02/1998,001,2023-10-19_19h22.09.155,OS3_Mult_verification,2022.2.4,Win32,60.39741499,,,9,1.2989,1,"[""9"",""return""]","[0.9764000000953672,1.2573000001907388]",1,2,33,3,1,9,,,,,,,,,,,,,,,,,,,,,,,,,,,,,,,,,,,,,,,,,,,,,,,,,,,,,,,,,,,,,,,,,,,,,,,,,,,,,,,,,,,,,,,,,,,,,,,,,,,,,,,,,,,,,,,,,,,,,,,,,,,,,,,,,,,,,,,,,,,,,,,,,,,,,,,,,,,,,,,,,
,517308643925,BCA,02/02/1998,001,2023-10-19_19h22.09.155,OS3_Mult_verification,2022.2.4,Win32,60.39741499,,,56,1.4491,1,"[""5"",""6"",""return""]","[0.9802000000476738,1.2099999999999937,1.409099999904626]",1,3,34,26,1,56,,,,,,,,,,,,,,,,,,,,,,,,,,,,,,,,,,,,,,,,,,,,,,,,,,,,,,,,,,,,,,,,,,,,,,,,,,,,,,,,,,,,,,,,,,,,,,,,,,,,,,,,,,,,,,,,,,,,,,,,,,,,,,,,,,,,,,,,,,,,,,,,,,,,,,,,,,,,,,,,,
,517308643925,BCA,02/02/1998,001,2023-10-19_19h22.09.155,OS3_Mult_verification,2022.2.4,Win32,60.39741499,,,72,1.4823,1,"[""7"",""2"",""return""]","[0.9306000001430448,1.2471000001430497,1.451900000095364]",1,4,35,29,1,72,,,,,,,,,,,,,,,,,,,,,,,,,,,,,,,,,,,,,,,,,,,,,,,,,,,,,,,,,,,,,,,,,,,,,,,,,,,,,,,,,,,,,,,,,,,,,,,,,,,,,,,,,,,,,,,,,,,,,,,,,,,,,,,,,,,,,,,,,,,,,,,,,,,,,,,,,,,,,,,,,
,517308643925,BCA,02/02/1998,001,2023-10-19_19h22.09.155,OS3_Mult_verification,2022.2.4,Win32,60.39741499,,,63,1.5825,1,"[""6"",""3"",""return""]","[0.8277999999523047,1.3277000000476846,1.5424999999999898]",1,5,36,27,1,63,,,,,,,,,,,,,,,,,,,,,,,,,,,,,,,,,,,,,,,,,,,,,,,,,,,,,,,,,,,,,,,,,,,,,,,,,,,,,,,,,,,,,,,,,,,,,,,,,,,,,,,,,,,,,,,,,,,,,,,,,,,,,,,,,,,,,,,,,,,,,,,,,,,,,,,,,,,,,,,,,
,517308643925,BCA,02/02/1998,001,2023-10-19_19h22.09.155,OS3_Mult_verification,2022.2.4,Win32,60.39741499,,,20,1.4326,1,"[""2"",""0"",""return""]","[0.9479000000953732,1.0795000000000101,1.3942999999523238]",1,6,37,10,1,20,,,,,,,,,,,,,,,,,,,,,,,,,,,,,,,,,,,,,,,,,,,,,,,,,,,,,,,,,,,,,,,,,,,,,,,,,,,,,,,,,,,,,,,,,,,,,,,,,,,,,,,,,,,,,,,,,,,,,,,,,,,,,,,,,,,,,,,,,,,,,,,,,,,,,,,,,,,,,,,,,
,517308643925,BCA,02/02/1998,001,2023-10-19_19h22.09.155,OS3_Mult_verification,2022.2.4,Win32,60.39741499,,,25,1.0992,1,"[""2"",""5"",""return""]","[0.6031999998092772,0.893099999904635,1.0594999999999999]",1,7,38,13,1,25,,,,,,,,,,,,,,,,,,,,,,,,,,,,,,,,,,,,,,,,,,,,,,,,,,,,,,,,,,,,,,,,,,,,,,,,,,,,,,,,,,,,,,,,,,,,,,,,,,,,,,,,,,,,,,,,,,,,,,,,,,,,,,,,,,,,,,,,,,,,,,,,,,,,,,,,,,,,,,,,,
,517308643925,BCA,02/02/1998,001,2023-10-19_19h22.09.155,OS3_Mult_verification,2022.2.4,Win32,60.39741499,,,40,1.5655,1,"[""4"",""0"",""return""]","[1.0003000001907338,1.2271000001430536,1.526100000143046]",1,8,39,20,1,40,,,,,,,,,,,,,,,,,,,,,,,,,,,,,,,,,,,,,,,,,,,,,,,,,,,,,,,,,,,,,,,,,,,,,,,,,,,,,,,,,,,,,,,,,,,,,,,,,,,,,,,,,,,,,,,,,,,,,,,,,,,,,,,,,,,,,,,,,,,,,,,,,,,,,,,,,,,,,,,,,
,517308643925,BCA,02/02/1998,001,2023-10-19_19h22.09.155,OS3_Mult_verification,2022.2.4,Win32,60.39741499,,,14,1.1825,1,"[""1"",""4"",""return""]","[0.6517000000476827,0.9329000000953585,1.1437999999523072]",1,9,40,6,1,14,,,,,,,,,,,,,,,,,,,,,,,,,,,,,,,,,,,,,,,,,,,,,,,,,,,,,,,,,,,,,,,,,,,,,,,,,,,,,,,,,,,,,,,,,,,,,,,,,,,,,,,,,,,,,,,,,,,,,,,,,,,,,,,,,,,,,,,,,,,,,,,,,,,,,,,,,,,,,,,,,
,517308643925,BCA,02/02/1998,001,2023-10-19_19h22.09.155,OS3_Mult_verification,2022.2.4,Win32,60.39741499,,,30,1.3658,1,"[""3"",""0"",""return""]","[0.8429999999999893,1.026100000143046,1.334200000047673]",1,10,41,16,1,30,,,,,,,,,,,,,,,,,,,,,,,,,,,,,,,,,,,,,,,,,,,,,,,,,,,,,,,,,,,,,,,,,,,,,,,,,,,,,,,,,,,,,,,,,,,,,,,,,,,,,,,,,,,,,,,,,,,,,,,,,,,,,,,,,,,,,,,,,,,,,,,,,,,,,,,,,,,,,,,,,
,517308643925,BCA,02/02/1998,001,2023-10-19_19h22.09.155,OS3_Mult_verification,2022.2.4,Win32,60.39741499,,,64,1.3487,1,"[""6"",""4"",""return""]","[0.9275000000000091,1.0917000000476946,1.305800000190743]",1,11,42,28,1,64,,,,,,,,,,,,,,,,,,,,,,,,,,,,,,,,,,,,,,,,,,,,,,,,,,,,,,,,,,,,,,,,,,,,,,,,,,,,,,,,,,,,,,,,,,,,,,,,,,,,,,,,,,,,,,,,,,,,,,,,,,,,,,,,,,,,,,,,,,,,,,,,,,,,,,,,,,,,,,,,,
,517308643925,BCA,02/02/1998,001,2023-10-19_19h22.09.155,OS3_Mult_verification,2022.2.4,Win32,60.39741499,,,48,1.366,1,"[""4"",""8"",""return""]","[0.7522000000476794,1.0148000001907178,1.3264999999999816]",1,12,43,23,1,48,,,,,,,,,,,,,,,,,,,,,,,,,,,,,,,,,,,,,,,,,,,,,,,,,,,,,,,,,,,,,,,,,,,,,,,,,,,,,,,,,,,,,,,,,,,,,,,,,,,,,,,,,,,,,,,,,,,,,,,,,,,,,,,,,,,,,,,,,,,,,,,,,,,,,,,,,,,,,,,,,
,517308643925,BCA,02/02/1998,001,2023-10-19_19h22.09.155,OS3_Mult_verification,2022.2.4,Win32,60.39741499,,,49,1.4821,1,"[""4"",""9"",""return""]","[0.734499999999997,1.127999999999986,1.4432999999522877]",1,13,44,24,1,49,,,,,,,,,,,,,,,,,,,,,,,,,,,,,,,,,,,,,,,,,,,,,,,,,,,,,,,,,,,,,,,,,,,,,,,,,,,,,,,,,,,,,,,,,,,,,,,,,,,,,,,,,,,,,,,,,,,,,,,,,,,,,,,,,,,,,,,,,,,,,,,,,,,,,,,,,,,,,,,,,
,517308643925,BCA,02/02/1998,001,2023-10-19_19h22.09.155,OS3_Mult_verification,2022.2.4,Win32,60.39741499,,,36,1.8826,1,"[""3"",""6"",""return""]","[1.3616000001430564,1.6447000000476635,1.8422000000476828]",1,14,45,19,1,36,,,,,,,,,,,,,,,,,,,,,,,,,,,,,,,,,,,,,,,,,,,,,,,,,,,,,,,,,,,,,,,,,,,,,,,,,,,,,,,,,,,,,,,,,,,,,,,,,,,,,,,,,,,,,,,,,,,,,,,,,,,,,,,,,,,,,,,,,,,,,,,,,,,,,,,,,,,,,,,,,
,517308643925,BCA,02/02/1998,001,2023-10-19_19h22.09.155,OS3_Mult_verification,2022.2.4,Win32,60.39741499,,,8,1.1652,1,"[""8"",""return""]","[0.816799999952309,1.1324999999999932]",1,15,46,2,1,8,,,,,,,,,,,,,,,,,,,,,,,,,,,,,,,,,,,,,,,,,,,,,,,,,,,,,,,,,,,,,,,,,,,,,,,,,,,,,,,,,,,,,,,,,,,,,,,,,,,,,,,,,,,,,,,,,,,,,,,,,,,,,,,,,,,,,,,,,,,,,,,,,,,,,,,,,,,,,,,,,
,517308643925,BCA,02/02/1998,001,2023-10-19_19h22.09.155,OS3_Mult_verification,2022.2.4,Win32,60.39741499,,,28,1.3825,1,"[""2"",""8"",""return""]","[0.8032000000476671,1.0367000000476878,1.3453000001907185]",1,16,47,15,1,28,,,,,,,,,,,,,,,,,,,,,,,,,,,,,,,,,,,,,,,,,,,,,,,,,,,,,,,,,,,,,,,,,,,,,,,,,,,,,,,,,,,,,,,,,,,,,,,,,,,,,,,,,,,,,,,,,,,,,,,,,,,,,,,,,,,,,,,,,,,,,,,,,,,,,,,,,,,,,,,,,
,517308643925,BCA,02/02/1998,001,2023-10-19_19h22.09.155,OS3_Mult_verification,2022.2.4,Win32,60.39741499,,,32,1.4652,1,"[""3"",""2"",""return""]","[1.0439000000953627,1.2009000000953733,1.4354000000953704]",1,17,48,17,1,32,,,,,,,,,,,,,,,,,,,,,,,,,,,,,,,,,,,,,,,,,,,,,,,,,,,,,,,,,,,,,,,,,,,,,,,,,,,,,,,,,,,,,,,,,,,,,,,,,,,,,,,,,,,,,,,,,,,,,,,,,,,,,,,,,,,,,,,,,,,,,,,,,,,,,,,,,,,,,,,,,
,517308643925,BCA,02/02/1998,001,2023-10-19_19h22.09.155,OS3_Mult_verification,2022.2.4,Win32,60.39741499,,,35,1.2158,1,"[""3"",""5"",""return""]","[0.7690000000000055,0.9996999998092804,1.1861999998092756]",1,18,49,18,1,35,,,,,,,,,,,,,,,,,,,,,,,,,,,,,,,,,,,,,,,,,,,,,,,,,,,,,,,,,,,,,,,,,,,,,,,,,,,,,,,,,,,,,,,,,,,,,,,,,,,,,,,,,,,,,,,,,,,,,,,,,,,,,,,,,,,,,,,,,,,,,,,,,,,,,,,,,,,,,,,,,
,517308643925,BCA,02/02/1998,001,2023-10-19_19h22.09.155,OS3_Mult_verification,2022.2.4,Win32,60.39741499,,,18,1.416,1,"[""1"",""8"",""return""]","[0.7354999999999734,1.044200000047681,1.3768999998569313]",1,19,50,9,1,18,,,,,,,,,,,,,,,,,,,,,,,,,,,,,,,,,,,,,,,,,,,,,,,,,,,,,,,,,,,,,,,,,,,,,,,,,,,,,,,,,,,,,,,,,,,,,,,,,,,,,,,,,,,,,,,,,,,,,,,,,,,,,,,,,,,,,,,,,,,,,,,,,,,,,,,,,,,,,,,,,
,517308643925,BCA,02/02/1998,001,2023-10-19_19h22.09.155,OS3_Mult_verification,2022.2.4,Win32,60.39741499,,,12,1.017,1,"[""1"",""2"",""return""]","[0.6680000000000064,0.8493999998569564,0.9910999999046339]",1,20,51,5,1,12,,,,,,,,,,,,,,,,,,,,,,,,,,,,,,,,,,,,,,,,,,,,,,,,,,,,,,,,,,,,,,,,,,,,,,,,,,,,,,,,,,,,,,,,,,,,,,,,,,,,,,,,,,,,,,,,,,,,,,,,,,,,,,,,,,,,,,,,,,,,,,,,,,,,,,,,,,,,,,,,,
,517308643925,BCA,02/02/1998,001,2023-10-19_19h22.09.155,OS3_Mult_verification,2022.2.4,Win32,60.39741499,,,24,1.5327,1,"[""2"",""4"",""return""]","[0.8851000001430407,1.1107000000476717,1.4937000000476814]",1,21,52,12,1,24,,,,,,,,,,,,,,,,,,,,,,,,,,,,,,,,,,,,,,,,,,,,,,,,,,,,,,,,,,,,,,,,,,,,,,,,,,,,,,,,,,,,,,,,,,,,,,,,,,,,,,,,,,,,,,,,,,,,,,,,,,,,,,,,,,,,,,,,,,,,,,,,,,,,,,,,,,,,,,,,,
,517308643925,BCA,02/02/1998,001,2023-10-19_19h22.09.155,OS3_Mult_verification,2022.2.4,Win32,60.39741499,,,45,1.366,1,"[""4"",""5"",""return""]","[0.8614000000953581,1.1286000001430523,1.3276000001430361]",1,22,53,22,1,45,,,,,,,,,,,,,,,,,,,,,,,,,,,,,,,,,,,,,,,,,,,,,,,,,,,,,,,,,,,,,,,,,,,,,,,,,,,,,,,,,,,,,,,,,,,,,,,,,,,,,,,,,,,,,,,,,,,,,,,,,,,,,,,,,,,,,,,,,,,,,,,,,,,,,,,,,,,,,,,,,
,517308643925,BCA,02/02/1998,001,2023-10-19_19h22.09.155,OS3_Mult_verification,2022.2.4,Win32,60.39741499,,,42,1.1494,1,"[""4"",""2"",""return""]","[0.7701999998092788,0.9493999998569507,1.1132999999523179]",1,23,54,21,1,42,,,,,,,,,,,,,,,,,,,,,,,,,,,,,,,,,,,,,,,,,,,,,,,,,,,,,,,,,,,,,,,,,,,,,,,,,,,,,,,,,,,,,,,,,,,,,,,,,,,,,,,,,,,,,,,,,,,,,,,,,,,,,,,,,,,,,,,,,,,,,,,,,,,,,,,,,,,,,,,,,
,517308643925,BCA,02/02/1998,001,2023-10-19_19h22.09.155,OS3_Mult_verification,2022.2.4,Win32,60.39741499,,,6,1.582,1,"[""6"",""return""]","[1.176900000095344,1.541900000095353]",1,24,55,1,1,6,,,,,,,,,,,,,,,,,,,,,,,,,,,,,,,,,,,,,,,,,,,,,,,,,,,,,,,,,,,,,,,,,,,,,,,,,,,,,,,,,,,,,,,,,,,,,,,,,,,,,,,,,,,,,,,,,,,,,,,,,,,,,,,,,,,,,,,,,,,,,,,,,,,,,,,,,,,,,,,,,
,517308643925,BCA,02/02/1998,001,2023-10-19_19h22.09.155,OS3_Mult_verification,2022.2.4,Win32,60.39741499,,,15,1.199,1,"[""1"",""5"",""return""]","[0.6941000001430382,0.9957000000476626,1.1639999999999873]",1,25,56,7,1,15,,,,,,,,,,,,,,,,,,,,,,,,,,,,,,,,,,,,,,,,,,,,,,,,,,,,,,,,,,,,,,,,,,,,,,,,,,,,,,,,,,,,,,,,,,,,,,,,,,,,,,,,,,,,,,,,,,,,,,,,,,,,,,,,,,,,,,,,,,,,,,,,,,,,,,,,,,,,,,,,,
,517308643925,BCA,02/02/1998,001,2023-10-19_19h22.09.155,OS3_Mult_verification,2022.2.4,Win32,60.39741499,,,4,0.9156,1,"[""4"",""return""]","[0.698799999952314,0.8804999999999836]",1,26,57,0,1,4,,,,,,,,,,,,,,,,,,,,,,,,,,,,,,,,,,,,,,,,,,,,,,,,,,,,,,,,,,,,,,,,,,,,,,,,,,,,,,,,,,,,,,,,,,,,,,,,,,,,,,,,,,,,,,,,,,,,,,,,,,,,,,,,,,,,,,,,,,,,,,,,,,,,,,,,,,,,,,,,,
,517308643925,BCA,02/02/1998,001,2023-10-19_19h22.09.155,OS3_Mult_verification,2022.2.4,Win32,60.39741499,,,81,1.3988,1,"[""8"",""1"",""return""]","[0.8770999999046296,1.1438999998569557,1.3577999999523058]",1,27,58,30,1,81,,,,,,,,,,,,,,,,,,,,,,,,,,,,,,,,,,,,,,,,,,,,,,,,,,,,,,,,,,,,,,,,,,,,,,,,,,,,,,,,,,,,,,,,,,,,,,,,,,,,,,,,,,,,,,,,,,,,,,,,,,,,,,,,,,,,,,,,,,,,,,,,,,,,,,,,,,,,,,,,,
,517308643925,BCA,02/02/1998,001,2023-10-19_19h22.09.155,OS3_Mult_verification,2022.2.4,Win32,60.39741499,,,27,1.9322,1,"[""2"",""7"",""return""]","[0.8087999999523277,1.663499999999999,1.8910999999046396]",1,28,59,14,1,27,,,,,,,,,,,,,,,,,,,,,,,,,,,,,,,,,,,,,,,,,,,,,,,,,,,,,,,,,,,,,,,,,,,,,,,,,,,,,,,,,,,,,,,,,,,,,,,,,,,,,,,,,,,,,,,,,,,,,,,,,,,,,,,,,,,,,,,,,,,,,,,,,,,,,,,,,,,,,,,,,
,517308643925,BCA,02/02/1998,001,2023-10-19_19h22.09.155,OS3_Mult_verification,2022.2.4,Win32,60.39741499,,,54,1.3827,1,"[""5"",""4"",""return""]","[1,1.1647999999523222,1.3447000000476805]",1,29,60,25,1,54,,,,,,,,,,,,,,,,,,,,,,,,,,,,,,,,,,,,,,,,,,,,,,,,,,,,,,,,,,,,,,,,,,,,,,,,,,,,,,,,,,,,,,,,,,,,,,,,,,,,,,,,,,,,,,,,,,,,,,,,,,,,,,,,,,,,,,,,,,,,,,,,,,,,,,,,,,,,,,,,,
,517308643925,BCA,02/02/1998,001,2023-10-19_19h22.09.155,OS3_Mult_verification,2022.2.4,Win32,60.39741499,,,21,1.3492,1,"[""2"",""1"",""return""]","[0.9784000000953768,1.117900000095375,1.3102999999523206]",1,30,61,11,1,21,,,,,,,,,,,,,,,,,,,,,,,,,,,,,,,,,,,,,,,,,,,,,,,,,,,,,,,,,,,,,,,,,,,,,,,,,,,,,,,,,,,,,,,,,,,,,,,,,,,,,,,,,,,,,,,,,,,,,,,,,,,,,,,,,,,,,,,,,,,,,,,,,,,,,,,,,,,,,,,,,
,517308643925,BCA,02/02/1998,001,2023-10-19_19h22.09.155,OS3_Mult_verification,2022.2.4,Win32,60.39741499,,,,,,,,,,,,,,space,2.206,,,,,,,,,,,,,,,,,,,,,,,,,,,,,,,,,,,,,,,,,,,,,,,,,,,,,,,,,,,,,,,,,,,,,,,,,,,,,,,,,,,,,,,,,,,,,,,,,,,,,,,,,,,,,,,,,,,,,,,,,,,,,,,,,,,,,,,,,,,,,,,,,,,,,,,,,,,,,,,
,517308643925,BCA,02/02/1998,001,2023-10-19_19h22.09.155,OS3_Mult_verification,2022.2.4,Win32,60.39741499,,,,,,,,,,,,,,,,,,,,,,,,,,,,,,,,,,,,,,,,,,,,,,,,,,,,,,,,,,,,,,,,,,,,,,,,,,,,,,,,,,,,,,,,,,,,,,,,,,,,,,,,,,,,,,,,,,,,,,,,,,,,,,,,,,,,,,,,,,,,,,,,,,,,,,,,,,,,,,,,,,,,,,,,,,,,,,
,517308643925,BCA,02/02/1998,001,2023-10-19_19h22.09.155,OS3_Mult_verification,2022.2.4,Win32,60.39741499,,,,,,,,,,,,,,,,space,3.0861,,,,,,,,,,,,,,,,,,,,,,,,,,,,,,,,,,,,,,,,,,,,,,,,,,,,,,,,,,,,,,,,,,,,,,,,,,,,,,,,,,,,,,,,,,,,,,,,,,,,,,,,,,,,,,,,,,,,,,,,,,,,,,,,,,,,,,,,,,,,,,,,,,,,,,,,,,,,,
,517308643925,BCA,02/02/1998,001,2023-10-19_19h22.09.155,OS3_Mult_verification,2022.2.4,Win32,60.39741499,,,,,,,,,,,,,,,,,,7,2.3239,1,"[""7"",""return""]","[1.5845000000000198,2.022399999856958]",0,0,0,0,1,1 × 7 =,7,,,,,,,,,,,,,,,,,,,,,,,,,,,,,,,,,,,,,,,,,,,,,,,,,,,,,,,,,,,,,,,,,,,,,,,,,,,,,,,,,,,,,,,,,,,,,,,,,,,,,,,,,,,,,,,,,,,,,,,,,,,,,,,,,,,,,,,,,,,,,,,,,
,517308643925,BCA,02/02/1998,001,2023-10-19_19h22.09.155,OS3_Mult_verification,2022.2.4,Win32,60.39741499,,,,,,,,,,,,,,,,,,20,2.1047,1,"[""2"",""0"",""return""]","[1.1002999999523126,1.516999999999996,1.816500000000019]",0,1,1,1,1,2 × 10 =,20,,,,,,,,,,,,,,,,,,,,,,,,,,,,,,,,,,,,,,,,,,,,,,,,,,,,,,,,,,,,,,,,,,,,,,,,,,,,,,,,,,,,,,,,,,,,,,,,,,,,,,,,,,,,,,,,,,,,,,,,,,,,,,,,,,,,,,,,,,,,,,,,,
,517308643925,BCA,02/02/1998,001,2023-10-19_19h22.09.155,OS3_Mult_verification,2022.2.4,Win32,60.39741499,,,,,,,,,,,,,,,,,,22,1.5316,1,"[""2"",""2"",""return""]","[0.9282000000476955,1.0811000001430386,1.2324999999999875]",0,2,2,2,1,2 × 11 =,22,,,,,,,,,,,,,,,,,,,,,,,,,,,,,,,,,,,,,,,,,,,,,,,,,,,,,,,,,,,,,,,,,,,,,,,,,,,,,,,,,,,,,,,,,,,,,,,,,,,,,,,,,,,,,,,,,,,,,,,,,,,,,,,,,,,,,,,,,,,,,,,,,
,517308643925,BCA,02/02/1998,001,2023-10-19_19h22.09.155,OS3_Mult_verification,2022.2.4,Win32,60.39741499,,,,,,,,,,,,,,,,,,,,,,,,,,,,,,,,,,,,,,,,,,,,,,,,,,,,,,,,,,,,,,,,,,,,,,,,,,,,,,,,,,,,,,,,,,,,,,,,,,,,,,,,,,,,,,,,,,,,,,,,,,,,,,,,,,,,,,,,,,,,,,,,,,,,,,,,,,,,,,,,,,,,,,,,,,,,,,
,517308643925,BCA,02/02/1998,001,2023-10-19_19h22.09.155,OS3_Mult_verification,2022.2.4,Win32,60.39741499,,,,,,,,,,,,,,,,,,,,,,,,,,,,,,,,,,,,,,,,,,,,,,,,,,,,,,,,,,,,,,,,,,,,,,,,,,,,,,,,,,,,,,,,,,,,,,,,,,,,,,,,,,,,,,,,,,,,,,,,,,,,,,,,,,,,,,,,,,,,,,,,,,,,,,,,,,,,,,,,,,,,,,,,,,,,,,
,517308643925,BCA,02/02/1998,001,2023-10-19_19h22.09.155,OS3_Mult_verification,2022.2.4,Win32,60.39741499,,,,,,,,,,,,,,,,,,6,1.7265,1,"[""6"",""return""]","[1.2690000000000055,1.4232999999523201]",,,,,,2 × 3 =,6,0,0,0,0,1,,,,,,,,,,,,,,,,,,,,,,,,,,,,,,,,,,,,,,,,,,,,,,,,,,,,,,,,,,,,,,,,,,,,,,,,,,,,,,,,,,,,,,,,,,,,,,,,,,,,,,,,,,,,,,,,,,,,,,,,,,,,,,,,,,,,,,,,,,,,
,517308643925,BCA,02/02/1998,001,2023-10-19_19h22.09.155,OS3_Mult_verification,2022.2.4,Win32,60.39741499,,,,,,,,,,,,,,,,,,40,1.8654,1,"[""4"",""0"",""return""]","[1.1515999999046187,1.3177000000476937,1.5564999999999998]",,,,,,5 × 8 =,40,0,1,1,1,1,,,,,,,,,,,,,,,,,,,,,,,,,,,,,,,,,,,,,,,,,,,,,,,,,,,,,,,,,,,,,,,,,,,,,,,,,,,,,,,,,,,,,,,,,,,,,,,,,,,,,,,,,,,,,,,,,,,,,,,,,,,,,,,,,,,,,,,,,,,,
,517308643925,BCA,02/02/1998,001,2023-10-19_19h22.09.155,OS3_Mult_verification,2022.2.4,Win32,60.39741499,,,,,,,,,,,,,,,,,,12,1.4713,1,"[""1"",""2"",""return""]","[0.8182999999523304,0.9882999999523179,1.1668999998569518]",,,,,,3 × 4 =,12,0,2,2,2,1,,,,,,,,,,,,,,,,,,,,,,,,,,,,,,,,,,,,,,,,,,,,,,,,,,,,,,,,,,,,,,,,,,,,,,,,,,,,,,,,,,,,,,,,,,,,,,,,,,,,,,,,,,,,,,,,,,,,,,,,,,,,,,,,,,,,,,,,,,,,
,517308643925,BCA,02/02/1998,001,2023-10-19_19h22.09.155,OS3_Mult_verification,2022.2.4,Win32,60.39741499,,,,,,,,,,,,,,,,,,15,1.4596,1,"[""1"",""5"",""return""]","[0.7051999998092526,0.9676999998092413,1.1563999998569443]",,,,,,5 × 3 =,15,0,3,3,3,1,,,,,,,,,,,,,,,,,,,,,,,,,,,,,,,,,,,,,,,,,,,,,,,,,,,,,,,,,,,,,,,,,,,,,,,,,,,,,,,,,,,,,,,,,,,,,,,,,,,,,,,,,,,,,,,,,,,,,,,,,,,,,,,,,,,,,,,,,,,,
,517308643925,BCA,02/02/1998,001,2023-10-19_19h22.09.155,OS3_Mult_verification,2022.2.4,Win32,60.39741499,,,,,,,,,,,,,,,,,,8,1.599,1,"[""8"",""return""]","[1.1059000000953745,1.2892000000476855]",,,,,,2 × 4 =,8,0,4,4,4,1,,,,,,,,,,,,,,,,,,,,,,,,,,,,,,,,,,,,,,,,,,,,,,,,,,,,,,,,,,,,,,,,,,,,,,,,,,,,,,,,,,,,,,,,,,,,,,,,,,,,,,,,,,,,,,,,,,,,,,,,,,,,,,,,,,,,,,,,,,,,
,517308643925,BCA,02/02/1998,001,2023-10-19_19h22.09.155,OS3_Mult_verification,2022.2.4,Win32,60.39741499,,,,,,,,,,,,,,,,,,4,1.3986,1,"[""4"",""return""]","[0.9170999999046217,1.083099999904647]",,,,,,2 × 2 =,4,0,5,5,5,1,,,,,,,,,,,,,,,,,,,,,,,,,,,,,,,,,,,,,,,,,,,,,,,,,,,,,,,,,,,,,,,,,,,,,,,,,,,,,,,,,,,,,,,,,,,,,,,,,,,,,,,,,,,,,,,,,,,,,,,,,,,,,,,,,,,,,,,,,,,,
,517308643925,BCA,02/02/1998,001,2023-10-19_19h22.09.155,OS3_Mult_verification,2022.2.4,Win32,60.39741499,,,,,,,,,,,,,,,,,,20,1.8152,1,"[""2"",""0"",""return""]","[1.116700000047672,1.2169999999999845,1.5004999999999882]",,,,,,4 × 5 =,20,0,6,6,6,1,,,,,,,,,,,,,,,,,,,,,,,,,,,,,,,,,,,,,,,,,,,,,,,,,,,,,,,,,,,,,,,,,,,,,,,,,,,,,,,,,,,,,,,,,,,,,,,,,,,,,,,,,,,,,,,,,,,,,,,,,,,,,,,,,,,,,,,,,,,,
,517308643925,BCA,02/02/1998,001,2023-10-19_19h22.09.155,OS3_Mult_verification,2022.2.4,Win32,60.39741499,,,,,,,,,,,,,,,,,,9,1.5485,1,"[""9"",""return""]","[0.9863999998569568,1.234099999904629]",,,,,,3 × 3 =,9,0,7,7,7,1,,,,,,,,,,,,,,,,,,,,,,,,,,,,,,,,,,,,,,,,,,,,,,,,,,,,,,,,,,,,,,,,,,,,,,,,,,,,,,,,,,,,,,,,,,,,,,,,,,,,,,,,,,,,,,,,,,,,,,,,,,,,,,,,,,,,,,,,,,,,
,517308643925,BCA,02/02/1998,001,2023-10-19_19h22.09.155,OS3_Mult_verification,2022.2.4,Win32,60.39741499,,,,,,,,,,,,,,,,,,10,1.5492,1,"[""1"",""0"",""return""]","[0.8190999999046369,0.9775999999046405,1.2590999999046346]",,,,,,5 × 2 =,10,0,8,8,8,1,,,,,,,,,,,,,,,,,,,,,,,,,,,,,,,,,,,,,,,,,,,,,,,,,,,,,,,,,,,,,,,,,,,,,,,,,,,,,,,,,,,,,,,,,,,,,,,,,,,,,,,,,,,,,,,,,,,,,,,,,,,,,,,,,,,,,,,,,,,,
,517308643925,BCA,02/02/1998,001,2023-10-19_19h22.09.155,OS3_Mult_verification,2022.2.4,Win32,60.39741499,,,,,,,,,,,,,,,,,,16,1.7651,1,"[""1"",""6"",""return""]","[0.869599999904608,1.3029000000953488,1.4574999999999818]",,,,,,4 × 4 =,16,0,9,9,9,1,,,,,,,,,,,,,,,,,,,,,,,,,,,,,,,,,,,,,,,,,,,,,,,,,,,,,,,,,,,,,,,,,,,,,,,,,,,,,,,,,,,,,,,,,,,,,,,,,,,,,,,,,,,,,,,,,,,,,,,,,,,,,,,,,,,,,,,,,,,,
,517308643925,BCA,02/02/1998,001,2023-10-19_19h22.09.155,OS3_Mult_verification,2022.2.4,Win32,60.39741499,,,,,,,,,,,,,,,,,,24,1.8388,1,"[""2"",""4"",""return""]","[1.1189000000953797,1.3690999999046483,1.5332000000476853]",,,,,,8 × 3 =,24,0,10,10,10,1,,,,,,,,,,,,,,,,,,,,,,,,,,,,,,,,,,,,,,,,,,,,,,,,,,,,,,,,,,,,,,,,,,,,,,,,,,,,,,,,,,,,,,,,,,,,,,,,,,,,,,,,,,,,,,,,,,,,,,,,,,,,,,,,,,,,,,,,,,,,
,517308643925,BCA,02/02/1998,001,2023-10-19_19h22.09.155,OS3_Mult_verification,2022.2.4,Win32,60.39741499,,,,,,,,,,,,,,,,,,30,1.5925,1,"[""3"",""0"",""return""]","[0.8605000000000018,1.0249000000953856,1.2842999999523386]",,,,,,6 × 5 =,30,0,11,11,11,1,,,,,,,,,,,,,,,,,,,,,,,,,,,,,,,,,,,,,,,,,,,,,,,,,,,,,,,,,,,,,,,,,,,,,,,,,,,,,,,,,,,,,,,,,,,,,,,,,,,,,,,,,,,,,,,,,,,,,,,,,,,,,,,,,,,,,,,,,,,,
,517308643925,BCA,02/02/1998,001,2023-10-19_19h22.09.155,OS3_Mult_verification,2022.2.4,Win32,60.39741499,,,,,,,,,,,,,,,,,,14,1.5818,1,"[""1"",""4"",""return""]","[0.8896999998092667,1.1023999998569423,1.2684999999999889]",,,,,,7 × 2 =,14,0,12,12,12,1,,,,,,,,,,,,,,,,,,,,,,,,,,,,,,,,,,,,,,,,,,,,,,,,,,,,,,,,,,,,,,,,,,,,,,,,,,,,,,,,,,,,,,,,,,,,,,,,,,,,,,,,,,,,,,,,,,,,,,,,,,,,,,,,,,,,,,,,,,,,
,517308643925,BCA,02/02/1998,001,2023-10-19_19h22.09.155,OS3_Mult_verification,2022.2.4,Win32,60.39741499,,,,,,,,,,,,,,,,,,27,2.0653,1,"[""2"",""7"",""return""]","[0.8840000000000146,1.4178000001907378,1.7488000001907267]",,,,,,3 × 9 =,27,0,13,13,13,1,,,,,,,,,,,,,,,,,,,,,,,,,,,,,,,,,,,,,,,,,,,,,,,,,,,,,,,,,,,,,,,,,,,,,,,,,,,,,,,,,,,,,,,,,,,,,,,,,,,,,,,,,,,,,,,,,,,,,,,,,,,,,,,,,,,,,,,,,,,,
,517308643925,BCA,02/02/1998,001,2023-10-19_19h22.09.155,OS3_Mult_verification,2022.2.4,Win32,60.39741499,,,,,,,,,,,,,,,,,,16,1.7554,1,"[""1"",""6"",""return""]","[0.9352000000476721,1.255700000047682,1.449400000095352]",,,,,,2 × 8 =,16,0,14,14,14,1,,,,,,,,,,,,,,,,,,,,,,,,,,,,,,,,,,,,,,,,,,,,,,,,,,,,,,,,,,,,,,,,,,,,,,,,,,,,,,,,,,,,,,,,,,,,,,,,,,,,,,,,,,,,,,,,,,,,,,,,,,,,,,,,,,,,,,,,,,,,
,517308643925,BCA,02/02/1998,001,2023-10-19_19h22.09.155,OS3_Mult_verification,2022.2.4,Win32,60.39741499,,,,,,,,,,,,,,,,,,24,2.0155,1,"[""2"",""4"",""return""]","[1.3515999999046073,1.551299999952306,1.7154999999999916]",,,,,,4 × 6 =,24,0,15,15,15,1,,,,,,,,,,,,,,,,,,,,,,,,,,,,,,,,,,,,,,,,,,,,,,,,,,,,,,,,,,,,,,,,,,,,,,,,,,,,,,,,,,,,,,,,,,,,,,,,,,,,,,,,,,,,,,,,,,,,,,,,,,,,,,,,,,,,,,,,,,,,
,517308643925,BCA,02/02/1998,001,2023-10-19_19h22.09.155,OS3_Mult_verification,2022.2.4,Win32,60.39741499,,,,,,,,,,,,,,,,,,21,1.7266,1,"[""2"",""1"",""return""]","[1.0544999999999902,1.238799999952306,1.4208999998569425]",,,,,,7 × 3 =,21,0,16,16,16,1,,,,,,,,,,,,,,,,,,,,,,,,,,,,,,,,,,,,,,,,,,,,,,,,,,,,,,,,,,,,,,,,,,,,,,,,,,,,,,,,,,,,,,,,,,,,,,,,,,,,,,,,,,,,,,,,,,,,,,,,,,,,,,,,,,,,,,,,,,,,
,517308643925,BCA,02/02/1998,001,2023-10-19_19h22.09.155,OS3_Mult_verification,2022.2.4,Win32,60.39741499,,,,,,,,,,,,,,,,,,27,1.7321,1,"[""2"",""7"",""return""]","[0.819500000000005,1.1252000000476983,1.4343999998569643]",,,,,,9 × 3 =,27,0,17,17,17,1,,,,,,,,,,,,,,,,,,,,,,,,,,,,,,,,,,,,,,,,,,,,,,,,,,,,,,,,,,,,,,,,,,,,,,,,,,,,,,,,,,,,,,,,,,,,,,,,,,,,,,,,,,,,,,,,,,,,,,,,,,,,,,,,,,,,,,,,,,,,
,517308643925,BCA,02/02/1998,001,2023-10-19_19h22.09.155,OS3_Mult_verification,2022.2.4,Win32,60.39741499,,,,,,,,,,,,,,,,,,28,1.8711,1,"[""2"",""8"",""return""]","[1.035299999952315,1.2747999999523074,1.5660000000000025]",,,,,,4 × 7 =,28,0,18,18,18,1,,,,,,,,,,,,,,,,,,,,,,,,,,,,,,,,,,,,,,,,,,,,,,,,,,,,,,,,,,,,,,,,,,,,,,,,,,,,,,,,,,,,,,,,,,,,,,,,,,,,,,,,,,,,,,,,,,,,,,,,,,,,,,,,,,,,,,,,,,,,
,517308643925,BCA,02/02/1998,001,2023-10-19_19h22.09.155,OS3_Mult_verification,2022.2.4,Win32,60.39741499,,,,,,,,,,,,,,,,,,18,1.7769,1,"[""1"",""8"",""return""]","[0.8177000000476937,1.1848000001907337,1.4699999999999989]",,,,,,2 × 9 =,18,0,19,19,19,1,,,,,,,,,,,,,,,,,,,,,,,,,,,,,,,,,,,,,,,,,,,,,,,,,,,,,,,,,,,,,,,,,,,,,,,,,,,,,,,,,,,,,,,,,,,,,,,,,,,,,,,,,,,,,,,,,,,,,,,,,,,,,,,,,,,,,,,,,,,,
,517308643925,BCA,02/02/1998,001,2023-10-19_19h22.09.155,OS3_Mult_verification,2022.2.4,Win32,60.39741499,,,,,,,,,,,,,,,,,,56,1.9484,0,"[""5"",""6"",""return""]","[1.1185999999046317,1.3189999999999884,1.6381999998092454]",,,,,,9 × 8 =,72,0,20,20,20,1,,,,,,,,,,,,,,,,,,,,,,,,,,,,,,,,,,,,,,,,,,,,,,,,,,,,,,,,,,,,,,,,,,,,,,,,,,,,,,,,,,,,,,,,,,,,,,,,,,,,,,,,,,,,,,,,,,,,,,,,,,,,,,,,,,,,,,,,,,,,
,517308643925,BCA,02/02/1998,001,2023-10-19_19h22.09.155,OS3_Mult_verification,2022.2.4,Win32,60.39741499,,,,,,,,,,,,,,,,,,42,4.9539,1,"[""4"",""2"",""return""]","[4.067299999952326,4.350700000047681,4.647899999856946]",,,,,,7 × 6 =,42,0,21,21,21,1,,,,,,,,,,,,,,,,,,,,,,,,,,,,,,,,,,,,,,,,,,,,,,,,,,,,,,,,,,,,,,,,,,,,,,,,,,,,,,,,,,,,,,,,,,,,,,,,,,,,,,,,,,,,,,,,,,,,,,,,,,,,,,,,,,,,,,,,,,,,
,517308643925,BCA,02/02/1998,001,2023-10-19_19h22.09.155,OS3_Mult_verification,2022.2.4,Win32,60.39741499,,,,,,,,,,,,,,,,,,54,7.9829,1,"[""5"",""4"",""return""]","[7.355400000095358,7.54020000004769,7.680999999999983]",,,,,,6 × 9 =,54,0,22,22,22,1,,,,,,,,,,,,,,,,,,,,,,,,,,,,,,,,,,,,,,,,,,,,,,,,,,,,,,,,,,,,,,,,,,,,,,,,,,,,,,,,,,,,,,,,,,,,,,,,,,,,,,,,,,,,,,,,,,,,,,,,,,,,,,,,,,,,,,,,,,,,
,517308643925,BCA,02/02/1998,001,2023-10-19_19h22.09.155,OS3_Mult_verification,2022.2.4,Win32,60.39741499,,,,,,,,,,,,,,,,,,45,1.8771,1,"[""4"",""5"",""return""]","[1.2417999999523204,1.4344000000953656,1.5672999999523256]",,,,,,9 × 5 =,45,0,23,23,23,1,,,,,,,,,,,,,,,,,,,,,,,,,,,,,,,,,,,,,,,,,,,,,,,,,,,,,,,,,,,,,,,,,,,,,,,,,,,,,,,,,,,,,,,,,,,,,,,,,,,,,,,,,,,,,,,,,,,,,,,,,,,,,,,,,,,,,,,,,,,,
,517308643925,BCA,02/02/1998,001,2023-10-19_19h22.09.155,OS3_Mult_verification,2022.2.4,Win32,60.39741499,,,,,,,,,,,,,,,,,,56,9.2806,1,"[""5"",""6"",""return""]","[1.116099999904634,1.2839000000953718,8.97150000000002]",,,,,,8 × 7 =,56,0,24,24,24,1,,,,,,,,,,,,,,,,,,,,,,,,,,,,,,,,,,,,,,,,,,,,,,,,,,,,,,,,,,,,,,,,,,,,,,,,,,,,,,,,,,,,,,,,,,,,,,,,,,,,,,,,,,,,,,,,,,,,,,,,,,,,,,,,,,,,,,,,,,,,
,517308643925,BCA,02/02/1998,001,2023-10-19_19h22.09.155,OS3_Mult_verification,2022.2.4,Win32,60.39741499,,,,,,,,,,,,,,,,,,36,2.1297,1,"[""3"",""6"",""return""]","[1.3549999999999898,1.6182999999523133,1.822299999952321]",,,,,,6 × 6 =,36,0,25,25,25,1,,,,,,,,,,,,,,,,,,,,,,,,,,,,,,,,,,,,,,,,,,,,,,,,,,,,,,,,,,,,,,,,,,,,,,,,,,,,,,,,,,,,,,,,,,,,,,,,,,,,,,,,,,,,,,,,,,,,,,,,,,,,,,,,,,,,,,,,,,,,
,517308643925,BCA,02/02/1998,001,2023-10-19_19h22.09.155,OS3_Mult_verification,2022.2.4,Win32,60.39741499,,,,,,,,,,,,,,,,,,35,1.7313,1,"[""3"",""5"",""return""]","[1.0363999998569966,1.2561999998092688,1.4183999998569448]",,,,,,5 × 7 =,35,0,26,26,26,1,,,,,,,,,,,,,,,,,,,,,,,,,,,,,,,,,,,,,,,,,,,,,,,,,,,,,,,,,,,,,,,,,,,,,,,,,,,,,,,,,,,,,,,,,,,,,,,,,,,,,,,,,,,,,,,,,,,,,,,,,,,,,,,,,,,,,,,,,,,,
,517308643925,BCA,02/02/1998,001,2023-10-19_19h22.09.155,OS3_Mult_verification,2022.2.4,Win32,60.39741499,,,,,,,,,,,,,,,,,,36,2.4826,1,"[""3"",""6"",""return""]","[1.716599999904588,1.972599999904645,2.1666999998092535]",,,,,,4 × 9 =,36,0,27,27,27,1,,,,,,,,,,,,,,,,,,,,,,,,,,,,,,,,,,,,,,,,,,,,,,,,,,,,,,,,,,,,,,,,,,,,,,,,,,,,,,,,,,,,,,,,,,,,,,,,,,,,,,,,,,,,,,,,,,,,,,,,,,,,,,,,,,,,,,,,,,,,
,517308643925,BCA,02/02/1998,001,2023-10-19_19h22.09.155,OS3_Mult_verification,2022.2.4,Win32,60.39741499,,,,,,,,,,,,,,,,,,48,3.8335,1,"[""4"",""8"",""return""]","[1.5403999998569589,2.950099999904637,3.533999999999992]",,,,,,8 × 6 =,48,0,28,28,28,1,,,,,,,,,,,,,,,,,,,,,,,,,,,,,,,,,,,,,,,,,,,,,,,,,,,,,,,,,,,,,,,,,,,,,,,,,,,,,,,,,,,,,,,,,,,,,,,,,,,,,,,,,,,,,,,,,,,,,,,,,,,,,,,,,,,,,,,,,,,,
,517308643925,BCA,02/02/1998,001,2023-10-19_19h22.09.155,OS3_Mult_verification,2022.2.4,Win32,60.39741499,,,,,,,,,,,,,,,,,,63,3.0653,1,"[""6"",""3"",""return""]","[2.069600000143055,2.5891000001430484,2.7487999999523254]",,,,,,9 × 7 =,63,0,29,29,29,1,,,,,,,,,,,,,,,,,,,,,,,,,,,,,,,,,,,,,,,,,,,,,,,,,,,,,,,,,,,,,,,,,,,,,,,,,,,,,,,,,,,,,,,,,,,,,,,,,,,,,,,,,,,,,,,,,,,,,,,,,,,,,,,,,,,,,,,,,,,,
,517308643925,BCA,02/02/1998,001,2023-10-19_19h22.09.155,OS3_Mult_verification,2022.2.4,Win32,60.39741499,,,,,,,,,,,,,,,,,,12,1.4154,1,"[""1"",""2"",""return""]","[0.7669000000953474,0.9499999999999886,1.0992999999523363]",,,,,,4 × 3 =,12,0,30,30,30,1,,,,,,,,,,,,,,,,,,,,,,,,,,,,,,,,,,,,,,,,,,,,,,,,,,,,,,,,,,,,,,,,,,,,,,,,,,,,,,,,,,,,,,,,,,,,,,,,,,,,,,,,,,,,,,,,,,,,,,,,,,,,,,,,,,,,,,,,,,,,
,517308643925,BCA,02/02/1998,001,2023-10-19_19h22.09.155,OS3_Mult_verification,2022.2.4,Win32,60.39741499,,,,,,,,,,,,,,,,,,25,2.3319,1,"[""2"",""5"",""return""]","[1.6184000000953347,1.852400000095372,2.016999999999996]",,,,,,5 × 5 =,25,0,31,31,31,1,,,,,,,,,,,,,,,,,,,,,,,,,,,,,,,,,,,,,,,,,,,,,,,,,,,,,,,,,,,,,,,,,,,,,,,,,,,,,,,,,,,,,,,,,,,,,,,,,,,,,,,,,,,,,,,,,,,,,,,,,,,,,,,,,,,,,,,,,,,,
,517308643925,BCA,02/02/1998,001,2023-10-19_19h22.09.155,OS3_Mult_verification,2022.2.4,Win32,60.39741499,,,,,,,,,,,,,,,,,,6,2.3816,1,"[""5"",""backspace"",""6"",""return""]","[0.8348999998569298,1.568200000047682,1.818200000047682,2.0833999998569652]",,,,,,3 × 2 =,6,0,32,32,32,1,,,,,,,,,,,,,,,,,,,,,,,,,,,,,,,,,,,,,,,,,,,,,,,,,,,,,,,,,,,,,,,,,,,,,,,,,,,,,,,,,,,,,,,,,,,,,,,,,,,,,,,,,,,,,,,,,,,,,,,,,,,,,,,,,,,,,,,,,,,,
,517308643925,BCA,02/02/1998,001,2023-10-19_19h22.09.155,OS3_Mult_verification,2022.2.4,Win32,60.39741499,,,,,,,,,,,,,,,,,,20,2.049,1,"[""2"",""0"",""return""]","[1.0029000000953943,1.4346000001430639,1.7337000000476905]",,,,,,5 × 4 =,20,0,33,33,33,1,,,,,,,,,,,,,,,,,,,,,,,,,,,,,,,,,,,,,,,,,,,,,,,,,,,,,,,,,,,,,,,,,,,,,,,,,,,,,,,,,,,,,,,,,,,,,,,,,,,,,,,,,,,,,,,,,,,,,,,,,,,,,,,,,,,,,,,,,,,,
,517308643925,BCA,02/02/1998,001,2023-10-19_19h22.09.155,OS3_Mult_verification,2022.2.4,Win32,60.39741499,,,,,,,,,,,,,,,,,,8,1.5654,1,"[""8"",""return""]","[1.052199999809261,1.251599999904613]",,,,,,4 × 2 =,8,0,34,34,34,1,,,,,,,,,,,,,,,,,,,,,,,,,,,,,,,,,,,,,,,,,,,,,,,,,,,,,,,,,,,,,,,,,,,,,,,,,,,,,,,,,,,,,,,,,,,,,,,,,,,,,,,,,,,,,,,,,,,,,,,,,,,,,,,,,,,,,,,,,,,,
,517308643925,BCA,02/02/1998,001,2023-10-19_19h22.09.155,OS3_Mult_verification,2022.2.4,Win32,60.39741499,,,,,,,,,,,,,,,,,,12,1.4985,1,"[""1"",""2"",""return""]","[0.8419999999999845,1.0248999998569843,1.1845999999046626]",,,,,,2 × 6 =,12,0,35,35,35,1,,,,,,,,,,,,,,,,,,,,,,,,,,,,,,,,,,,,,,,,,,,,,,,,,,,,,,,,,,,,,,,,,,,,,,,,,,,,,,,,,,,,,,,,,,,,,,,,,,,,,,,,,,,,,,,,,,,,,,,,,,,,,,,,,,,,,,,,,,,,
,517308643925,BCA,02/02/1998,001,2023-10-19_19h22.09.155,OS3_Mult_verification,2022.2.4,Win32,60.39741499,,,,,,,,,,,,,,,,,,15,1.4982,1,"[""1"",""5"",""return""]","[0.7532000000476842,1.04070000004765,1.2047000000476942]",,,,,,3 × 5 =,15,0,36,36,36,1,,,,,,,,,,,,,,,,,,,,,,,,,,,,,,,,,,,,,,,,,,,,,,,,,,,,,,,,,,,,,,,,,,,,,,,,,,,,,,,,,,,,,,,,,,,,,,,,,,,,,,,,,,,,,,,,,,,,,,,,,,,,,,,,,,,,,,,,,,,,
,517308643925,BCA,02/02/1998,001,2023-10-19_19h22.09.155,OS3_Mult_verification,2022.2.4,Win32,60.39741499,,,,,,,,,,,,,,,,,,18,2.5316,1,"[""1"",""8"",""return""]","[1.584299999952293,1.9504999999999768,2.2171000001430343]",,,,,,6 × 3 =,18,0,37,37,37,1,,,,,,,,,,,,,,,,,,,,,,,,,,,,,,,,,,,,,,,,,,,,,,,,,,,,,,,,,,,,,,,,,,,,,,,,,,,,,,,,,,,,,,,,,,,,,,,,,,,,,,,,,,,,,,,,,,,,,,,,,,,,,,,,,,,,,,,,,,,,
,517308643925,BCA,02/02/1998,001,2023-10-19_19h22.09.155,OS3_Mult_verification,2022.2.4,Win32,60.39741499,,,,,,,,,,,,,,,,,,1,1.1636,0,"[""1""]",[0.752200000047651],,,,,,2 × 5 =,10,0,38,38,38,1,,,,,,,,,,,,,,,,,,,,,,,,,,,,,,,,,,,,,,,,,,,,,,,,,,,,,,,,,,,,,,,,,,,,,,,,,,,,,,,,,,,,,,,,,,,,,,,,,,,,,,,,,,,,,,,,,,,,,,,,,,,,,,,,,,,,,,,,,,,,
,517308643925,BCA,02/02/1998,001,2023-10-19_19h22.09.155,OS3_Mult_verification,2022.2.4,Win32,60.39741499,,,,,,,,,,,,,,,,space,0.8786,,,,,,,,,,,,,,,,,,TRUE,2.457,0.066666709,-0.349074116,1,0,0,0,0,0,2,1,practice trial,,3,3,,,,,,,,,,,,,,,,,,,,,,,,,,,,,,,,,,,,,,,,,,,,,,,,,,,,,,,,,,,,,,,,,,,,,,,,,,,,,,,,,,,,,,,,,,,,,,,,,,,,,,,,,,,,,,,,,,,,,,,,,,,,
,517308643925,BCA,02/02/1998,001,2023-10-19_19h22.09.155,OS3_Mult_verification,2022.2.4,Win32,60.39741499,,,,,,,,,,,,,,,,,,,,,,,,,,,,,,,,,,,TRUE,2.1652,-0.010185171,-0.33148151,1,0,0,0,1,1,1,1,practice trial,,3,3,,,,,,,,,,,,,,,,,,,,,,,,,,,,,,,,,,,,,,,,,,,,,,,,,,,,,,,,,,,,,,,,,,,,,,,,,,,,,,,,,,,,,,,,,,,,,,,,,,,,,,,,,,,,,,,,,,,,,,,,,,,,
,517308643925,BCA,02/02/1998,001,2023-10-19_19h22.09.155,OS3_Mult_verification,2022.2.4,Win32,60.39741499,,,,,,,,,,,,,,,,,,,,,,,,,,,,,,,,,,,TRUE,1.9433,0.065740727,-0.336111139,1,0,0,0,2,2,0,1,practice trial,,3,3,,,,,,,,,,,,,,,,,,,,,,,,,,,,,,,,,,,,,,,,,,,,,,,,,,,,,,,,,,,,,,,,,,,,,,,,,,,,,,,,,,,,,,,,,,,,,,,,,,,,,,,,,,,,,,,,,,,,,,,,,,,,
,517308643925,BCA,02/02/1998,001,2023-10-19_19h22.09.155,OS3_Mult_verification,2022.2.4,Win32,60.39741499,,,,,,,,,,,,,,,,,,,,,,,,,,,,,,,,,,,TRUE,1.1823,0.023148148,-0.347222222,1,0,0,,,,,,Trial #1,,2,2,0,0,0,0,1,2,,,,,,,,,,,,,,,,,,,,,,,,,,,,,,,,,,,,,,,,,,,,,,,,,,,,,,,,,,,,,,,,,,,,,,,,,,,,,,,,,,,,,,,,,,,,,,,,,,,,,,,,,,,,,,,,,,,,,,
,517308643925,BCA,02/02/1998,001,2023-10-19_19h22.09.155,OS3_Mult_verification,2022.2.4,Win32,60.39741499,,,,,,,,,,,,,,,,,,,,,,,,,,,,,,,,,,,TRUE,1.1665,0.058333362,-0.375,1,0,0,,,,,,Trial #1,,2,2,0,1,1,1,1,2,,,,,,,,,,,,,,,,,,,,,,,,,,,,,,,,,,,,,,,,,,,,,,,,,,,,,,,,,,,,,,,,,,,,,,,,,,,,,,,,,,,,,,,,,,,,,,,,,,,,,,,,,,,,,,,,,,,,,,
,517308643925,BCA,02/02/1998,001,2023-10-19_19h22.09.155,OS3_Mult_verification,2022.2.4,Win32,60.39741499,,,,,,,,,,,,,,,,,,,,,,,,,,,,,,,,,,,TRUE,1.116,-0.018518519,-0.330555598,1,0,0,,,,,,Trial #1,,2,2,0,2,2,2,1,2,,,,,,,,,,,,,,,,,,,,,,,,,,,,,,,,,,,,,,,,,,,,,,,,,,,,,,,,,,,,,,,,,,,,,,,,,,,,,,,,,,,,,,,,,,,,,,,,,,,,,,,,,,,,,,,,,,,,,,
,517308643925,BCA,02/02/1998,001,2023-10-19_19h22.09.155,OS3_Mult_verification,2022.2.4,Win32,60.39741499,,,,,,,,,,,,,,,,,,,,,,,,,,,,,,,,,,,TRUE,1.7661,-0.022222236,-0.345370399,1,0,0,,,,,,Trial #2,,3,3,0,0,0,0,1,3,,,,,,,,,,,,,,,,,,,,,,,,,,,,,,,,,,,,,,,,,,,,,,,,,,,,,,,,,,,,,,,,,,,,,,,,,,,,,,,,,,,,,,,,,,,,,,,,,,,,,,,,,,,,,,,,,,,,,,
,517308643925,BCA,02/02/1998,001,2023-10-19_19h22.09.155,OS3_Mult_verification,2022.2.4,Win32,60.39741499,,,,,,,,,,,,,,,,,,,,,,,,,,,,,,,,,,,TRUE,1.7981,0.013888889,-0.368518547,1,0,0,,,,,,Trial #2,,3,3,0,1,1,1,1,3,,,,,,,,,,,,,,,,,,,,,,,,,,,,,,,,,,,,,,,,,,,,,,,,,,,,,,,,,,,,,,,,,,,,,,,,,,,,,,,,,,,,,,,,,,,,,,,,,,,,,,,,,,,,,,,,,,,,,,
,517308643925,BCA,02/02/1998,001,2023-10-19_19h22.09.155,OS3_Mult_verification,2022.2.4,Win32,60.39741499,,,,,,,,,,,,,,,,,,,,,,,,,,,,,,,,,,,TRUE,1.6158,-0.02870369,-0.358333376,1,0,0,,,,,,Trial #2,,3,3,0,2,2,2,1,3,,,,,,,,,,,,,,,,,,,,,,,,,,,,,,,,,,,,,,,,,,,,,,,,,,,,,,,,,,,,,,,,,,,,,,,,,,,,,,,,,,,,,,,,,,,,,,,,,,,,,,,,,,,,,,,,,,,,,,
,517308643925,BCA,02/02/1998,001,2023-10-19_19h22.09.155,OS3_Mult_verification,2022.2.4,Win32,60.39741499,,,,,,,,,,,,,,,,,,,,,,,,,,,,,,,,,,,TRUE,2.2789,0.091666681,-0.337037051,1,0,0,,,,,,Trial #3,,3,3,0,0,0,0,1,4,,,,,,,,,,,,,,,,,,,,,,,,,,,,,,,,,,,,,,,,,,,,,,,,,,,,,,,,,,,,,,,,,,,,,,,,,,,,,,,,,,,,,,,,,,,,,,,,,,,,,,,,,,,,,,,,,,,,,,
,517308643925,BCA,02/02/1998,001,2023-10-19_19h22.09.155,OS3_Mult_verification,2022.2.4,Win32,60.39741499,,,,,,,,,,,,,,,,,,,,,,,,,,,,,,,,,,,TRUE,1.8265,0.078703704,-0.319444444,1,0,0,,,,,,Trial #3,,3,3,0,1,1,1,1,4,,,,,,,,,,,,,,,,,,,,,,,,,,,,,,,,,,,,,,,,,,,,,,,,,,,,,,,,,,,,,,,,,,,,,,,,,,,,,,,,,,,,,,,,,,,,,,,,,,,,,,,,,,,,,,,,,,,,,,
,517308643925,BCA,02/02/1998,001,2023-10-19_19h22.09.155,OS3_Mult_verification,2022.2.4,Win32,60.39741499,,,,,,,,,,,,,,,,,,,,,,,,,,,,,,,,,,,TRUE,1.9257,0.027777778,-0.381481524,1,0,0,,,,,,Trial #3,,3,3,0,2,2,2,1,4,,,,,,,,,,,,,,,,,,,,,,,,,,,,,,,,,,,,,,,,,,,,,,,,,,,,,,,,,,,,,,,,,,,,,,,,,,,,,,,,,,,,,,,,,,,,,,,,,,,,,,,,,,,,,,,,,,,,,,
,517308643925,BCA,02/02/1998,001,2023-10-19_19h22.09.155,OS3_Mult_verification,2022.2.4,Win32,60.39741499,,,,,,,,,,,,,,,,,,,,,,,,,,,,,,,,,,,TRUE,2.6617,0.026851866,-0.365740741,1,0,0,,,,,,Trial #4,,4,4,0,0,0,0,1,5,,,,,,,,,,,,,,,,,,,,,,,,,,,,,,,,,,,,,,,,,,,,,,,,,,,,,,,,,,,,,,,,,,,,,,,,,,,,,,,,,,,,,,,,,,,,,,,,,,,,,,,,,,,,,,,,,,,,,,
,517308643925,BCA,02/02/1998,001,2023-10-19_19h22.09.155,OS3_Mult_verification,2022.2.4,Win32,60.39741499,,,,,,,,,,,,,,,,,,,,,,,,,,,,,,,,,,,TRUE,2.3766,0.055555556,-0.345370399,1,0,0,,,,,,Trial #4,,4,4,0,1,1,1,1,5,,,,,,,,,,,,,,,,,,,,,,,,,,,,,,,,,,,,,,,,,,,,,,,,,,,,,,,,,,,,,,,,,,,,,,,,,,,,,,,,,,,,,,,,,,,,,,,,,,,,,,,,,,,,,,,,,,,,,,
,517308643925,BCA,02/02/1998,001,2023-10-19_19h22.09.155,OS3_Mult_verification,2022.2.4,Win32,60.39741499,,,,,,,,,,,,,,,,,,,,,,,,,,,,,,,,,,,TRUE,2.3821,0.011111153,-0.318518533,1,0,0,,,,,,Trial #4,,4,4,0,2,2,2,1,5,,,,,,,,,,,,,,,,,,,,,,,,,,,,,,,,,,,,,,,,,,,,,,,,,,,,,,,,,,,,,,,,,,,,,,,,,,,,,,,,,,,,,,,,,,,,,,,,,,,,,,,,,,,,,,,,,,,,,,
,517308643925,BCA,02/02/1998,001,2023-10-19_19h22.09.155,OS3_Mult_verification,2022.2.4,Win32,60.39741499,,,,,,,,,,,,,,,,,,,,,,,,,,,,,,,,,,,TRUE,2.2656,0.126851894,-0.35555557,1,0,0,,,,,,Trial #5,,4,4,0,0,0,0,1,6,,,,,,,,,,,,,,,,,,,,,,,,,,,,,,,,,,,,,,,,,,,,,,,,,,,,,,,,,,,,,,,,,,,,,,,,,,,,,,,,,,,,,,,,,,,,,,,,,,,,,,,,,,,,,,,,,,,,,,
,517308643925,BCA,02/02/1998,001,2023-10-19_19h22.09.155,OS3_Mult_verification,2022.2.4,Win32,60.39741499,,,,,,,,,,,,,,,,,,,,,,,,,,,,,,,,,,,TRUE,2.332,0.012037065,-0.318518533,1,0,0,,,,,,Trial #5,,4,4,0,1,1,1,1,6,,,,,,,,,,,,,,,,,,,,,,,,,,,,,,,,,,,,,,,,,,,,,,,,,,,,,,,,,,,,,,,,,,,,,,,,,,,,,,,,,,,,,,,,,,,,,,,,,,,,,,,,,,,,,,,,,,,,,,
,517308643925,BCA,02/02/1998,001,2023-10-19_19h22.09.155,OS3_Mult_verification,2022.2.4,Win32,60.39741499,,,,,,,,,,,,,,,,,,,,,,,,,,,,,,,,,,,TRUE,2.2769,0.033333319,-0.360185199,1,0,0,,,,,,Trial #5,,4,4,0,2,2,2,1,6,,,,,,,,,,,,,,,,,,,,,,,,,,,,,,,,,,,,,,,,,,,,,,,,,,,,,,,,,,,,,,,,,,,,,,,,,,,,,,,,,,,,,,,,,,,,,,,,,,,,,,,,,,,,,,,,,,,,,,
,517308643925,BCA,02/02/1998,001,2023-10-19_19h22.09.155,OS3_Mult_verification,2022.2.4,Win32,60.39741499,,,,,,,,,,,,,,,,,,,,,,,,,,,,,,,,,,,TRUE,2.5323,0.098148134,-0.37962963,1,0,0,,,,,,Trial #6,,4,4,0,0,0,0,1,7,,,,,,,,,,,,,,,,,,,,,,,,,,,,,,,,,,,,,,,,,,,,,,,,,,,,,,,,,,,,,,,,,,,,,,,,,,,,,,,,,,,,,,,,,,,,,,,,,,,,,,,,,,,,,,,,,,,,,,
,517308643925,BCA,02/02/1998,001,2023-10-19_19h22.09.155,OS3_Mult_verification,2022.2.4,Win32,60.39741499,,,,,,,,,,,,,,,,,,,,,,,,,,,,,,,,,,,TRUE,4.6154,-0.040740755,-0.312962991,1,0,0,,,,,,Trial #6,,4,4,0,1,1,1,1,7,,,,,,,,,,,,,,,,,,,,,,,,,,,,,,,,,,,,,,,,,,,,,,,,,,,,,,,,,,,,,,,,,,,,,,,,,,,,,,,,,,,,,,,,,,,,,,,,,,,,,,,,,,,,,,,,,,,,,,
,517308643925,BCA,02/02/1998,001,2023-10-19_19h22.09.155,OS3_Mult_verification,2022.2.4,Win32,60.39741499,,,,,,,,,,,,,,,,,,,,,,,,,,,,,,,,,,,TRUE,2.8985,0.002777806,-0.343518504,1,0,0,,,,,,Trial #6,,4,4,0,2,2,2,1,7,,,,,,,,,,,,,,,,,,,,,,,,,,,,,,,,,,,,,,,,,,,,,,,,,,,,,,,,,,,,,,,,,,,,,,,,,,,,,,,,,,,,,,,,,,,,,,,,,,,,,,,,,,,,,,,,,,,,,,
,517308643925,BCA,02/02/1998,001,2023-10-19_19h22.09.155,OS3_Mult_verification,2022.2.4,Win32,60.39741499,,,,,,,,,,,,,,,,,,,,,,,,,,,,,,,,,,,FALSE,5.7981,0.027777778,-0.339814857,1,0,0,,,,,,Trial #7,,4,4,0,0,0,0,1,8,,,,,,,,,,,,,,,,,,,,,,,,,,,,,,,,,,,,,,,,,,,,,,,,,,,,,,,,,,,,,,,,,,,,,,,,,,,,,,,,,,,,,,,,,,,,,,,,,,,,,,,,,,,,,,,,,,,,,,
,517308643925,BCA,02/02/1998,001,2023-10-19_19h22.09.155,OS3_Mult_verification,2022.2.4,Win32,60.39741499,,,,,,,,,,,,,,,,,,,,,,,,,,,,,,,,,,,TRUE,3.3816,0.029629672,-0.33148151,1,0,0,,,,,,Trial #7,,4,4,0,1,1,1,1,8,,,,,,,,,,,,,,,,,,,,,,,,,,,,,,,,,,,,,,,,,,,,,,,,,,,,,,,,,,,,,,,,,,,,,,,,,,,,,,,,,,,,,,,,,,,,,,,,,,,,,,,,,,,,,,,,,,,,,,
,517308643925,BCA,02/02/1998,001,2023-10-19_19h22.09.155,OS3_Mult_verification,2022.2.4,Win32,60.39741499,,,,,,,,,,,,,,,,,,,,,,,,,,,,,,,,,,,TRUE,3.832,0.104629658,-0.340740769,1,0,0,,,,,,Trial #7,,4,4,0,2,2,2,1,8,,,,,,,,,,,,,,,,,,,,,,,,,,,,,,,,,,,,,,,,,,,,,,,,,,,,,,,,,,,,,,,,,,,,,,,,,,,,,,,,,,,,,,,,,,,,,,,,,,,,,,,,,,,,,,,,,,,,,,
,517308643925,BCA,02/02/1998,001,2023-10-19_19h22.09.155,OS3_Mult_verification,2022.2.4,Win32,60.39741499,,,,,,,,,,,,,,,,,,,,,,,,,,,,,,,,,,,TRUE,3.8664,0.077777792,-0.362037023,1,0,0,,,,,,Trial #8,,5,5,0,0,0,0,1,9,,,,,,,,,,,,,,,,,,,,,,,,,,,,,,,,,,,,,,,,,,,,,,,,,,,,,,,,,,,,,,,,,,,,,,,,,,,,,,,,,,,,,,,,,,,,,,,,,,,,,,,,,,,,,,,,,,,,,,
,517308643925,BCA,02/02/1998,001,2023-10-19_19h22.09.155,OS3_Mult_verification,2022.2.4,Win32,60.39741499,,,,,,,,,,,,,,,,,,,,,,,,,,,,,,,,,,,FALSE,3.2415,-0.013888889,-0.371296282,1,0,0,,,,,,Trial #8,,5,5,0,1,1,1,1,9,,,,,,,,,,,,,,,,,,,,,,,,,,,,,,,,,,,,,,,,,,,,,,,,,,,,,,,,,,,,,,,,,,,,,,,,,,,,,,,,,,,,,,,,,,,,,,,,,,,,,,,,,,,,,,,,,,,,,,
,517308643925,BCA,02/02/1998,001,2023-10-19_19h22.09.155,OS3_Mult_verification,2022.2.4,Win32,60.39741499,,,,,,,,,,,,,,,,,,,,,,,,,,,,,,,,,,,TRUE,3.2824,0.071296339,-0.324074074,1,0,0,,,,,,Trial #8,,5,5,0,2,2,2,1,9,,,,,,,,,,,,,,,,,,,,,,,,,,,,,,,,,,,,,,,,,,,,,,,,,,,,,,,,,,,,,,,,,,,,,,,,,,,,,,,,,,,,,,,,,,,,,,,,,,,,,,,,,,,,,,,,,,,,,,
,517308643925,BCA,02/02/1998,001,2023-10-19_19h22.09.155,OS3_Mult_verification,2022.2.4,Win32,60.39741499,,,,,,,,,,,,,,,,,,,,,,,,,,,,,,,,,,,FALSE,4.0756,0.073148162,-0.328703704,1,0,0,,,,,,Trial #9,,5,5,0,0,0,0,1,10,,,,,,,,,,,,,,,,,,,,,,,,,,,,,,,,,,,,,,,,,,,,,,,,,,,,,,,,,,,,,,,,,,,,,,,,,,,,,,,,,,,,,,,,,,,,,,,,,,,,,,,,,,,,,,,,,,,,,,
,517308643925,BCA,02/02/1998,001,2023-10-19_19h22.09.155,OS3_Mult_verification,2022.2.4,Win32,60.39741499,,,,,,,,,,,,,,,,,,,,,,,,,,,,,,,,,,,FALSE,4.198,0.022222236,-0.348148134,1,0,0,,,,,,Trial #9,,5,5,0,1,1,1,1,10,,,,,,,,,,,,,,,,,,,,,,,,,,,,,,,,,,,,,,,,,,,,,,,,,,,,,,,,,,,,,,,,,,,,,,,,,,,,,,,,,,,,,,,,,,,,,,,,,,,,,,,,,,,,,,,,,,,,,,
,517308643925,BCA,02/02/1998,001,2023-10-19_19h22.09.155,OS3_Mult_verification,2022.2.4,Win32,60.39741499,,,,,,,,,,,,,,,,,,,,,,,,,,,,,,,,,,,FALSE,3.5057,0.104629658,-0.337962963,1,0,0,,,,,,Trial #9,,5,5,0,2,2,2,1,10,,,,,,,,,,,,,,,,,,,,,,,,,,,,,,,,,,,,,,,,,,,,,,,,,,,,,,,,,,,,,,,,,,,,,,,,,,,,,,,,,,,,,,,,,,,,,,,,,,,,,,,,,,,,,,,,,,,,,,
,517308643925,BCA,02/02/1998,001,2023-10-19_19h22.09.155,OS3_Mult_verification,2022.2.4,Win32,60.39741499,,,,,,,,,,,,,,,,,,,,,,,,,,,,,,,,,,,,,,,,,,,,,,,,,,,,,,,,,0,0,0,0,1,,,,,,,,,,,,,,,,,,,,,,,,,,,,,,,,,,,,,,,,,,,,,,,,,,,,,,,,,,,,,,,,,,,,,,,,,,,,,,,,,,,,,,,,,,,,,,,,,,,,,,,,,,,,,,,,,
,517308643925,BCA,02/02/1998,001,2023-10-19_19h22.09.155,OS3_Mult_verification,2022.2.4,Win32,60.39741499,,,,,,,,,,,,,,,,,,,,,,,,,,,,,,,,,,,,,,,,,,,,,,,,,,,,,,,,,,,,,,0,0,0,0,1,0,1,0,,,,,,,,,,,,,,,,,,,,,,,,,,,,,,,,,,,,,,,,,,,,,,,,,,,,,,,,,,,,,,,,,,,,,,,,,,,,,,,,,,,,,,,,,,,,,,,,,,,,,,,,,
,517308643925,BCA,02/02/1998,001,2023-10-19_19h22.09.155,OS3_Mult_verification,2022.2.4,Win32,60.39741499,,,,,,,,,,,,,,,,space,0.8639,,,,,,,,,,,,,,,,,,,,,,,,,,,,,,,,,,,,,,,,,,,,,,,,,,,,,space,3.6877,123,2.4163,1,"[""1"",""2"",""3"",""return""]","[1.0105999999045707,1.1919999999998936,1.392299999952229,2.3740999999046153]",0,0,0,0,1,3,123,Audio/123.mp3,practice,,,,,,,,,,,,,,,,,,,,,,,,,,,,,,,,,,,,,,,,,,,,,,,,,,,,,,,,,,,,,,,,,,,,,,,,,,,,,,,,,,,,,,,,,
,517308643925,BCA,02/02/1998,001,2023-10-19_19h22.09.155,OS3_Mult_verification,2022.2.4,Win32,60.39741499,,,,,,,,,,,,,,,,,,,,,,,,,,,,,,,,,,,,,,,,,,,,,,,,,,,,,,,,,,,,,,,,,,,,,,,,911,1.0825,1,"[""9"",""1"",""1"",""return""]","[0.36740000009535834,0.5869000000953974,0.7770000000000437,1.0537000000476837]",0,1,1,2,1,3,911,Audio/911.mp3,practice,,,,,,,,,,,,,,,,,,,,,,,,,,,,,,,,,,,,,,,,,,,,,,,,,,,,,,,,,,,,,,,,,,,,,,,,,,,,,,,,,,,,,,,,,
,517308643925,BCA,02/02/1998,001,2023-10-19_19h22.09.155,OS3_Mult_verification,2022.2.4,Win32,60.39741499,,,,,,,,,,,,,,,,,,,,,,,,,,,,,,,,,,,,,,,,,,,,,,,,,,,,,,,,,,,,,,,,,,,,,,,,321,1.215,1,"[""3"",""2"",""1"",""return""]","[0.3154000000953374,0.6013000001906903,0.8154000000953374,1.1813000001907312]",0,2,2,1,1,3,321,Audio/321.mp3,practice,,,,,,,,,,,,,,,,,,,,,,,,,,,,,,,,,,,,,,,,,,,,,,,,,,,,,,,,,,,,,,,,,,,,,,,,,,,,,,,,,,,,,,,,,
,517308643925,BCA,02/02/1998,001,2023-10-19_19h22.09.155,OS3_Mult_verification,2022.2.4,Win32,60.39741499,,,,,,,,,,,,,,,,,,,,,,,,,,,,,,,,,,,,,,,,,,,,,,,,,,,,,,,,,,,,,,,,,,,,,,,,97,2.1145,1,"[""9"",""7"",""return""]","[1.1174000000953583,1.6884999999999764,2.080299999952331]",,,,,,2,97,Audio/97.mp3,WAIS,0,0,0,0,1,,,,,,,,,,,,,,,,,,,,,,,,,,,,,,,,,,,,,,,,,,,,,,,,,,,,,,,,,,,,,,,,,,,,,,,,,,,,,,,,,,,,
,517308643925,BCA,02/02/1998,001,2023-10-19_19h22.09.155,OS3_Mult_verification,2022.2.4,Win32,60.39741499,,,,,,,,,,,,,,,,,,,,,,,,,,,,,,,,,,,,,,,,,,,,,,,,,,,,,,,,,,,,,,,,,,,,,,,,63,1.3479,1,"[""6"",""3"",""return""]","[0.6372000000476419,1.0628000001906912,1.314700000047651]",,,,,,2,63,Audio/63.mp3,WAIS,0,1,1,1,1,,,,,,,,,,,,,,,,,,,,,,,,,,,,,,,,,,,,,,,,,,,,,,,,,,,,,,,,,,,,,,,,,,,,,,,,,,,,,,,,,,,,
,517308643925,BCA,02/02/1998,001,2023-10-19_19h22.09.155,OS3_Mult_verification,2022.2.4,Win32,60.39741499,,,,,,,,,,,,,,,,,,,,,,,,,,,,,,,,,,,,,,,,,,,,,,,,,,,,,,,,,,,,,,,,,,,,,,,,,,,,,,,,,,,,,,,,,,,0,0,0,0,1,digitSpan_stim/twoWAIS.xlsx,,,,,,,,,,,,,,,,,,,,,,,,,,,,,,,,,,,,,,,,,,,,,,,,,,,,,,,,,,,,,,,,,,,,,,,,,,,,,,
,517308643925,BCA,02/02/1998,001,2023-10-19_19h22.09.155,OS3_Mult_verification,2022.2.4,Win32,60.39741499,,,,,,,,,,,,,,,,,,,,,,,,,,,,,,,,,,,,,,,,,,,,,,,,,,,,,,,,,,,,,,,,,,,,,,,,582,1.0482,1,"[""5"",""8"",""2"",""return""]","[0.39860000014311936,0.5486000001430966,0.7981000001431084,1.0177000000477392]",,,,,,3,582,Audio/582.mp3,WAIS,0,0,0,0,1,,,,,,,,,,,,,,,,,,,,,,,,,,,,,,,,,,,,,,,,,,,,,,,,,,,,,,,,,,,,,,,,,,,,,,,,,,,,,,,,,,,,
,517308643925,BCA,02/02/1998,001,2023-10-19_19h22.09.155,OS3_Mult_verification,2022.2.4,Win32,60.39741499,,,,,,,,,,,,,,,,,,,,,,,,,,,,,,,,,,,,,,,,,,,,,,,,,,,,,,,,,,,,,,,,,,,,,,,,694,1.5812,1,"[""6"",""9"",""4"",""return""]","[0.35489999985702525,0.9070999999046307,1.2847999999523836,1.5342999999523954]",,,,,,3,694,Audio/694.mp3,WAIS,0,1,1,1,1,,,,,,,,,,,,,,,,,,,,,,,,,,,,,,,,,,,,,,,,,,,,,,,,,,,,,,,,,,,,,,,,,,,,,,,,,,,,,,,,,,,,
,517308643925,BCA,02/02/1998,001,2023-10-19_19h22.09.155,OS3_Mult_verification,2022.2.4,Win32,60.39741499,,,,,,,,,,,,,,,,,,,,,,,,,,,,,,,,,,,,,,,,,,,,,,,,,,,,,,,,,,,,,,,,,,,,,,,,,,,,,,,,,,,,,,,,,,,0,1,1,1,1,digitSpan_stim/threeWAIS.xlsx,,,,,,,,,,,,,,,,,,,,,,,,,,,,,,,,,,,,,,,,,,,,,,,,,,,,,,,,,,,,,,,,,,,,,,,,,,,,,,
,517308643925,BCA,02/02/1998,001,2023-10-19_19h22.09.155,OS3_Mult_verification,2022.2.4,Win32,60.39741499,,,,,,,,,,,,,,,,,,,,,,,,,,,,,,,,,,,,,,,,,,,,,,,,,,,,,,,,,,,,,,,,,,,,,,,,7286,2.2984,1,"[""7"",""2"",""8"",""6"",""return""]","[0.586399999857008,1.0010999999046817,1.4035999999047135,2.03550000000007,2.2553999998569907]",,,,,,4,7286,Audio/7286.mp3,WAIS,0,0,0,0,1,,,,,,,,,,,,,,,,,,,,,,,,,,,,,,,,,,,,,,,,,,,,,,,,,,,,,,,,,,,,,,,,,,,,,,,,,,,,,,,,,,,,
,517308643925,BCA,02/02/1998,001,2023-10-19_19h22.09.155,OS3_Mult_verification,2022.2.4,Win32,60.39741499,,,,,,,,,,,,,,,,,,,,,,,,,,,,,,,,,,,,,,,,,,,,,,,,,,,,,,,,,,,,,,,,,,,,,,,,6439,1.8153,1,"[""6"",""4"",""3"",""9"",""return""]","[0.5688000001907767,0.8178000001908003,1.2069999999999936,1.4542000000476492,1.7679000000954375]",,,,,,4,6439,Audio/6439.mp3,WAIS,0,1,1,1,1,,,,,,,,,,,,,,,,,,,,,,,,,,,,,,,,,,,,,,,,,,,,,,,,,,,,,,,,,,,,,,,,,,,,,,,,,,,,,,,,,,,,
,517308643925,BCA,02/02/1998,001,2023-10-19_19h22.09.155,OS3_Mult_verification,2022.2.4,Win32,60.39741499,,,,,,,,,,,,,,,,,,,,,,,,,,,,,,,,,,,,,,,,,,,,,,,,,,,,,,,,,,,,,,,,,,,,,,,,,,,,,,,,,,,,,,,,,,,0,2,2,2,1,digitSpan_stim/fourWAIS.xlsx,,,,,,,,,,,,,,,,,,,,,,,,,,,,,,,,,,,,,,,,,,,,,,,,,,,,,,,,,,,,,,,,,,,,,,,,,,,,,,
,517308643925,BCA,02/02/1998,001,2023-10-19_19h22.09.155,OS3_Mult_verification,2022.2.4,Win32,60.39741499,,,,,,,,,,,,,,,,,,,,,,,,,,,,,,,,,,,,,,,,,,,,,,,,,,,,,,,,,,,,,,,,,,,,,,,,42731,2.1814,1,"[""4"",""2"",""7"",""3"",""1"",""return""]","[0.4029000000953147,0.7026000001429793,1.3323000001906848,1.5896000001430366,1.843499999999949,2.1341000001430075]",,,,,,5,42731,Audio/42731.mp3,WAIS,0,0,0,0,1,,,,,,,,,,,,,,,,,,,,,,,,,,,,,,,,,,,,,,,,,,,,,,,,,,,,,,,,,,,,,,,,,,,,,,,,,,,,,,,,,,,,
,517308643925,BCA,02/02/1998,001,2023-10-19_19h22.09.155,OS3_Mult_verification,2022.2.4,Win32,60.39741499,,,,,,,,,,,,,,,,,,,,,,,,,,,,,,,,,,,,,,,,,,,,,,,,,,,,,,,,,,,,,,,,,,,,,,,,75836,3.5536,1,"[""7"",""5"",""8"",""3"",""6"",""return""]","[0.6536999998093052,1.2428999998569452,2.5025000000000546,2.752699999809238,3.0736999998092642,3.517199999809236]",,,,,,5,75836,Audio/75836.mp3,WAIS,0,1,1,1,1,,,,,,,,,,,,,,,,,,,,,,,,,,,,,,,,,,,,,,,,,,,,,,,,,,,,,,,,,,,,,,,,,,,,,,,,,,,,,,,,,,,,
,517308643925,BCA,02/02/1998,001,2023-10-19_19h22.09.155,OS3_Mult_verification,2022.2.4,Win32,60.39741499,,,,,,,,,,,,,,,,,,,,,,,,,,,,,,,,,,,,,,,,,,,,,,,,,,,,,,,,,,,,,,,,,,,,,,,,,,,,,,,,,,,,,,,,,,,0,3,3,3,1,digitSpan_stim/fiveWAIS.xlsx,,,,,,,,,,,,,,,,,,,,,,,,,,,,,,,,,,,,,,,,,,,,,,,,,,,,,,,,,,,,,,,,,,,,,,,,,,,,,,
,517308643925,BCA,02/02/1998,001,2023-10-19_19h22.09.155,OS3_Mult_verification,2022.2.4,Win32,60.39741499,,,,,,,,,,,,,,,,,,,,,,,,,,,,,,,,,,,,,,,,,,,,,,,,,,,,,,,,,,,,,,,,,,,,,,,,392487,3.5641,1,"[""3"",""9"",""2"",""4"",""8"",""7"",""return""]","[0.7907999999522417,1.4422999999522972,2.1526000001430248,2.586799999952291,2.9147999999522654,3.1319000000953565,3.515700000047673]",,,,,,6,392487,Audio/392487.mp3,WAIS,0,0,0,0,1,,,,,,,,,,,,,,,,,,,,,,,,,,,,,,,,,,,,,,,,,,,,,,,,,,,,,,,,,,,,,,,,,,,,,,,,,,,,,,,,,,,,
,517308643925,BCA,02/02/1998,001,2023-10-19_19h22.09.155,OS3_Mult_verification,2022.2.4,Win32,60.39741499,,,,,,,,,,,,,,,,,,,,,,,,,,,,,,,,,,,,,,,,,,,,,,,,,,,,,,,,,,,,,,,,,,,,,,,,619473,3.5871,1,"[""6"",""1"",""9"",""4"",""7"",""3"",""return""]","[0.671299999952339,1.0851000001430293,2.017600000143034,2.5511000001430375,3.0187000000477155,3.1844000000953656,3.5482000000477]",,,,,,6,619473,Audio/619473.mp3,WAIS,0,1,1,1,1,,,,,,,,,,,,,,,,,,,,,,,,,,,,,,,,,,,,,,,,,,,,,,,,,,,,,,,,,,,,,,,,,,,,,,,,,,,,,,,,,,,,
,517308643925,BCA,02/02/1998,001,2023-10-19_19h22.09.155,OS3_Mult_verification,2022.2.4,Win32,60.39741499,,,,,,,,,,,,,,,,,,,,,,,,,,,,,,,,,,,,,,,,,,,,,,,,,,,,,,,,,,,,,,,,,,,,,,,,,,,,,,,,,,,,,,,,,,,0,4,4,4,1,digitSpan_stim/sixWAIS.xlsx,,,,,,,,,,,,,,,,,,,,,,,,,,,,,,,,,,,,,,,,,,,,,,,,,,,,,,,,,,,,,,,,,,,,,,,,,,,,,,
,517308643925,BCA,02/02/1998,001,2023-10-19_19h22.09.155,OS3_Mult_verification,2022.2.4,Win32,60.39741499,,,,,,,,,,,,,,,,,,,,,,,,,,,,,,,,,,,,,,,,,,,,,,,,,,,,,,,,,,,,,,,,,,,,,,,,6914728,3.9979,0,"[""6"",""9"",""1"",""4"",""7"",""2"",""8"",""return""]","[0.4197999999523745,1.2647999999524018,1.6846000001430639,2.1025000000000773,2.9556000001431357,3.25720000004776,3.483200000047759,3.9722999999523836]",,,,,,7,6917428,Audio/6917428.mp3,WAIS,0,0,0,0,1,,,,,,,,,,,,,,,,,,,,,,,,,,,,,,,,,,,,,,,,,,,,,,,,,,,,,,,,,,,,,,,,,,,,,,,,,,,,,,,,,,,,
,517308643925,BCA,02/02/1998,001,2023-10-19_19h22.09.155,OS3_Mult_verification,2022.2.4,Win32,60.39741499,,,,,,,,,,,,,,,,,,,,,,,,,,,,,,,,,,,,,,,,,,,,,,,,,,,,,,,,,,,,,,,,,,,,,,,,4179386,3.8814,1,"[""4"",""1"",""7"",""9"",""3"",""8"",""6"",""return""]","[0.34090000009541654,0.8395000000000437,1.366299999952389,1.8835000000000264,2.433200000047691,2.79979999995237,3.1539000000954047,3.8492999999523363]",,,,,,7,4179386,Audio/4179386.mp3,WAIS,0,1,1,1,1,,,,,,,,,,,,,,,,,,,,,,,,,,,,,,,,,,,,,,,,,,,,,,,,,,,,,,,,,,,,,,,,,,,,,,,,,,,,,,,,,,,,
,517308643925,BCA,02/02/1998,001,2023-10-19_19h22.09.155,OS3_Mult_verification,2022.2.4,Win32,60.39741499,,,,,,,,,,,,,,,,,,,,,,,,,,,,,,,,,,,,,,,,,,,,,,,,,,,,,,,,,,,,,,,,,,,,,,,,,,,,,,,,,,,,,,,,,,,0,5,5,5,1,digitSpan_stim/sevenWAIS.xlsx,,,,,,,,,,,,,,,,,,,,,,,,,,,,,,,,,,,,,,,,,,,,,,,,,,,,,,,,,,,,,,,,,,,,,,,,,,,,,,
,517308643925,BCA,02/02/1998,001,2023-10-19_19h22.09.155,OS3_Mult_verification,2022.2.4,Win32,60.39741499,,,,,,,,,,,,,,,,,,,,,,,,,,,,,,,,,,,,,,,,,,,,,,,,,,,,,,,,,,,,,,,,,,,,,,,,38296174,5.7703,1,"[""3"",""8"",""2"",""9"",""6"",""1"",""7"",""4"",""return""]","[0.4777000000476619,0.7938999998569898,1.142200000047751,1.6710000000000491,3.1538999998570034,3.5187000000477155,4.617799999952354,5.02179999995235,5.725500000000011]",,,,,,8,38296174,Audio/38296174.mp3,WAIS,0,0,0,0,1,,,,,,,,,,,,,,,,,,,,,,,,,,,,,,,,,,,,,,,,,,,,,,,,,,,,,,,,,,,,,,,,,,,,,,,,,,,,,,,,,,,,
,517308643925,BCA,02/02/1998,001,2023-10-19_19h22.09.155,OS3_Mult_verification,2022.2.4,Win32,60.39741499,,,,,,,,,,,,,,,,,,,,,,,,,,,,,,,,,,,,,,,,,,,,,,,,,,,,,,,,,,,,,,,,,,,,,,,,58132647,7.3311,1,"[""5"",""8"",""1"",""3"",""2"",""6"",""4"",""7"",""return""]","[0.3576000001430657,0.8701000001429975,1.0904000000953147,2.036400000095341,2.3089000000953774,6.076600000143003,6.638800000190713,6.881999999999948,7.284400000095388]",,,,,,8,58132647,Audio/58132647.mp3,WAIS,0,1,1,1,1,,,,,,,,,,,,,,,,,,,,,,,,,,,,,,,,,,,,,,,,,,,,,,,,,,,,,,,,,,,,,,,,,,,,,,,,,,,,,,,,,,,,
,517308643925,BCA,02/02/1998,001,2023-10-19_19h22.09.155,OS3_Mult_verification,2022.2.4,Win32,60.39741499,,,,,,,,,,,,,,,,,,,,,,,,,,,,,,,,,,,,,,,,,,,,,,,,,,,,,,,,,,,,,,,,,,,,,,,,,,,,,,,,,,,,,,,,,,,0,6,6,6,1,digitSpan_stim/eightWAIS.xlsx,,,,,,,,,,,,,,,,,,,,,,,,,,,,,,,,,,,,,,,,,,,,,,,,,,,,,,,,,,,,,,,,,,,,,,,,,,,,,,
,517308643925,BCA,02/02/1998,001,2023-10-19_19h22.09.155,OS3_Mult_verification,2022.2.4,Win32,60.39741499,,,,,,,,,,,,,,,,,,,,,,,,,,,,,,,,,,,,,,,,,,,,,,,,,,,,,,,,,,,,,,,,,,,,,,,,27863194,6.7401,0,"[""2"",""7"",""8"",""6"",""3"",""1"",""9"",""4"",""return""]","[0.7197000000476237,1.0867999999522908,1.8727000000476437,3.2888999998568806,4.6857999999522235,5.13309999990463,5.784299999952282,6.134599999904594,6.70799999999997]",,,,,,9,275863194,Audio/275863194.mp3,WAIS,0,0,0,0,1,,,,,,,,,,,,,,,,,,,,,,,,,,,,,,,,,,,,,,,,,,,,,,,,,,,,,,,,,,,,,,,,,,,,,,,,,,,,,,,,,,,,
,517308643925,BCA,02/02/1998,001,2023-10-19_19h22.09.155,OS3_Mult_verification,2022.2.4,Win32,60.39741499,,,,,,,,,,,,,,,,,,,,,,,,,,,,,,,,,,,,,,,,,,,,,,,,,,,,,,,,,,,,,,,,,,,,,,,,713954268,12.0346,0,"[""7"",""1"",""3"",""9"",""5"",""4"",""2"",""6"",""8"",""return""]","[0.7762000000477656,1.2857000000477683,1.652200000047742,2.569300000190765,5.300500000000056,6.817700000047694,8.054200000047672,11.333500000000072,11.520400000095378,11.997000000000071]",,,,,,9,713942568,Audio/713942568.mp3,WAIS,0,1,1,1,1,,,,,,,,,,,,,,,,,,,,,,,,,,,,,,,,,,,,,,,,,,,,,,,,,,,,,,,,,,,,,,,,,,,,,,,,,,,,,,,,,,,,
,517308643925,BCA,02/02/1998,001,2023-10-19_19h22.09.155,OS3_Mult_verification,2022.2.4,Win32,60.39741499,,,,,,,,,,,,,,,,,,,,,,,,,,,,,,,,,,,,,,,,,,,,,,,,,,,,,,,,,,,,,,,,,,,,,,,,,,,,,,,,,,WAIS,,,,,,,,,,,,,,,0,0,0,1,1,digitSpan_stim/WAIS.xlsx,,,,,,,,,,,,,,,,,,,,,,,,,,,,,,,,,,,,,,,,,,,,,,,,,,,,,,,,,,,,,,,,,,,,,,,,
,517308643925,BCA,02/02/1998,001,2023-10-19_19h22.09.155,OS3_Mult_verification,2022.2.4,Win32,60.39741499,,,,,,,,,,,,,,,,,,,,,,,,,,,,,,,,,,,,,,,,,,,,,,,,,,,,,,,,,,,,,,,,,,,,,,,,46,1.765,1,"[""4"",""6"",""return""]","[1.0024000000953492,1.52020000004768,1.7237000000477565]",,,,,,2,46,Audio/46.mp3,EGNER,0,0,0,0,1,,,,,,,,,,,,,,,,,,,,,,,,,,,,,,,,,,,,,,,,,,,,,,,,,,,,,,,,,,,,,,,,,,,,,,,,,,,,,,,,,,,,
,517308643925,BCA,02/02/1998,001,2023-10-19_19h22.09.155,OS3_Mult_verification,2022.2.4,Win32,60.39741499,,,,,,,,,,,,,,,,,,,,,,,,,,,,,,,,,,,,,,,,,,,,,,,,,,,,,,,,,,,,,,,,,,,,,,,,82,0.7749,1,"[""8"",""2"",""return""]","[0.2580000000000382,0.42739999985701616,0.7345000000000255]",,,,,,2,82,Audio/82.mp3,EGNER,0,1,1,1,1,,,,,,,,,,,,,,,,,,,,,,,,,,,,,,,,,,,,,,,,,,,,,,,,,,,,,,,,,,,,,,,,,,,,,,,,,,,,,,,,,,,,
,517308643925,BCA,02/02/1998,001,2023-10-19_19h22.09.155,OS3_Mult_verification,2022.2.4,Win32,60.39741499,,,,,,,,,,,,,,,,,,,,,,,,,,,,,,,,,,,,,,,,,,,,,,,,,,,,,,,,,,,,,,,,,,,,,,,,,,,,,,,,,,,,,,,,,,,0,0,0,0,1,digitSpan_stim/twoAudio.xlsx,,,,,,,,,,,,,,,,,,,,,,,,,,,,,,,,,,,,,,,,,,,,,,,,,,,,,,,,,,,,,,,,,,,,,,,,,,,,,,
,517308643925,BCA,02/02/1998,001,2023-10-19_19h22.09.155,OS3_Mult_verification,2022.2.4,Win32,60.39741499,,,,,,,,,,,,,,,,,,,,,,,,,,,,,,,,,,,,,,,,,,,,,,,,,,,,,,,,,,,,,,,,,,,,,,,,157,1.4887,1,"[""1"",""5"",""7"",""return""]","[0.2933999998570016,0.669200000047681,1.115299999952299,1.449599999904649]",,,,,,3,157,Audio/157.mp3,EGNER,0,0,0,0,1,,,,,,,,,,,,,,,,,,,,,,,,,,,,,,,,,,,,,,,,,,,,,,,,,,,,,,,,,,,,,,,,,,,,,,,,,,,,,,,,,,,,
,517308643925,BCA,02/02/1998,001,2023-10-19_19h22.09.155,OS3_Mult_verification,2022.2.4,Win32,60.39741499,,,,,,,,,,,,,,,,,,,,,,,,,,,,,,,,,,,,,,,,,,,,,,,,,,,,,,,,,,,,,,,,,,,,,,,,397,1.1813,1,"[""3"",""9"",""7"",""return""]","[0.34400000000005093,0.5361999998092415,0.7688999998568988,1.1347999999522926]",,,,,,3,397,Audio/397.mp3,EGNER,0,1,1,1,1,,,,,,,,,,,,,,,,,,,,,,,,,,,,,,,,,,,,,,,,,,,,,,,,,,,,,,,,,,,,,,,,,,,,,,,,,,,,,,,,,,,,
,517308643925,BCA,02/02/1998,001,2023-10-19_19h22.09.155,OS3_Mult_verification,2022.2.4,Win32,60.39741499,,,,,,,,,,,,,,,,,,,,,,,,,,,,,,,,,,,,,,,,,,,,,,,,,,,,,,,,,,,,,,,,,,,,,,,,,,,,,,,,,,,,,,,,,,,0,1,1,1,1,digitSpan_stim/threeAudio.xlsx,,,,,,,,,,,,,,,,,,,,,,,,,,,,,,,,,,,,,,,,,,,,,,,,,,,,,,,,,,,,,,,,,,,,,,,,,,,,,,
,517308643925,BCA,02/02/1998,001,2023-10-19_19h22.09.155,OS3_Mult_verification,2022.2.4,Win32,60.39741499,,,,,,,,,,,,,,,,,,,,,,,,,,,,,,,,,,,,,,,,,,,,,,,,,,,,,,,,,,,,,,,,,,,,,,,,6352,1.3976,1,"[""6"",""3"",""5"",""2"",""return""]","[0.30260000014300203,0.5019999999999527,0.8088000001906721,1.1342000000475991,1.355700000047591]",,,,,,4,6352,Audio/6352.mp3,EGNER,0,0,0,0,1,,,,,,,,,,,,,,,,,,,,,,,,,,,,,,,,,,,,,,,,,,,,,,,,,,,,,,,,,,,,,,,,,,,,,,,,,,,,,,,,,,,,
,517308643925,BCA,02/02/1998,001,2023-10-19_19h22.09.155,OS3_Mult_verification,2022.2.4,Win32,60.39741499,,,,,,,,,,,,,,,,,,,,,,,,,,,,,,,,,,,,,,,,,,,,,,,,,,,,,,,,,,,,,,,,,,,,,,,,9184,2.3979,1,"[""9"",""1"",""8"",""4"",""return""]","[0.9865000000000919,1.2682000000477274,1.90329999995231,2.034399999856987,2.3570000000000846]",,,,,,4,9184,Audio/9184.mp3,EGNER,0,1,1,1,1,,,,,,,,,,,,,,,,,,,,,,,,,,,,,,,,,,,,,,,,,,,,,,,,,,,,,,,,,,,,,,,,,,,,,,,,,,,,,,,,,,,,
,517308643925,BCA,02/02/1998,001,2023-10-19_19h22.09.155,OS3_Mult_verification,2022.2.4,Win32,60.39741499,,,,,,,,,,,,,,,,,,,,,,,,,,,,,,,,,,,,,,,,,,,,,,,,,,,,,,,,,,,,,,,,,,,,,,,,,,,,,,,,,,,,,,,,,,,0,2,2,2,1,digitSpan_stim/fourAudio.xlsx,,,,,,,,,,,,,,,,,,,,,,,,,,,,,,,,,,,,,,,,,,,,,,,,,,,,,,,,,,,,,,,,,,,,,,,,,,,,,,
,517308643925,BCA,02/02/1998,001,2023-10-19_19h22.09.155,OS3_Mult_verification,2022.2.4,Win32,60.39741499,,,,,,,,,,,,,,,,,,,,,,,,,,,,,,,,,,,,,,,,,,,,,,,,,,,,,,,,,,,,,,,,,,,,,,,,59281,2.0712,1,"[""5"",""9"",""2"",""8"",""1"",""return""]","[0.4167000000476264,0.8084999999999809,1.3172999999522972,1.6169999999999618,1.7569999999999482,2.0235999999046044]",,,,,,5,59281,Audio/59281.mp3,EGNER,0,0,0,0,1,,,,,,,,,,,,,,,,,,,,,,,,,,,,,,,,,,,,,,,,,,,,,,,,,,,,,,,,,,,,,,,,,,,,,,,,,,,,,,,,,,,,
,517308643925,BCA,02/02/1998,001,2023-10-19_19h22.09.155,OS3_Mult_verification,2022.2.4,Win32,60.39741499,,,,,,,,,,,,,,,,,,,,,,,,,,,,,,,,,,,,,,,,,,,,,,,,,,,,,,,,,,,,,,,,,,,,,,,,648738,7.3799,0,"[""6"",""4"",""8"",""7"",""3"",""8"",""return""]","[0.5653000001907458,0.9363000001907267,1.8754999999999882,5.168400000095403,6.269100000142998,6.904100000142989,7.334500000000048]",,,,,,5,64738,Audio/64738.mp3,EGNER,0,1,1,1,1,,,,,,,,,,,,,,,,,,,,,,,,,,,,,,,,,,,,,,,,,,,,,,,,,,,,,,,,,,,,,,,,,,,,,,,,,,,,,,,,,,,,
,517308643925,BCA,02/02/1998,001,2023-10-19_19h22.09.155,OS3_Mult_verification,2022.2.4,Win32,60.39741499,,,,,,,,,,,,,,,,,,,,,,,,,,,,,,,,,,,,,,,,,,,,,,,,,,,,,,,,,,,,,,,,,,,,,,,,,,,,,,,,,,,,,,,,,,,0,3,3,3,1,digitSpan_stim/fiveAudio.xlsx,,,,,,,,,,,,,,,,,,,,,,,,,,,,,,,,,,,,,,,,,,,,,,,,,,,,,,,,,,,,,,,,,,,,,,,,,,,,,,
,517308643925,BCA,02/02/1998,001,2023-10-19_19h22.09.155,OS3_Mult_verification,2022.2.4,Win32,60.39741499,,,,,,,,,,,,,,,,,,,,,,,,,,,,,,,,,,,,,,,,,,,,,,,,,,,,,,,,,,,,,,,,,,,,,,,,3967812,5.8539,0,"[""3"",""9"",""6"",""7"",""8"",""1"",""2"",""return""]","[1.5857999999523145,2.59079999995231,3.303299999952401,3.5860000000000127,3.8510999999047044,4.408399999857011,5.368299999952342,5.812999999999988]",,,,,,6,396172,Audio/396172.mp3,EGNER,0,0,0,0,1,,,,,,,,,,,,,,,,,,,,,,,,,,,,,,,,,,,,,,,,,,,,,,,,,,,,,,,,,,,,,,,,,,,,,,,,,,,,,,,,,,,,
,517308643925,BCA,02/02/1998,001,2023-10-19_19h22.09.155,OS3_Mult_verification,2022.2.4,Win32,60.39741499,,,,,,,,,,,,,,,,,,,,,,,,,,,,,,,,,,,,,,,,,,,,,,,,,,,,,,,,,,,,,,,,,,,,,,,,594631,3.9148,1,"[""5"",""9"",""4"",""6"",""3"",""1"",""return""]","[0.5911000001431148,1.5166000001430575,2.1489000000954093,2.9880000000000564,3.2823000001907303,3.49840000009533,3.8792000000477174]",,,,,,6,594631,Audio/594631.mp3,EGNER,0,1,1,1,1,,,,,,,,,,,,,,,,,,,,,,,,,,,,,,,,,,,,,,,,,,,,,,,,,,,,,,,,,,,,,,,,,,,,,,,,,,,,,,,,,,,,
,517308643925,BCA,02/02/1998,001,2023-10-19_19h22.09.155,OS3_Mult_verification,2022.2.4,Win32,60.39741499,,,,,,,,,,,,,,,,,,,,,,,,,,,,,,,,,,,,,,,,,,,,,,,,,,,,,,,,,,,,,,,,,,,,,,,,,,,,,,,,,,,,,,,,,,,0,4,4,4,1,digitSpan_stim/sixAudio.xlsx,,,,,,,,,,,,,,,,,,,,,,,,,,,,,,,,,,,,,,,,,,,,,,,,,,,,,,,,,,,,,,,,,,,,,,,,,,,,,,
,517308643925,BCA,02/02/1998,001,2023-10-19_19h22.09.155,OS3_Mult_verification,2022.2.4,Win32,60.39741499,,,,,,,,,,,,,,,,,,,,,,,,,,,,,,,,,,,,,,,,,,,,,,,,,,,,,,,,,,,,,,,,,,,,,,,,8241973,5.3804,1,"[""8"",""2"",""4"",""1"",""9"",""7"",""3"",""return""]","[2.871700000047781,3.192300000190812,3.474900000095431,3.720900000095412,4.30440000009537,4.591400000095405,4.952400000095395,5.3390000000000555]",,,,,,7,8241973,Audio/8241973.mp3,EGNER,0,0,0,0,1,,,,,,,,,,,,,,,,,,,,,,,,,,,,,,,,,,,,,,,,,,,,,,,,,,,,,,,,,,,,,,,,,,,,,,,,,,,,,,,,,,,,
,517308643925,BCA,02/02/1998,001,2023-10-19_19h22.09.155,OS3_Mult_verification,2022.2.4,Win32,60.39741499,,,,,,,,,,,,,,,,,,,,,,,,,,,,,,,,,,,,,,,,,,,,,,,,,,,,,,,,,,,,,,,,,,,,,,,,2814367,4.2734,1,"[""2"",""8"",""1"",""4"",""3"",""6"",""7"",""return""]","[1.719500000000039,2.0571000001430093,2.6709999999999354,3.0042000000477174,3.4194000000953793,3.6543000001906876,3.858400000095344,4.236700000047676]",,,,,,7,2814367,Audio/2814367.mp3,EGNER,0,1,1,1,1,,,,,,,,,,,,,,,,,,,,,,,,,,,,,,,,,,,,,,,,,,,,,,,,,,,,,,,,,,,,,,,,,,,,,,,,,,,,,,,,,,,,
,517308643925,BCA,02/02/1998,001,2023-10-19_19h22.09.155,OS3_Mult_verification,2022.2.4,Win32,60.39741499,,,,,,,,,,,,,,,,,,,,,,,,,,,,,,,,,,,,,,,,,,,,,,,,,,,,,,,,,,,,,,,,,,,,,,,,,,,,,,,,,,,,,,,,,,,0,5,5,5,1,digitSpan_stim/sevenAudio.xlsx,,,,,,,,,,,,,,,,,,,,,,,,,,,,,,,,,,,,,,,,,,,,,,,,,,,,,,,,,,,,,,,,,,,,,,,,,,,,,,
,517308643925,BCA,02/02/1998,001,2023-10-19_19h22.09.155,OS3_Mult_verification,2022.2.4,Win32,60.39741499,,,,,,,,,,,,,,,,,,,,,,,,,,,,,,,,,,,,,,,,,,,,,,,,,,,,,,,,,,,,,,,,,,,,,,,,53827164,5.4801,1,"[""5"",""3"",""8"",""2"",""7"",""1"",""6"",""4"",""return""]","[2.092200000047683,2.5551000001430566,2.9049999999999727,3.3513000001906903,4.0016000001429575,4.37340000009533,4.7094999999999345,5.035600000143063,5.440300000190746]",,,,,,8,53827164,Audio/53827164.mp3,EGNER,0,0,0,0,1,,,,,,,,,,,,,,,,,,,,,,,,,,,,,,,,,,,,,,,,,,,,,,,,,,,,,,,,,,,,,,,,,,,,,,,,,,,,,,,,,,,,
,517308643925,BCA,02/02/1998,001,2023-10-19_19h22.09.155,OS3_Mult_verification,2022.2.4,Win32,60.39741499,,,,,,,,,,,,,,,,,,,,,,,,,,,,,,,,,,,,,,,,,,,,,,,,,,,,,,,,,,,,,,,,,,,,,,,,752147319,5.8643,0,"[""7"",""5"",""2"",""1"",""4"",""7"",""3"",""1"",""9"",""return""]","[1.7412999999522754,2.315099999904646,2.9561999998092006,3.3236999998092642,3.733199999809244,4.199199999809252,4.705999999999904,5.0477999999523036,5.381199999809269,5.819199999809257]",,,,,,8,75241739,Audio/75241739.mp3,EGNER,0,1,1,1,1,,,,,,,,,,,,,,,,,,,,,,,,,,,,,,,,,,,,,,,,,,,,,,,,,,,,,,,,,,,,,,,,,,,,,,,,,,,,,,,,,,,,
,517308643925,BCA,02/02/1998,001,2023-10-19_19h22.09.155,OS3_Mult_verification,2022.2.4,Win32,60.39741499,,,,,,,,,,,,,,,,,,,,,,,,,,,,,,,,,,,,,,,,,,,,,,,,,,,,,,,,,,,,,,,,,,,,,,,,,,,,,,,,,,,,,,,,,,,0,6,6,6,1,digitSpan_stim/eightAudio.xlsx,,,,,,,,,,,,,,,,,,,,,,,,,,,,,,,,,,,,,,,,,,,,,,,,,,,,,,,,,,,,,,,,,,,,,,,,,,,,,,
,517308643925,BCA,02/02/1998,001,2023-10-19_19h22.09.155,OS3_Mult_verification,2022.2.4,Win32,60.39741499,,,,,,,,,,,,,,,,,,,,,,,,,,,,,,,,,,,,,,,,,,,,,,,,,,,,,,,,,,,,,,,,,,,,,,,,68215,4.0313,0,"[""6"",""8"",""2"",""1"",""5"",""return""]","[1.7017999999523,2.2427000000476482,2.8667999999522635,3.2176000001429657,3.7079000000952647,3.983600000143042]",,,,,,9,682594316,Audio/682594316.mp3,EGNER,0,0,0,0,1,,,,,,,,,,,,,,,,,,,,,,,,,,,,,,,,,,,,,,,,,,,,,,,,,,,,,,,,,,,,,,,,,,,,,,,,,,,,,,,,,,,,
,517308643925,BCA,02/02/1998,001,2023-10-19_19h22.09.155,OS3_Mult_verification,2022.2.4,Win32,60.39741499,,,,,,,,,,,,,,,,,,,,,,,,,,,,,,,,,,,,,,,,,,,,,,,,,,,,,,,,,,,,,,,,,,,,,,,,1429637258,7.6129,0,"[""1"",""4"",""2"",""9"",""6"",""3"",""7"",""2"",""5"",""8"",""return""]","[0.5357999999523599,1.0887000000476519,1.525799999952369,2.004000000000019,2.7907999999523554,3.1495999999046944,3.685299999952349,6.472700000047666,6.907099999904631,7.141399999856958,7.565500000000043]",,,,,,9,142963758,Audio/142963758.mp3,EGNER,0,1,1,1,1,,,,,,,,,,,,,,,,,,,,,,,,,,,,,,,,,,,,,,,,,,,,,,,,,,,,,,,,,,,,,,,,,,,,,,,,,,,,,,,,,,,,
,517308643925,BCA,02/02/1998,001,2023-10-19_19h22.09.155,OS3_Mult_verification,2022.2.4,Win32,60.39741499,,,,,,,,,,,,,,,,,,,,,,,,,,,,,,,,,,,,,,,,,,,,,,,,,,,,,,,,,,,,,,,,,,,,,,,,,,,,,,,,,,Egner,,,,,,,,,,,,,,,0,1,1,0,1,digitSpan_stim/Egner.xlsx,,,,,,,,,,,,,,,,,,,,,,,,,,,,,,,,,,,,,,,,,,,,,,,,,,,,,,,,,,,,,,,,,,,,,,,,
,517308643925,BCA,02/02/1998,001,2023-10-19_19h22.09.155,OS3_Mult_verification,2022.2.4,Win32,60.39741499,,,,,,,,,,,,,,,,,,,,,,,,,,,,,,,,,,,,,,,,,,,,,,,,,,,,,,,,,,,,,,,,,,,,,,,,,,,,,,,,,,,,,,,,,,,,,,,,,,,,,,,0,0,0,0,1,,,,,,,,,,,,,,,,,,,,,,,,,,,,,,,,,,,,,,,,,,,,,,,,,,,,,,,,,,,,,,,,,,,
,517308643925,BCA,02/02/1998,001,2023-10-19_19h22.09.155,OS3_Mult_verification,2022.2.4,Win32,60.39741499,,,,,,,,,,,,,,,,,,,,,,,,,,,,,,,,,,,,,,,,,,,,,,,,,,,,,,,,,,,,,,0,1,1,1,1,0,0,1,,,,,,,,,,,,,,,,,,,,,,,,,,,,,,,,,,,,,,,,,,,,,,,,,,,,,,,,,,,,,,,,,,,,,,,,,,,,,,,,,,,,,,,,,,,,,,,,,,,,,,,,,
,517308643925,BCA,02/02/1998,001,2023-10-19_19h22.09.155,OS3_Mult_verification,2022.2.4,Win32,60.39741499,,,,,,,,,,,,,,,,space,1.2362,,,,,,,,,,,,,,,,,,,,,,,,,,,,,,,,,,,,,,,,,,,,,,,,,,,,,,,,,,,,,,,,,,,,,,,,,,,,,,,,,,,,,,,,,,,right,1,0.6241,0,0,0,2,1,practice,9,9,9 | 9,0,0.05,0.065,neutral,right,,,,,,,,,,,,,,,,,,,,,,,,,,,,,,,,,,,,,,,,,,,,,,,,,,
,517308643925,BCA,02/02/1998,001,2023-10-19_19h22.09.155,OS3_Mult_verification,2022.2.4,Win32,60.39741499,,,,,,,,,,,,,,,,,,,,,,,,,,,,,,,,,,,,,,,,,,,,,,,,,,,,,,,,,,,,,,,,,,,,,,,,,,,,,,,,,,,,,,,,,,,,,,,,,,,,,,,,,,,,right,1,0.8681,0,1,1,1,1,practice,4,3,4 | 3,1,0.05,0.065,incongruent,right,,,,,,,,,,,,,,,,,,,,,,,,,,,,,,,,,,,,,,,,,,,,,,,,,,
,517308643925,BCA,02/02/1998,001,2023-10-19_19h22.09.155,OS3_Mult_verification,2022.2.4,Win32,60.39741499,,,,,,,,,,,,,,,,,,,,,,,,,,,,,,,,,,,,,,,,,,,,,,,,,,,,,,,,,,,,,,,,,,,,,,,,,,,,,,,,,,,,,,,,,,,,,,,,,,,,,,,,,,,,left,1,0.5034,0,2,2,0,1,practice,9,8,9 | 8,1,0.065,0.05,congruent,left,,,,,,,,,,,,,,,,,,,,,,,,,,,,,,,,,,,,,,,,,,,,,,,,,,
,517308643925,BCA,02/02/1998,001,2023-10-19_19h22.09.155,OS3_Mult_verification,2022.2.4,Win32,60.39741499,,,,,,,,,,,,,,,,,,,,,,,,,,,,,,,,,,,,,,,,,,,,,,,,,,,,,,,,,,,,,,,,,,,,,,,,,,,,,,,,,,,,,,,,,,,,,,,,,,,,,,,,,,,,right,1,0.7359,,,,,,physical,9,7,9 | 7,2,0.05,0.065,incongruent,right,0,0,0,39,1,,,,,,,,,,,,,,,,,,,,,,,,,,,,,,,,,,,,,,,,,,,,,
,517308643925,BCA,02/02/1998,001,2023-10-19_19h22.09.155,OS3_Mult_verification,2022.2.4,Win32,60.39741499,,,,,,,,,,,,,,,,,,,,,,,,,,,,,,,,,,,,,,,,,,,,,,,,,,,,,,,,,,,,,,,,,,,,,,,,,,,,,,,,,,,,,,,,,,,,,,,,,,,,,,,,,,,,right,1,0.5506,,,,,,physical,3,4,3 | 4,1,0.05,0.065,congruent,right,0,1,1,1,1,,,,,,,,,,,,,,,,,,,,,,,,,,,,,,,,,,,,,,,,,,,,,
,517308643925,BCA,02/02/1998,001,2023-10-19_19h22.09.155,OS3_Mult_verification,2022.2.4,Win32,60.39741499,,,,,,,,,,,,,,,,,,,,,,,,,,,,,,,,,,,,,,,,,,,,,,,,,,,,,,,,,,,,,,,,,,,,,,,,,,,,,,,,,,,,,,,,,,,,,,,,,,,,,,,,,,,,left,1,0.4736,,,,,,physical,7,9,7 | 9,2,0.065,0.05,incongruent,left,0,2,2,35,1,,,,,,,,,,,,,,,,,,,,,,,,,,,,,,,,,,,,,,,,,,,,,
,517308643925,BCA,02/02/1998,001,2023-10-19_19h22.09.155,OS3_Mult_verification,2022.2.4,Win32,60.39741499,,,,,,,,,,,,,,,,,,,,,,,,,,,,,,,,,,,,,,,,,,,,,,,,,,,,,,,,,,,,,,,,,,,,,,,,,,,,,,,,,,,,,,,,,,,,,,,,,,,,,,,,,,,,right,1,0.486,,,,,,physical,7,9,7 | 9,2,0.05,0.065,congruent,right,0,3,3,11,1,,,,,,,,,,,,,,,,,,,,,,,,,,,,,,,,,,,,,,,,,,,,,
,517308643925,BCA,02/02/1998,001,2023-10-19_19h22.09.155,OS3_Mult_verification,2022.2.4,Win32,60.39741499,,,,,,,,,,,,,,,,,,,,,,,,,,,,,,,,,,,,,,,,,,,,,,,,,,,,,,,,,,,,,,,,,,,,,,,,,,,,,,,,,,,,,,,,,,,,,,,,,,,,,,,,,,,,right,1,0.4725,,,,,,physical,1,3,1 | 3,2,0.05,0.065,congruent,right,0,4,4,8,1,,,,,,,,,,,,,,,,,,,,,,,,,,,,,,,,,,,,,,,,,,,,,
,517308643925,BCA,02/02/1998,001,2023-10-19_19h22.09.155,OS3_Mult_verification,2022.2.4,Win32,60.39741499,,,,,,,,,,,,,,,,,,,,,,,,,,,,,,,,,,,,,,,,,,,,,,,,,,,,,,,,,,,,,,,,,,,,,,,,,,,,,,,,,,,,,,,,,,,,,,,,,,,,,,,,,,,,left,1,0.4642,,,,,,physical,2,4,2 | 4,2,0.065,0.05,incongruent,left,0,5,5,33,1,,,,,,,,,,,,,,,,,,,,,,,,,,,,,,,,,,,,,,,,,,,,,
,517308643925,BCA,02/02/1998,001,2023-10-19_19h22.09.155,OS3_Mult_verification,2022.2.4,Win32,60.39741499,,,,,,,,,,,,,,,,,,,,,,,,,,,,,,,,,,,,,,,,,,,,,,,,,,,,,,,,,,,,,,,,,,,,,,,,,,,,,,,,,,,,,,,,,,,,,,,,,,,,,,,,,,,,left,1,0.602,,,,,,physical,4,3,4 | 3,1,0.065,0.05,congruent,left,0,6,6,5,1,,,,,,,,,,,,,,,,,,,,,,,,,,,,,,,,,,,,,,,,,,,,,
,517308643925,BCA,02/02/1998,001,2023-10-19_19h22.09.155,OS3_Mult_verification,2022.2.4,Win32,60.39741499,,,,,,,,,,,,,,,,,,,,,,,,,,,,,,,,,,,,,,,,,,,,,,,,,,,,,,,,,,,,,,,,,,,,,,,,,,,,,,,,,,,,,,,,,,,,,,,,,,,,,,,,,,,,left,1,0.5837,,,,,,physical,1,3,1 | 3,2,0.065,0.05,incongruent,left,0,7,7,32,1,,,,,,,,,,,,,,,,,,,,,,,,,,,,,,,,,,,,,,,,,,,,,
,517308643925,BCA,02/02/1998,001,2023-10-19_19h22.09.155,OS3_Mult_verification,2022.2.4,Win32,60.39741499,,,,,,,,,,,,,,,,,,,,,,,,,,,,,,,,,,,,,,,,,,,,,,,,,,,,,,,,,,,,,,,,,,,,,,,,,,,,,,,,,,,,,,,,,,,,,,,,,,,,,,,,,,,,left,1,0.9064,,,,,,physical,9,7,9 | 7,2,0.065,0.05,congruent,left,0,8,8,15,1,,,,,,,,,,,,,,,,,,,,,,,,,,,,,,,,,,,,,,,,,,,,,
,517308643925,BCA,02/02/1998,001,2023-10-19_19h22.09.155,OS3_Mult_verification,2022.2.4,Win32,60.39741499,,,,,,,,,,,,,,,,,,,,,,,,,,,,,,,,,,,,,,,,,,,,,,,,,,,,,,,,,,,,,,,,,,,,,,,,,,,,,,,,,,,,,,,,,,,,,,,,,,,,,,,,,,,,right,1,0.4852,,,,,,physical,7,7,7 | 7,0,0.05,0.065,neutral,right,0,9,9,59,1,,,,,,,,,,,,,,,,,,,,,,,,,,,,,,,,,,,,,,,,,,,,,
,517308643925,BCA,02/02/1998,001,2023-10-19_19h22.09.155,OS3_Mult_verification,2022.2.4,Win32,60.39741499,,,,,,,,,,,,,,,,,,,,,,,,,,,,,,,,,,,,,,,,,,,,,,,,,,,,,,,,,,,,,,,,,,,,,,,,,,,,,,,,,,,,,,,,,,,,,,,,,,,,,,,,,,,,right,1,0.473,,,,,,physical,3,8,3 | 8,5,0.05,0.065,congruent,right,0,10,10,18,1,,,,,,,,,,,,,,,,,,,,,,,,,,,,,,,,,,,,,,,,,,,,,
,517308643925,BCA,02/02/1998,001,2023-10-19_19h22.09.155,OS3_Mult_verification,2022.2.4,Win32,60.39741499,,,,,,,,,,,,,,,,,,,,,,,,,,,,,,,,,,,,,,,,,,,,,,,,,,,,,,,,,,,,,,,,,,,,,,,,,,,,,,,,,,,,,,,,,,,,,,,,,,,,,,,,,,,,right,1,0.4858,,,,,,physical,6,7,6 | 7,1,0.05,0.065,congruent,right,0,11,11,2,1,,,,,,,,,,,,,,,,,,,,,,,,,,,,,,,,,,,,,,,,,,,,,
,517308643925,BCA,02/02/1998,001,2023-10-19_19h22.09.155,OS3_Mult_verification,2022.2.4,Win32,60.39741499,,,,,,,,,,,,,,,,,,,,,,,,,,,,,,,,,,,,,,,,,,,,,,,,,,,,,,,,,,,,,,,,,,,,,,,,,,,,,,,,,,,,,,,,,,,,,,,,,,,,,,,,,,,,right,1,0.5343,,,,,,physical,2,2,2 | 2,0,0.05,0.065,neutral,right,0,12,12,57,1,,,,,,,,,,,,,,,,,,,,,,,,,,,,,,,,,,,,,,,,,,,,,
,517308643925,BCA,02/02/1998,001,2023-10-19_19h22.09.155,OS3_Mult_verification,2022.2.4,Win32,60.39741499,,,,,,,,,,,,,,,,,,,,,,,,,,,,,,,,,,,,,,,,,,,,,,,,,,,,,,,,,,,,,,,,,,,,,,,,,,,,,,,,,,,,,,,,,,,,,,,,,,,,,,,,,,,,left,0,0.5536,,,,,,physical,4,3,4 | 3,1,0.05,0.065,incongruent,right,0,13,13,29,1,,,,,,,,,,,,,,,,,,,,,,,,,,,,,,,,,,,,,,,,,,,,,
,517308643925,BCA,02/02/1998,001,2023-10-19_19h22.09.155,OS3_Mult_verification,2022.2.4,Win32,60.39741499,,,,,,,,,,,,,,,,,,,,,,,,,,,,,,,,,,,,,,,,,,,,,,,,,,,,,,,,,,,,,,,,,,,,,,,,,,,,,,,,,,,,,,,,,,,,,,,,,,,,,,,,,,,,right,1,0.626,,,,,,physical,2,7,2 | 7,5,0.05,0.065,congruent,right,0,14,14,17,1,,,,,,,,,,,,,,,,,,,,,,,,,,,,,,,,,,,,,,,,,,,,,
,517308643925,BCA,02/02/1998,001,2023-10-19_19h22.09.155,OS3_Mult_verification,2022.2.4,Win32,60.39741499,,,,,,,,,,,,,,,,,,,,,,,,,,,,,,,,,,,,,,,,,,,,,,,,,,,,,,,,,,,,,,,,,,,,,,,,,,,,,,,,,,,,,,,,,,,,,,,,,,,,,,,,,,,,right,1,0.719,,,,,,physical,3,3,3 | 3,0,0.05,0.065,neutral,right,0,15,15,60,1,,,,,,,,,,,,,,,,,,,,,,,,,,,,,,,,,,,,,,,,,,,,,
,517308643925,BCA,02/02/1998,001,2023-10-19_19h22.09.155,OS3_Mult_verification,2022.2.4,Win32,60.39741499,,,,,,,,,,,,,,,,,,,,,,,,,,,,,,,,,,,,,,,,,,,,,,,,,,,,,,,,,,,,,,,,,,,,,,,,,,,,,,,,,,,,,,,,,,,,,,,,,,,,,,,,,,,,left,1,0.5193,,,,,,physical,2,7,2 | 7,5,0.065,0.05,incongruent,left,0,16,16,41,1,,,,,,,,,,,,,,,,,,,,,,,,,,,,,,,,,,,,,,,,,,,,,
,517308643925,BCA,02/02/1998,001,2023-10-19_19h22.09.155,OS3_Mult_verification,2022.2.4,Win32,60.39741499,,,,,,,,,,,,,,,,,,,,,,,,,,,,,,,,,,,,,,,,,,,,,,,,,,,,,,,,,,,,,,,,,,,,,,,,,,,,,,,,,,,,,,,,,,,,,,,,,,,,,,,,,,,,left,1,0.9582,,,,,,physical,3,4,3 | 4,1,0.065,0.05,incongruent,left,0,17,17,25,1,,,,,,,,,,,,,,,,,,,,,,,,,,,,,,,,,,,,,,,,,,,,,
,517308643925,BCA,02/02/1998,001,2023-10-19_19h22.09.155,OS3_Mult_verification,2022.2.4,Win32,60.39741499,,,,,,,,,,,,,,,,,,,,,,,,,,,,,,,,,,,,,,,,,,,,,,,,,,,,,,,,,,,,,,,,,,,,,,,,,,,,,,,,,,,,,,,,,,,,,,,,,,,,,,,,,,,,right,1,0.5538,,,,,,physical,7,7,7 | 7,0,0.05,0.065,neutral,right,0,18,18,69,1,,,,,,,,,,,,,,,,,,,,,,,,,,,,,,,,,,,,,,,,,,,,,
,517308643925,BCA,02/02/1998,001,2023-10-19_19h22.09.155,OS3_Mult_verification,2022.2.4,Win32,60.39741499,,,,,,,,,,,,,,,,,,,,,,,,,,,,,,,,,,,,,,,,,,,,,,,,,,,,,,,,,,,,,,,,,,,,,,,,,,,,,,,,,,,,,,,,,,,,,,,,,,,,,,,,,,,,right,1,0.9196,,,,,,physical,7,2,7 | 2,5,0.05,0.065,incongruent,right,0,19,19,45,1,,,,,,,,,,,,,,,,,,,,,,,,,,,,,,,,,,,,,,,,,,,,,
,517308643925,BCA,02/02/1998,001,2023-10-19_19h22.09.155,OS3_Mult_verification,2022.2.4,Win32,60.39741499,,,,,,,,,,,,,,,,,,,,,,,,,,,,,,,,,,,,,,,,,,,,,,,,,,,,,,,,,,,,,,,,,,,,,,,,,,,,,,,,,,,,,,,,,,,,,,,,,,,,,,,,,,,,right,1,0.8852,,,,,,physical,9,9,9 | 9,0,0.05,0.065,neutral,right,0,20,20,71,1,,,,,,,,,,,,,,,,,,,,,,,,,,,,,,,,,,,,,,,,,,,,,
,517308643925,BCA,02/02/1998,001,2023-10-19_19h22.09.155,OS3_Mult_verification,2022.2.4,Win32,60.39741499,,,,,,,,,,,,,,,,,,,,,,,,,,,,,,,,,,,,,,,,,,,,,,,,,,,,,,,,,,,,,,,,,,,,,,,,,,,,,,,,,,,,,,,,,,,,,,,,,,,,,,,,,,,,right,1,0.525,,,,,,physical,1,6,1 | 6,5,0.05,0.065,congruent,right,0,21,21,16,1,,,,,,,,,,,,,,,,,,,,,,,,,,,,,,,,,,,,,,,,,,,,,
,517308643925,BCA,02/02/1998,001,2023-10-19_19h22.09.155,OS3_Mult_verification,2022.2.4,Win32,60.39741499,,,,,,,,,,,,,,,,,,,,,,,,,,,,,,,,,,,,,,,,,,,,,,,,,,,,,,,,,,,,,,,,,,,,,,,,,,,,,,,,,,,,,,,,,,,,,,,,,,,,,,,,,,,,right,1,1.2048,,,,,,physical,3,1,3 | 1,2,0.05,0.065,incongruent,right,0,22,22,36,1,,,,,,,,,,,,,,,,,,,,,,,,,,,,,,,,,,,,,,,,,,,,,
,517308643925,BCA,02/02/1998,001,2023-10-19_19h22.09.155,OS3_Mult_verification,2022.2.4,Win32,60.39741499,,,,,,,,,,,,,,,,,,,,,,,,,,,,,,,,,,,,,,,,,,,,,,,,,,,,,,,,,,,,,,,,,,,,,,,,,,,,,,,,,,,,,,,,,,,,,,,,,,,,,,,,,,,,right,1,0.5936,,,,,,physical,4,4,4 | 4,0,0.05,0.065,neutral,right,0,23,23,67,1,,,,,,,,,,,,,,,,,,,,,,,,,,,,,,,,,,,,,,,,,,,,,
,517308643925,BCA,02/02/1998,001,2023-10-19_19h22.09.155,OS3_Mult_verification,2022.2.4,Win32,60.39741499,,,,,,,,,,,,,,,,,,,,,,,,,,,,,,,,,,,,,,,,,,,,,,,,,,,,,,,,,,,,,,,,,,,,,,,,,,,,,,,,,,,,,,,,,,,,,,,,,,,,,,,,,,,,left,1,0.5584,,,,,,physical,7,6,7 | 6,1,0.065,0.05,congruent,left,0,24,24,6,1,,,,,,,,,,,,,,,,,,,,,,,,,,,,,,,,,,,,,,,,,,,,,
,517308643925,BCA,02/02/1998,001,2023-10-19_19h22.09.155,OS3_Mult_verification,2022.2.4,Win32,60.39741499,,,,,,,,,,,,,,,,,,,,,,,,,,,,,,,,,,,,,,,,,,,,,,,,,,,,,,,,,,,,,,,,,,,,,,,,,,,,,,,,,,,,,,,,,,,,,,,,,,,,,,,,,,,,right,1,0.5582,,,,,,physical,6,8,6 | 8,2,0.05,0.065,congruent,right,0,25,25,10,1,,,,,,,,,,,,,,,,,,,,,,,,,,,,,,,,,,,,,,,,,,,,,
,517308643925,BCA,02/02/1998,001,2023-10-19_19h22.09.155,OS3_Mult_verification,2022.2.4,Win32,60.39741499,,,,,,,,,,,,,,,,,,,,,,,,,,,,,,,,,,,,,,,,,,,,,,,,,,,,,,,,,,,,,,,,,,,,,,,,,,,,,,,,,,,,,,,,,,,,,,,,,,,,,,,,,,,,left,1,0.5346,,,,,,physical,2,2,2 | 2,0,0.065,0.05,neutral,left,0,26,26,52,1,,,,,,,,,,,,,,,,,,,,,,,,,,,,,,,,,,,,,,,,,,,,,
,517308643925,BCA,02/02/1998,001,2023-10-19_19h22.09.155,OS3_Mult_verification,2022.2.4,Win32,60.39741499,,,,,,,,,,,,,,,,,,,,,,,,,,,,,,,,,,,,,,,,,,,,,,,,,,,,,,,,,,,,,,,,,,,,,,,,,,,,,,,,,,,,,,,,,,,,,,,,,,,,,,,,,,,,left,1,0.4855,,,,,,physical,8,9,8 | 9,1,0.065,0.05,incongruent,left,0,27,27,27,1,,,,,,,,,,,,,,,,,,,,,,,,,,,,,,,,,,,,,,,,,,,,,
,517308643925,BCA,02/02/1998,001,2023-10-19_19h22.09.155,OS3_Mult_verification,2022.2.4,Win32,60.39741499,,,,,,,,,,,,,,,,,,,,,,,,,,,,,,,,,,,,,,,,,,,,,,,,,,,,,,,,,,,,,,,,,,,,,,,,,,,,,,,,,,,,,,,,,,,,,,,,,,,,,,,,,,,,left,1,0.5542,,,,,,physical,9,4,9 | 4,5,0.065,0.05,congruent,left,0,28,28,23,1,,,,,,,,,,,,,,,,,,,,,,,,,,,,,,,,,,,,,,,,,,,,,
,517308643925,BCA,02/02/1998,001,2023-10-19_19h22.09.155,OS3_Mult_verification,2022.2.4,Win32,60.39741499,,,,,,,,,,,,,,,,,,,,,,,,,,,,,,,,,,,,,,,,,,,,,,,,,,,,,,,,,,,,,,,,,,,,,,,,,,,,,,,,,,,,,,,,,,,,,,,,,,,,,,,,,,,,left,1,0.4402,,,,,,physical,8,3,8 | 3,5,0.065,0.05,congruent,left,0,29,29,22,1,,,,,,,,,,,,,,,,,,,,,,,,,,,,,,,,,,,,,,,,,,,,,
,517308643925,BCA,02/02/1998,001,2023-10-19_19h22.09.155,OS3_Mult_verification,2022.2.4,Win32,60.39741499,,,,,,,,,,,,,,,,,,,,,,,,,,,,,,,,,,,,,,,,,,,,,,,,,,,,,,,,,,,,,,,,,,,,,,,,,,,,,,,,,,,,,,,,,,,,,,,,,,,,,,,,,,,,left,1,0.502,,,,,,physical,4,4,4 | 4,0,0.065,0.05,neutral,left,0,30,30,53,1,,,,,,,,,,,,,,,,,,,,,,,,,,,,,,,,,,,,,,,,,,,,,
,517308643925,BCA,02/02/1998,001,2023-10-19_19h22.09.155,OS3_Mult_verification,2022.2.4,Win32,60.39741499,,,,,,,,,,,,,,,,,,,,,,,,,,,,,,,,,,,,,,,,,,,,,,,,,,,,,,,,,,,,,,,,,,,,,,,,,,,,,,,,,,,,,,,,,,,,,,,,,,,,,,,,,,,,right,1,0.5639,,,,,,physical,4,2,4 | 2,2,0.05,0.065,incongruent,right,0,31,31,37,1,,,,,,,,,,,,,,,,,,,,,,,,,,,,,,,,,,,,,,,,,,,,,
,517308643925,BCA,02/02/1998,001,2023-10-19_19h22.09.155,OS3_Mult_verification,2022.2.4,Win32,60.39741499,,,,,,,,,,,,,,,,,,,,,,,,,,,,,,,,,,,,,,,,,,,,,,,,,,,,,,,,,,,,,,,,,,,,,,,,,,,,,,,,,,,,,,,,,,,,,,,,,,,,,,,,,,,,right,1,1.0146,,,,,,physical,1,1,1 | 1,0,0.05,0.065,neutral,right,0,32,32,56,1,,,,,,,,,,,,,,,,,,,,,,,,,,,,,,,,,,,,,,,,,,,,,
,517308643925,BCA,02/02/1998,001,2023-10-19_19h22.09.155,OS3_Mult_verification,2022.2.4,Win32,60.39741499,,,,,,,,,,,,,,,,,,,,,,,,,,,,,,,,,,,,,,,,,,,,,,,,,,,,,,,,,,,,,,,,,,,,,,,,,,,,,,,,,,,,,,,,,,,,,,,,,,,,,,,,,,,,right,1,0.5543,,,,,,physical,4,9,4 | 9,5,0.05,0.065,congruent,right,0,33,33,19,1,,,,,,,,,,,,,,,,,,,,,,,,,,,,,,,,,,,,,,,,,,,,,
,517308643925,BCA,02/02/1998,001,2023-10-19_19h22.09.155,OS3_Mult_verification,2022.2.4,Win32,60.39741499,,,,,,,,,,,,,,,,,,,,,,,,,,,,,,,,,,,,,,,,,,,,,,,,,,,,,,,,,,,,,,,,,,,,,,,,,,,,,,,,,,,,,,,,,,,,,,,,,,,,,,,,,,,,right,1,0.5533,,,,,,physical,8,9,8 | 9,1,0.05,0.065,congruent,right,0,34,34,3,1,,,,,,,,,,,,,,,,,,,,,,,,,,,,,,,,,,,,,,,,,,,,,
,517308643925,BCA,02/02/1998,001,2023-10-19_19h22.09.155,OS3_Mult_verification,2022.2.4,Win32,60.39741499,,,,,,,,,,,,,,,,,,,,,,,,,,,,,,,,,,,,,,,,,,,,,,,,,,,,,,,,,,,,,,,,,,,,,,,,,,,,,,,,,,,,,,,,,,,,,,,,,,,,,,,,,,,,left,1,0.5045,,,,,,physical,8,8,8 | 8,0,0.065,0.05,neutral,left,0,35,35,51,1,,,,,,,,,,,,,,,,,,,,,,,,,,,,,,,,,,,,,,,,,,,,,
,517308643925,BCA,02/02/1998,001,2023-10-19_19h22.09.155,OS3_Mult_verification,2022.2.4,Win32,60.39741499,,,,,,,,,,,,,,,,,,,,,,,,,,,,,,,,,,,,,,,,,,,,,,,,,,,,,,,,,,,,,,,,,,,,,,,,,,,,,,,,,,,,,,,,,,,,,,,,,,,,,,,,,,,,right,1,0.7278,,,,,,physical,9,4,9 | 4,5,0.05,0.065,incongruent,right,0,36,36,47,1,,,,,,,,,,,,,,,,,,,,,,,,,,,,,,,,,,,,,,,,,,,,,
,517308643925,BCA,02/02/1998,001,2023-10-19_19h22.09.155,OS3_Mult_verification,2022.2.4,Win32,60.39741499,,,,,,,,,,,,,,,,,,,,,,,,,,,,,,,,,,,,,,,,,,,,,,,,,,,,,,,,,,,,,,,,,,,,,,,,,,,,,,,,,,,,,,,,,,,,,,,,,,,,,,,,,,,,left,1,0.484,,,,,,physical,1,1,1 | 1,0,0.065,0.05,neutral,left,0,37,37,64,1,,,,,,,,,,,,,,,,,,,,,,,,,,,,,,,,,,,,,,,,,,,,,
,517308643925,BCA,02/02/1998,001,2023-10-19_19h22.09.155,OS3_Mult_verification,2022.2.4,Win32,60.39741499,,,,,,,,,,,,,,,,,,,,,,,,,,,,,,,,,,,,,,,,,,,,,,,,,,,,,,,,,,,,,,,,,,,,,,,,,,,,,,,,,,,,,,,,,,,,,,,,,,,,,,,,,,,,right,1,0.5353,,,,,,physical,9,8,9 | 8,1,0.05,0.065,incongruent,right,0,38,38,31,1,,,,,,,,,,,,,,,,,,,,,,,,,,,,,,,,,,,,,,,,,,,,,
,517308643925,BCA,02/02/1998,001,2023-10-19_19h22.09.155,OS3_Mult_verification,2022.2.4,Win32,60.39741499,,,,,,,,,,,,,,,,,,,,,,,,,,,,,,,,,,,,,,,,,,,,,,,,,,,,,,,,,,,,,,,,,,,,,,,,,,,,,,,,,,,,,,,,,,,,,,,,,,,,,,,,,,,,left,1,0.4488,,,,,,physical,3,1,3 | 1,2,0.065,0.05,congruent,left,0,39,39,12,1,,,,,,,,,,,,,,,,,,,,,,,,,,,,,,,,,,,,,,,,,,,,,
,517308643925,BCA,02/02/1998,001,2023-10-19_19h22.09.155,OS3_Mult_verification,2022.2.4,Win32,60.39741499,,,,,,,,,,,,,,,,,,,,,,,,,,,,,,,,,,,,,,,,,,,,,,,,,,,,,,,,,,,,,,,,,,,,,,,,,,,,,,,,,,,,,,,,,,,,,,,,,,,,,,,,,,,,left,0,0.501,,,,,,physical,6,1,6 | 1,5,0.05,0.065,incongruent,right,0,40,40,44,1,,,,,,,,,,,,,,,,,,,,,,,,,,,,,,,,,,,,,,,,,,,,,
,517308643925,BCA,02/02/1998,001,2023-10-19_19h22.09.155,OS3_Mult_verification,2022.2.4,Win32,60.39741499,,,,,,,,,,,,,,,,,,,,,,,,,,,,,,,,,,,,,,,,,,,,,,,,,,,,,,,,,,,,,,,,,,,,,,,,,,,,,,,,,,,,,,,,,,,,,,,,,,,,,,,,,,,,left,1,0.4898,,,,,,physical,3,3,3 | 3,0,0.065,0.05,neutral,left,0,41,41,49,1,,,,,,,,,,,,,,,,,,,,,,,,,,,,,,,,,,,,,,,,,,,,,
,517308643925,BCA,02/02/1998,001,2023-10-19_19h22.09.155,OS3_Mult_verification,2022.2.4,Win32,60.39741499,,,,,,,,,,,,,,,,,,,,,,,,,,,,,,,,,,,,,,,,,,,,,,,,,,,,,,,,,,,,,,,,,,,,,,,,,,,,,,,,,,,,,,,,,,,,,,,,,,,,,,,,,,,,right,1,0.5387,,,,,,physical,6,6,6 | 6,0,0.05,0.065,neutral,right,0,42,42,58,1,,,,,,,,,,,,,,,,,,,,,,,,,,,,,,,,,,,,,,,,,,,,,
,517308643925,BCA,02/02/1998,001,2023-10-19_19h22.09.155,OS3_Mult_verification,2022.2.4,Win32,60.39741499,,,,,,,,,,,,,,,,,,,,,,,,,,,,,,,,,,,,,,,,,,,,,,,,,,,,,,,,,,,,,,,,,,,,,,,,,,,,,,,,,,,,,,,,,,,,,,,,,,,,,,,,,,,,right,1,1.0521,,,,,,physical,2,1,2 | 1,1,0.05,0.065,incongruent,right,0,43,43,28,1,,,,,,,,,,,,,,,,,,,,,,,,,,,,,,,,,,,,,,,,,,,,,
,517308643925,BCA,02/02/1998,001,2023-10-19_19h22.09.155,OS3_Mult_verification,2022.2.4,Win32,60.39741499,,,,,,,,,,,,,,,,,,,,,,,,,,,,,,,,,,,,,,,,,,,,,,,,,,,,,,,,,,,,,,,,,,,,,,,,,,,,,,,,,,,,,,,,,,,,,,,,,,,,,,,,,,,,right,1,0.8526,,,,,,physical,8,3,8 | 3,5,0.05,0.065,incongruent,right,0,44,44,46,1,,,,,,,,,,,,,,,,,,,,,,,,,,,,,,,,,,,,,,,,,,,,,
,517308643925,BCA,02/02/1998,001,2023-10-19_19h22.09.155,OS3_Mult_verification,2022.2.4,Win32,60.39741499,,,,,,,,,,,,,,,,,,,,,,,,,,,,,,,,,,,,,,,,,,,,,,,,,,,,,,,,,,,,,,,,,,,,,,,,,,,,,,,,,,,,,,,,,,,,,,,,,,,,,,,,,,,,left,1,0.5,,,,,,physical,6,8,6 | 8,2,0.065,0.05,incongruent,left,0,45,45,34,1,,,,,,,,,,,,,,,,,,,,,,,,,,,,,,,,,,,,,,,,,,,,,
,517308643925,BCA,02/02/1998,001,2023-10-19_19h22.09.155,OS3_Mult_verification,2022.2.4,Win32,60.39741499,,,,,,,,,,,,,,,,,,,,,,,,,,,,,,,,,,,,,,,,,,,,,,,,,,,,,,,,,,,,,,,,,,,,,,,,,,,,,,,,,,,,,,,,,,,,,,,,,,,,,,,,,,,,right,1,0.5187,,,,,,physical,8,6,8 | 6,2,0.05,0.065,incongruent,right,0,46,46,38,1,,,,,,,,,,,,,,,,,,,,,,,,,,,,,,,,,,,,,,,,,,,,,
,517308643925,BCA,02/02/1998,001,2023-10-19_19h22.09.155,OS3_Mult_verification,2022.2.4,Win32,60.39741499,,,,,,,,,,,,,,,,,,,,,,,,,,,,,,,,,,,,,,,,,,,,,,,,,,,,,,,,,,,,,,,,,,,,,,,,,,,,,,,,,,,,,,,,,,,,,,,,,,,,,,,,,,,,right,1,0.5526,,,,,,physical,8,8,8 | 8,0,0.05,0.065,neutral,right,0,47,47,62,1,,,,,,,,,,,,,,,,,,,,,,,,,,,,,,,,,,,,,,,,,,,,,
,517308643925,BCA,02/02/1998,001,2023-10-19_19h22.09.155,OS3_Mult_verification,2022.2.4,Win32,60.39741499,,,,,,,,,,,,,,,,,,,,,,,,,,,,,,,,,,,,,,,,,,,,,,,,,,,,,,,,,,,,,,,,,,,,,,,,,,,,,,,,,,,,,,,,,,,,,,,,,,,,,,,,,,,,right,1,0.8923,,,,,,physical,7,6,7 | 6,1,0.05,0.065,incongruent,right,0,48,48,30,1,,,,,,,,,,,,,,,,,,,,,,,,,,,,,,,,,,,,,,,,,,,,,
,517308643925,BCA,02/02/1998,001,2023-10-19_19h22.09.155,OS3_Mult_verification,2022.2.4,Win32,60.39741499,,,,,,,,,,,,,,,,,,,,,,,,,,,,,,,,,,,,,,,,,,,,,,,,,,,,,,,,,,,,,,,,,,,,,,,,,,,,,,,,,,,,,,,,,,,,,,,,,,,,,,,,,,,,left,1,0.5422,,,,,,physical,1,6,1 | 6,5,0.065,0.05,incongruent,left,0,49,49,40,1,,,,,,,,,,,,,,,,,,,,,,,,,,,,,,,,,,,,,,,,,,,,,
,517308643925,BCA,02/02/1998,001,2023-10-19_19h22.09.155,OS3_Mult_verification,2022.2.4,Win32,60.39741499,,,,,,,,,,,,,,,,,,,,,,,,,,,,,,,,,,,,,,,,,,,,,,,,,,,,,,,,,,,,,,,,,,,,,,,,,,,,,,,,,,,,,,,,,,,,,,,,,,,,,,,,,,,,left,1,0.7018,,,,,,physical,3,8,3 | 8,5,0.065,0.05,incongruent,left,0,50,50,42,1,,,,,,,,,,,,,,,,,,,,,,,,,,,,,,,,,,,,,,,,,,,,,
,517308643925,BCA,02/02/1998,001,2023-10-19_19h22.09.155,OS3_Mult_verification,2022.2.4,Win32,60.39741499,,,,,,,,,,,,,,,,,,,,,,,,,,,,,,,,,,,,,,,,,,,,,,,,,,,,,,,,,,,,,,,,,,,,,,,,,,,,,,,,,,,,,,,,,,,,,,,,,,,,,,,,,,,,right,1,0.5055,,,,,,physical,1,2,1 | 2,1,0.05,0.065,congruent,right,0,51,51,0,1,,,,,,,,,,,,,,,,,,,,,,,,,,,,,,,,,,,,,,,,,,,,,
,517308643925,BCA,02/02/1998,001,2023-10-19_19h22.09.155,OS3_Mult_verification,2022.2.4,Win32,60.39741499,,,,,,,,,,,,,,,,,,,,,,,,,,,,,,,,,,,,,,,,,,,,,,,,,,,,,,,,,,,,,,,,,,,,,,,,,,,,,,,,,,,,,,,,,,,,,,,,,,,,,,,,,,,,left,1,0.4835,,,,,,physical,1,2,1 | 2,1,0.065,0.05,incongruent,left,0,52,52,24,1,,,,,,,,,,,,,,,,,,,,,,,,,,,,,,,,,,,,,,,,,,,,,
,517308643925,BCA,02/02/1998,001,2023-10-19_19h22.09.155,OS3_Mult_verification,2022.2.4,Win32,60.39741499,,,,,,,,,,,,,,,,,,,,,,,,,,,,,,,,,,,,,,,,,,,,,,,,,,,,,,,,,,,,,,,,,,,,,,,,,,,,,,,,,,,,,,,,,,,,,,,,,,,,,,,,,,,,left,1,0.5742,,,,,,physical,1,1,1 | 1,0,0.065,0.05,neutral,left,0,53,53,48,1,,,,,,,,,,,,,,,,,,,,,,,,,,,,,,,,,,,,,,,,,,,,,
,517308643925,BCA,02/02/1998,001,2023-10-19_19h22.09.155,OS3_Mult_verification,2022.2.4,Win32,60.39741499,,,,,,,,,,,,,,,,,,,,,,,,,,,,,,,,,,,,,,,,,,,,,,,,,,,,,,,,,,,,,,,,,,,,,,,,,,,,,,,,,,,,,,,,,,,,,,,,,,,,,,,,,,,,left,1,0.5068,,,,,,physical,9,8,9 | 8,1,0.065,0.05,congruent,left,0,54,54,7,1,,,,,,,,,,,,,,,,,,,,,,,,,,,,,,,,,,,,,,,,,,,,,
,517308643925,BCA,02/02/1998,001,2023-10-19_19h22.09.155,OS3_Mult_verification,2022.2.4,Win32,60.39741499,,,,,,,,,,,,,,,,,,,,,,,,,,,,,,,,,,,,,,,,,,,,,,,,,,,,,,,,,,,,,,,,,,,,,,,,,,,,,,,,,,,,,,,,,,,,,,,,,,,,,,,,,,,,left,1,0.8862,,,,,,physical,6,7,6 | 7,1,0.065,0.05,incongruent,left,0,55,55,26,1,,,,,,,,,,,,,,,,,,,,,,,,,,,,,,,,,,,,,,,,,,,,,
,517308643925,BCA,02/02/1998,001,2023-10-19_19h22.09.155,OS3_Mult_verification,2022.2.4,Win32,60.39741499,,,,,,,,,,,,,,,,,,,,,,,,,,,,,,,,,,,,,,,,,,,,,,,,,,,,,,,,,,,,,,,,,,,,,,,,,,,,,,,,,,,,,,,,,,,,,,,,,,,,,,,,,,,,right,1,0.5265,,,,,,physical,9,9,9 | 9,0,0.05,0.065,neutral,right,0,56,56,63,1,,,,,,,,,,,,,,,,,,,,,,,,,,,,,,,,,,,,,,,,,,,,,
,517308643925,BCA,02/02/1998,001,2023-10-19_19h22.09.155,OS3_Mult_verification,2022.2.4,Win32,60.39741499,,,,,,,,,,,,,,,,,,,,,,,,,,,,,,,,,,,,,,,,,,,,,,,,,,,,,,,,,,,,,,,,,,,,,,,,,,,,,,,,,,,,,,,,,,,,,,,,,,,,,,,,,,,,left,1,0.6506,,,,,,physical,4,9,4 | 9,5,0.065,0.05,incongruent,left,0,57,57,43,1,,,,,,,,,,,,,,,,,,,,,,,,,,,,,,,,,,,,,,,,,,,,,
,517308643925,BCA,02/02/1998,001,2023-10-19_19h22.09.155,OS3_Mult_verification,2022.2.4,Win32,60.39741499,,,,,,,,,,,,,,,,,,,,,,,,,,,,,,,,,,,,,,,,,,,,,,,,,,,,,,,,,,,,,,,,,,,,,,,,,,,,,,,,,,,,,,,,,,,,,,,,,,,,,,,,,,,,right,1,0.5184,,,,,,physical,4,4,4 | 4,0,0.05,0.065,neutral,right,0,58,58,61,1,,,,,,,,,,,,,,,,,,,,,,,,,,,,,,,,,,,,,,,,,,,,,
,517308643925,BCA,02/02/1998,001,2023-10-19_19h22.09.155,OS3_Mult_verification,2022.2.4,Win32,60.39741499,,,,,,,,,,,,,,,,,,,,,,,,,,,,,,,,,,,,,,,,,,,,,,,,,,,,,,,,,,,,,,,,,,,,,,,,,,,,,,,,,,,,,,,,,,,,,,,,,,,,,,,,,,,,left,1,0.4215,,,,,,physical,2,1,2 | 1,1,0.065,0.05,congruent,left,0,59,59,4,1,,,,,,,,,,,,,,,,,,,,,,,,,,,,,,,,,,,,,,,,,,,,,
