windowSize,participant,group,DOB (DD/MM/YEAR),session,date,expName,psychopyVersion,OS,frameRate,typing_instr_resp.keys,typing_instr_resp.rt,typing_response,typing_rt,typing_score,typingSpeed_input_resp.keys,typingSpeed_input_resp.rt,typing_speed_trials.thisRepN,typing_speed_trials.thisTrialN,typing_speed_trials.thisN,typing_speed_trials.thisIndex,typing_speed_trials.ran,typing_speed_stim,typing_report_resp.keys,typing_report_resp.rt,vpt_trial_resp1.keys,vpt_trial_resp1.rt,typedResponse,fluency_rt,fluency_score,fluencyInputResp.keys,fluencyInputResp.rt,fluencyPracLoop.thisRepN,fluencyPracLoop.thisTrialN,fluencyPracLoop.thisN,fluencyPracLoop.thisIndex,fluencyPracLoop.ran,problem,answers,fluencyLoop.thisRepN,fluencyLoop.thisTrialN,fluencyLoop.thisN,fluencyLoop.thisIndex,fluencyLoop.ran,vptCorrect,vpt_rt,respMouse.x,respMouse.y,respMouse.leftButton,respMouse.midButton,respMouse.rightButton,vptPracticeLoop.thisRepN,vptPracticeLoop.thisTrialN,vptPracticeLoop.thisN,vptPracticeLoop.thisIndex,vptPracticeLoop.ran,trialType,tiles,rows,cols,vptTrialLoop.thisRepN,vptTrialLoop.thisTrialN,vptTrialLoop.thisN,vptTrialLoop.thisIndex,vptTrialLoop.ran,noOfBlocks,TASK_B.thisRepN,TASK_B.thisTrialN,TASK_B.thisN,TASK_B.thisIndex,TASK_B.ran,controlTaskOrder.thisRepN,controlTaskOrder.thisTrialN,controlTaskOrder.thisN,controlTaskOrder.thisIndex,controlTaskOrder.ran,nRepsTask1,nRepsTask2,nRepsTask3,stroopResp.keys,stroopResp.corr,stroopResp.rt,stroopPracLoop.thisRepN,stroopPracLoop.thisTrialN,stroopPracLoop.thisN,stroopPracLoop.thisIndex,stroopPracLoop.ran,stroopCond,leftNo,rightNo,displayProblem,numDistance,leftNo_size,rightNo_size,Dims,keyAnswer,stroopLoop.thisRepN,stroopLoop.thisTrialN,stroopLoop.thisN,stroopLoop.thisIndex,stroopLoop.ran,stroopBlocks.thisRepN,stroopBlocks.thisTrialN,stroopBlocks.thisN,stroopBlocks.thisIndex,stroopBlocks.ran,stroop_condition,stroop_pracFile,ActionInst,instrImage,TASK_A.thisRepN,TASK_A.thisTrialN,TASK_A.thisN,TASK_A.thisIndex,TASK_A.ran,sampleAudio_resp.keys,sampleAudio_resp.rt,subjResponse,audio_rt,DS_score,inputResp.keys,inputResp.rt,audioPracticeLoop.thisRepN,audioPracticeLoop.thisTrialN,audioPracticeLoop.thisN,audioPracticeLoop.thisIndex,audioPracticeLoop.ran,digitSpan,digits_audioStim,soundsFile,typeDS,audioTrials_Loop.thisRepN,audioTrials_Loop.thisTrialN,audioTrials_Loop.thisN,audioTrials_Loop.thisIndex,audioTrials_Loop.ran,audioBlocks_loop.thisRepN,audioBlocks_loop.thisTrialN,audioBlocks_loop.thisN,audioBlocks_loop.thisIndex,audioBlocks_loop.ran,ConditionFile,digitSpanTask_loop.thisRepN,digitSpanTask_loop.thisTrialN,digitSpanTask_loop.thisN,digitSpanTask_loop.thisIndex,digitSpanTask_loop.ran,dsFile,TASK_C.thisRepN,TASK_C.thisTrialN,TASK_C.thisN,TASK_C.thisIndex,TASK_C.ran,veriStim_resp.keys,veriStim_resp.corr,veriStim_resp.rt,verificationPracLoop.thisRepN,verificationPracLoop.thisTrialN,verificationPracLoop.thisN,verificationPracLoop.thisIndex,verificationPracLoop.ran,mult_problem,mult_answer,mult_type,error_distance,interferenceScore,problemType,interferenceLevel,problemSize,img_leftButton,img_rightButton,veriLoop.thisRepN,veriLoop.thisTrialN,veriLoop.thisN,veriLoop.thisIndex,veriLoop.ran,veriBlock.thisRepN,veriBlock.thisTrialN,veriBlock.thisN,veriBlock.thisIndex,veriBlock.ran,verificationFiles,end_resp.keys,end_resp.rt
"[1280,595]",822385097411,BAC,22/07/2003,001,2023-11-22_24h15.29.547,OS3_Mult_verification,2022.2.4,Win32,59.93048064,,,,,,,,,,,,,,,,,,,,,,,,,,,,,,,,,,,,,,,,,,,,,,,,,,,,,,,,,,,,,,,,,,,,,,,,,,,,,,,,,,,,,,,,,,,,,,,,,,,,,,,,,,,,,,,,,,,,,,,,,,,,,,,,,,,,,,,,,,,,,,,,,,,,,,,,,,,,,,,,,,,,,,,,,,,,,,
,822385097411,BAC,22/07/2003,001,2023-11-22_24h15.29.547,OS3_Mult_verification,2022.2.4,Win32,59.93048064,,,,,,,,,,,,,,,,,,,,,,,,,,,,,,,,,,,,,,,,,,,,,,,,,,,,,,,,,,,,,,,,,,,,,,,,,,,,,,,,,,,,,,,,,,,,,,,,,,,,,,,,,,,,,,,,,,,,,,,,,,,,,,,,,,,,,,,,,,,,,,,,,,,,,,,,,,,,,,,,,,,,,,,,,,,,,,
,822385097411,BAC,22/07/2003,001,2023-11-22_24h15.29.547,OS3_Mult_verification,2022.2.4,Win32,59.93048064,space,41.8036,,,,,,,,,,,,,,,,,,,,,,,,,,,,,,,,,,,,,,,,,,,,,,,,,,,,,,,,,,,,,,,,,,,,,,,,,,,,,,,,,,,,,,,,,,,,,,,,,,,,,,,,,,,,,,,,,,,,,,,,,,,,,,,,,,,,,,,,,,,,,,,,,,,,,,,,,,,,,,,,,,,,,,,,,,,,
,822385097411,BAC,22/07/2003,001,2023-11-22_24h15.29.547,OS3_Mult_verification,2022.2.4,Win32,59.93048064,,,54,5.9146,1,"[""5"",""4"",""return""]","[1.5301000000089573,1.6192000000029907,5.877700000002974]",0,0,0,25,1,54,,,,,,,,,,,,,,,,,,,,,,,,,,,,,,,,,,,,,,,,,,,,,,,,,,,,,,,,,,,,,,,,,,,,,,,,,,,,,,,,,,,,,,,,,,,,,,,,,,,,,,,,,,,,,,,,,,,,,,,,,,,,,,,,,,,,,,,,,,,,,,,,,,,,,,,,,,,,,,,,,
,822385097411,BAC,22/07/2003,001,2023-11-22_24h15.29.547,OS3_Mult_verification,2022.2.4,Win32,59.93048064,,,27,2.6349,1,"[""2"",""7"",""return""]","[1.4390999999940561,1.98839999999106,2.58450000000002]",0,1,1,14,1,27,,,,,,,,,,,,,,,,,,,,,,,,,,,,,,,,,,,,,,,,,,,,,,,,,,,,,,,,,,,,,,,,,,,,,,,,,,,,,,,,,,,,,,,,,,,,,,,,,,,,,,,,,,,,,,,,,,,,,,,,,,,,,,,,,,,,,,,,,,,,,,,,,,,,,,,,,,,,,,,,,
,822385097411,BAC,22/07/2003,001,2023-11-22_24h15.29.547,OS3_Mult_verification,2022.2.4,Win32,59.93048064,,,10,1.633,1,"[""1"",""0"",""return""]","[0.6391000000089377,1.163000000000011,1.5931000000089455]",0,2,2,4,1,10,,,,,,,,,,,,,,,,,,,,,,,,,,,,,,,,,,,,,,,,,,,,,,,,,,,,,,,,,,,,,,,,,,,,,,,,,,,,,,,,,,,,,,,,,,,,,,,,,,,,,,,,,,,,,,,,,,,,,,,,,,,,,,,,,,,,,,,,,,,,,,,,,,,,,,,,,,,,,,,,,
,822385097411,BAC,22/07/2003,001,2023-11-22_24h15.29.547,OS3_Mult_verification,2022.2.4,Win32,59.93048064,,,28,1.4198,1,"[""2"",""8"",""return""]","[0.7007999999970025,1.087799999997003,1.3839000000059514]",0,3,3,15,1,28,,,,,,,,,,,,,,,,,,,,,,,,,,,,,,,,,,,,,,,,,,,,,,,,,,,,,,,,,,,,,,,,,,,,,,,,,,,,,,,,,,,,,,,,,,,,,,,,,,,,,,,,,,,,,,,,,,,,,,,,,,,,,,,,,,,,,,,,,,,,,,,,,,,,,,,,,,,,,,,,,
,822385097411,BAC,22/07/2003,001,2023-11-22_24h15.29.547,OS3_Mult_verification,2022.2.4,Win32,59.93048064,,,36,1.2325,1,"[""3"",""6"",""return""]","[0.7104999999999961,1.0489000000059434,1.2001000000089448]",0,4,4,19,1,36,,,,,,,,,,,,,,,,,,,,,,,,,,,,,,,,,,,,,,,,,,,,,,,,,,,,,,,,,,,,,,,,,,,,,,,,,,,,,,,,,,,,,,,,,,,,,,,,,,,,,,,,,,,,,,,,,,,,,,,,,,,,,,,,,,,,,,,,,,,,,,,,,,,,,,,,,,,,,,,,,
,822385097411,BAC,22/07/2003,001,2023-11-22_24h15.29.547,OS3_Mult_verification,2022.2.4,Win32,59.93048064,,,8,1.2626,1,"[""8"",""return""]","[1.0850999999940427,1.218500000000006]",0,5,5,2,1,8,,,,,,,,,,,,,,,,,,,,,,,,,,,,,,,,,,,,,,,,,,,,,,,,,,,,,,,,,,,,,,,,,,,,,,,,,,,,,,,,,,,,,,,,,,,,,,,,,,,,,,,,,,,,,,,,,,,,,,,,,,,,,,,,,,,,,,,,,,,,,,,,,,,,,,,,,,,,,,,,,
,822385097411,BAC,22/07/2003,001,2023-11-22_24h15.29.547,OS3_Mult_verification,2022.2.4,Win32,59.93048064,,,48,1.4194,1,"[""4"",""8"",""return""]","[0.8987999999970384,1.2035000000000196,1.3837999999970236]",0,6,6,23,1,48,,,,,,,,,,,,,,,,,,,,,,,,,,,,,,,,,,,,,,,,,,,,,,,,,,,,,,,,,,,,,,,,,,,,,,,,,,,,,,,,,,,,,,,,,,,,,,,,,,,,,,,,,,,,,,,,,,,,,,,,,,,,,,,,,,,,,,,,,,,,,,,,,,,,,,,,,,,,,,,,,
,822385097411,BAC,22/07/2003,001,2023-11-22_24h15.29.547,OS3_Mult_verification,2022.2.4,Win32,59.93048064,,,9,1.0835,1,"[""9"",""return""]","[0.8857999999970048,1.0420999999940364]",0,7,7,3,1,9,,,,,,,,,,,,,,,,,,,,,,,,,,,,,,,,,,,,,,,,,,,,,,,,,,,,,,,,,,,,,,,,,,,,,,,,,,,,,,,,,,,,,,,,,,,,,,,,,,,,,,,,,,,,,,,,,,,,,,,,,,,,,,,,,,,,,,,,,,,,,,,,,,,,,,,,,,,,,,,,,
,822385097411,BAC,22/07/2003,001,2023-11-22_24h15.29.547,OS3_Mult_verification,2022.2.4,Win32,59.93048064,,,56,1.2659,1,"[""5"",""6"",""return""]","[0.8448999999910711,1.1005999999940457,1.2190999999940573]",0,8,8,26,1,56,,,,,,,,,,,,,,,,,,,,,,,,,,,,,,,,,,,,,,,,,,,,,,,,,,,,,,,,,,,,,,,,,,,,,,,,,,,,,,,,,,,,,,,,,,,,,,,,,,,,,,,,,,,,,,,,,,,,,,,,,,,,,,,,,,,,,,,,,,,,,,,,,,,,,,,,,,,,,,,,,
,822385097411,BAC,22/07/2003,001,2023-11-22_24h15.29.547,OS3_Mult_verification,2022.2.4,Win32,59.93048064,,,16,1.2957,1,"[""1"",""6"",""return""]","[0.7087999999970123,1.0738999999910561,1.2537999999970282]",0,9,9,8,1,16,,,,,,,,,,,,,,,,,,,,,,,,,,,,,,,,,,,,,,,,,,,,,,,,,,,,,,,,,,,,,,,,,,,,,,,,,,,,,,,,,,,,,,,,,,,,,,,,,,,,,,,,,,,,,,,,,,,,,,,,,,,,,,,,,,,,,,,,,,,,,,,,,,,,,,,,,,,,,,,,,
,822385097411,BAC,22/07/2003,001,2023-11-22_24h15.29.547,OS3_Mult_verification,2022.2.4,Win32,59.93048064,,,49,1.483,1,"[""4"",""9"",""return""]","[0.9509000000059586,1.2757000000029848,1.4347000000029766]",0,10,10,24,1,49,,,,,,,,,,,,,,,,,,,,,,,,,,,,,,,,,,,,,,,,,,,,,,,,,,,,,,,,,,,,,,,,,,,,,,,,,,,,,,,,,,,,,,,,,,,,,,,,,,,,,,,,,,,,,,,,,,,,,,,,,,,,,,,,,,,,,,,,,,,,,,,,,,,,,,,,,,,,,,,,,
,822385097411,BAC,22/07/2003,001,2023-11-22_24h15.29.547,OS3_Mult_verification,2022.2.4,Win32,59.93048064,,,72,2.0331,1,"[""7"",""2"",""return""]","[1.0714999999999861,1.7556000000089398,1.988400000005953]",0,11,11,29,1,72,,,,,,,,,,,,,,,,,,,,,,,,,,,,,,,,,,,,,,,,,,,,,,,,,,,,,,,,,,,,,,,,,,,,,,,,,,,,,,,,,,,,,,,,,,,,,,,,,,,,,,,,,,,,,,,,,,,,,,,,,,,,,,,,,,,,,,,,,,,,,,,,,,,,,,,,,,,,,,,,,
,822385097411,BAC,22/07/2003,001,2023-11-22_24h15.29.547,OS3_Mult_verification,2022.2.4,Win32,59.93048064,,,25,1.4527,1,"[""2"",""5"",""return""]","[0.9865000000000066,1.23599999999999,1.4131000000089387]",0,12,12,13,1,25,,,,,,,,,,,,,,,,,,,,,,,,,,,,,,,,,,,,,,,,,,,,,,,,,,,,,,,,,,,,,,,,,,,,,,,,,,,,,,,,,,,,,,,,,,,,,,,,,,,,,,,,,,,,,,,,,,,,,,,,,,,,,,,,,,,,,,,,,,,,,,,,,,,,,,,,,,,,,,,,,
,822385097411,BAC,22/07/2003,001,2023-11-22_24h15.29.547,OS3_Mult_verification,2022.2.4,Win32,59.93048064,,,21,0.9795,1,"[""2"",""1"",""return""]","[0.6362999999970214,0.8004000000059364,0.9347999999970114]",0,13,13,11,1,21,,,,,,,,,,,,,,,,,,,,,,,,,,,,,,,,,,,,,,,,,,,,,,,,,,,,,,,,,,,,,,,,,,,,,,,,,,,,,,,,,,,,,,,,,,,,,,,,,,,,,,,,,,,,,,,,,,,,,,,,,,,,,,,,,,,,,,,,,,,,,,,,,,,,,,,,,,,,,,,,,
,822385097411,BAC,22/07/2003,001,2023-11-22_24h15.29.547,OS3_Mult_verification,2022.2.4,Win32,59.93048064,,,12,1.0132,1,"[""1"",""2"",""return""]","[0.6852000000029648,0.8058000000119137,0.9754999999999825]",0,14,14,5,1,12,,,,,,,,,,,,,,,,,,,,,,,,,,,,,,,,,,,,,,,,,,,,,,,,,,,,,,,,,,,,,,,,,,,,,,,,,,,,,,,,,,,,,,,,,,,,,,,,,,,,,,,,,,,,,,,,,,,,,,,,,,,,,,,,,,,,,,,,,,,,,,,,,,,,,,,,,,,,,,,,,
,822385097411,BAC,22/07/2003,001,2023-11-22_24h15.29.547,OS3_Mult_verification,2022.2.4,Win32,59.93048064,,,35,1.0802,1,"[""3"",""5"",""return""]","[0.7065999999940402,0.9185999999940293,1.0406999999880782]",0,15,15,18,1,35,,,,,,,,,,,,,,,,,,,,,,,,,,,,,,,,,,,,,,,,,,,,,,,,,,,,,,,,,,,,,,,,,,,,,,,,,,,,,,,,,,,,,,,,,,,,,,,,,,,,,,,,,,,,,,,,,,,,,,,,,,,,,,,,,,,,,,,,,,,,,,,,,,,,,,,,,,,,,,,,,
,822385097411,BAC,22/07/2003,001,2023-11-22_24h15.29.547,OS3_Mult_verification,2022.2.4,Win32,59.93048064,,,15,1.0661,1,"[""1"",""5"",""return""]","[0.6514999999999986,0.9187999999970202,1.0257999999970195]",0,16,16,7,1,15,,,,,,,,,,,,,,,,,,,,,,,,,,,,,,,,,,,,,,,,,,,,,,,,,,,,,,,,,,,,,,,,,,,,,,,,,,,,,,,,,,,,,,,,,,,,,,,,,,,,,,,,,,,,,,,,,,,,,,,,,,,,,,,,,,,,,,,,,,,,,,,,,,,,,,,,,,,,,,,,,
,822385097411,BAC,22/07/2003,001,2023-11-22_24h15.29.547,OS3_Mult_verification,2022.2.4,Win32,59.93048064,,,32,1.0165,1,"[""3"",""2"",""return""]","[0.7189999999999941,0.8392000000029896,0.9787999999970225]",0,17,17,17,1,32,,,,,,,,,,,,,,,,,,,,,,,,,,,,,,,,,,,,,,,,,,,,,,,,,,,,,,,,,,,,,,,,,,,,,,,,,,,,,,,,,,,,,,,,,,,,,,,,,,,,,,,,,,,,,,,,,,,,,,,,,,,,,,,,,,,,,,,,,,,,,,,,,,,,,,,,,,,,,,,,,
,822385097411,BAC,22/07/2003,001,2023-11-22_24h15.29.547,OS3_Mult_verification,2022.2.4,Win32,59.93048064,,,64,1.6004,1,"[""6"",""4"",""return""]","[1.016999999999996,1.4194000000059646,1.558800000011928]",0,18,18,28,1,64,,,,,,,,,,,,,,,,,,,,,,,,,,,,,,,,,,,,,,,,,,,,,,,,,,,,,,,,,,,,,,,,,,,,,,,,,,,,,,,,,,,,,,,,,,,,,,,,,,,,,,,,,,,,,,,,,,,,,,,,,,,,,,,,,,,,,,,,,,,,,,,,,,,,,,,,,,,,,,,,,
,822385097411,BAC,22/07/2003,001,2023-11-22_24h15.29.547,OS3_Mult_verification,2022.2.4,Win32,59.93048064,,,4,0.8663,1,"[""4"",""return""]","[0.7234000000059382,0.8229999999999791]",0,19,19,0,1,4,,,,,,,,,,,,,,,,,,,,,,,,,,,,,,,,,,,,,,,,,,,,,,,,,,,,,,,,,,,,,,,,,,,,,,,,,,,,,,,,,,,,,,,,,,,,,,,,,,,,,,,,,,,,,,,,,,,,,,,,,,,,,,,,,,,,,,,,,,,,,,,,,,,,,,,,,,,,,,,,,
,822385097411,BAC,22/07/2003,001,2023-11-22_24h15.29.547,OS3_Mult_verification,2022.2.4,Win32,59.93048064,,,40,1.2834,1,"[""4"",""0"",""return""]","[0.7518999999910534,1.1042999999970107,1.2455999999940275]",0,20,20,20,1,40,,,,,,,,,,,,,,,,,,,,,,,,,,,,,,,,,,,,,,,,,,,,,,,,,,,,,,,,,,,,,,,,,,,,,,,,,,,,,,,,,,,,,,,,,,,,,,,,,,,,,,,,,,,,,,,,,,,,,,,,,,,,,,,,,,,,,,,,,,,,,,,,,,,,,,,,,,,,,,,,,
,822385097411,BAC,22/07/2003,001,2023-11-22_24h15.29.547,OS3_Mult_verification,2022.2.4,Win32,59.93048064,,,14,0.9662,1,"[""1"",""4"",""return""]","[0.6238000000119257,0.8176000000089232,0.918300000011925]",0,21,21,6,1,14,,,,,,,,,,,,,,,,,,,,,,,,,,,,,,,,,,,,,,,,,,,,,,,,,,,,,,,,,,,,,,,,,,,,,,,,,,,,,,,,,,,,,,,,,,,,,,,,,,,,,,,,,,,,,,,,,,,,,,,,,,,,,,,,,,,,,,,,,,,,,,,,,,,,,,,,,,,,,,,,,
,822385097411,BAC,22/07/2003,001,2023-11-22_24h15.29.547,OS3_Mult_verification,2022.2.4,Win32,59.93048064,,,45,1.0529,1,"[""4"",""5"",""return""]","[0.7212999999970009,0.9235999999940248,1.001299999997002]",0,22,22,22,1,45,,,,,,,,,,,,,,,,,,,,,,,,,,,,,,,,,,,,,,,,,,,,,,,,,,,,,,,,,,,,,,,,,,,,,,,,,,,,,,,,,,,,,,,,,,,,,,,,,,,,,,,,,,,,,,,,,,,,,,,,,,,,,,,,,,,,,,,,,,,,,,,,,,,,,,,,,,,,,,,,,
,822385097411,BAC,22/07/2003,001,2023-11-22_24h15.29.547,OS3_Mult_verification,2022.2.4,Win32,59.93048064,,,24,1.0993,1,"[""2"",""4"",""return""]","[0.7517999999970186,0.9516999999880795,1.0512999999970134]",0,23,23,12,1,24,,,,,,,,,,,,,,,,,,,,,,,,,,,,,,,,,,,,,,,,,,,,,,,,,,,,,,,,,,,,,,,,,,,,,,,,,,,,,,,,,,,,,,,,,,,,,,,,,,,,,,,,,,,,,,,,,,,,,,,,,,,,,,,,,,,,,,,,,,,,,,,,,,,,,,,,,,,,,,,,,
,822385097411,BAC,22/07/2003,001,2023-11-22_24h15.29.547,OS3_Mult_verification,2022.2.4,Win32,59.93048064,,,81,1.3977,1,"[""8"",""1"",""return""]","[1.0213999999910754,1.1340999999940493,1.3527999999970177]",0,24,24,30,1,81,,,,,,,,,,,,,,,,,,,,,,,,,,,,,,,,,,,,,,,,,,,,,,,,,,,,,,,,,,,,,,,,,,,,,,,,,,,,,,,,,,,,,,,,,,,,,,,,,,,,,,,,,,,,,,,,,,,,,,,,,,,,,,,,,,,,,,,,,,,,,,,,,,,,,,,,,,,,,,,,,
,822385097411,BAC,22/07/2003,001,2023-11-22_24h15.29.547,OS3_Mult_verification,2022.2.4,Win32,59.93048064,,,18,1.1663,1,"[""1"",""8"",""return""]","[0.6444000000059589,0.9761000000089268,1.1187999999970089]",0,25,25,9,1,18,,,,,,,,,,,,,,,,,,,,,,,,,,,,,,,,,,,,,,,,,,,,,,,,,,,,,,,,,,,,,,,,,,,,,,,,,,,,,,,,,,,,,,,,,,,,,,,,,,,,,,,,,,,,,,,,,,,,,,,,,,,,,,,,,,,,,,,,,,,,,,,,,,,,,,,,,,,,,,,,,
,822385097411,BAC,22/07/2003,001,2023-11-22_24h15.29.547,OS3_Mult_verification,2022.2.4,Win32,59.93048064,,,6,1.0196,1,"[""6"",""return""]","[0.8835999999940327,0.9832000000029666]",0,26,26,1,1,6,,,,,,,,,,,,,,,,,,,,,,,,,,,,,,,,,,,,,,,,,,,,,,,,,,,,,,,,,,,,,,,,,,,,,,,,,,,,,,,,,,,,,,,,,,,,,,,,,,,,,,,,,,,,,,,,,,,,,,,,,,,,,,,,,,,,,,,,,,,,,,,,,,,,,,,,,,,,,,,,,
,822385097411,BAC,22/07/2003,001,2023-11-22_24h15.29.547,OS3_Mult_verification,2022.2.4,Win32,59.93048064,,,63,1.7159,1,"[""6"",""3"",""return""]","[1.0686999999880697,1.5340999999940266,1.669599999994034]",0,27,27,27,1,63,,,,,,,,,,,,,,,,,,,,,,,,,,,,,,,,,,,,,,,,,,,,,,,,,,,,,,,,,,,,,,,,,,,,,,,,,,,,,,,,,,,,,,,,,,,,,,,,,,,,,,,,,,,,,,,,,,,,,,,,,,,,,,,,,,,,,,,,,,,,,,,,,,,,,,,,,,,,,,,,,
,822385097411,BAC,22/07/2003,001,2023-11-22_24h15.29.547,OS3_Mult_verification,2022.2.4,Win32,59.93048064,,,30,1.2798,1,"[""3"",""0"",""return""]","[0.6662999999970225,1.0682999999970377,1.2378999999910718]",0,28,28,16,1,30,,,,,,,,,,,,,,,,,,,,,,,,,,,,,,,,,,,,,,,,,,,,,,,,,,,,,,,,,,,,,,,,,,,,,,,,,,,,,,,,,,,,,,,,,,,,,,,,,,,,,,,,,,,,,,,,,,,,,,,,,,,,,,,,,,,,,,,,,,,,,,,,,,,,,,,,,,,,,,,,,
,822385097411,BAC,22/07/2003,001,2023-11-22_24h15.29.547,OS3_Mult_verification,2022.2.4,Win32,59.93048064,,,20,1.4335,1,"[""2"",""0"",""return""]","[0.8262000000029843,1.1934000000059655,1.3889000000059468]",0,29,29,10,1,20,,,,,,,,,,,,,,,,,,,,,,,,,,,,,,,,,,,,,,,,,,,,,,,,,,,,,,,,,,,,,,,,,,,,,,,,,,,,,,,,,,,,,,,,,,,,,,,,,,,,,,,,,,,,,,,,,,,,,,,,,,,,,,,,,,,,,,,,,,,,,,,,,,,,,,,,,,,,,,,,,
,822385097411,BAC,22/07/2003,001,2023-11-22_24h15.29.547,OS3_Mult_verification,2022.2.4,Win32,59.93048064,,,42,1.1537,1,"[""4"",""2"",""return""]","[0.7688000000119359,0.9672000000029755,1.1172000000029811]",0,30,30,21,1,42,,,,,,,,,,,,,,,,,,,,,,,,,,,,,,,,,,,,,,,,,,,,,,,,,,,,,,,,,,,,,,,,,,,,,,,,,,,,,,,,,,,,,,,,,,,,,,,,,,,,,,,,,,,,,,,,,,,,,,,,,,,,,,,,,,,,,,,,,,,,,,,,,,,,,,,,,,,,,,,,,
,822385097411,BAC,22/07/2003,001,2023-11-22_24h15.29.547,OS3_Mult_verification,2022.2.4,Win32,59.93048064,,,8,1.0035,1,"[""8"",""return""]","[0.8375000000000057,0.9670999999940193]",1,0,31,2,1,8,,,,,,,,,,,,,,,,,,,,,,,,,,,,,,,,,,,,,,,,,,,,,,,,,,,,,,,,,,,,,,,,,,,,,,,,,,,,,,,,,,,,,,,,,,,,,,,,,,,,,,,,,,,,,,,,,,,,,,,,,,,,,,,,,,,,,,,,,,,,,,,,,,,,,,,,,,,,,,,,,
,822385097411,BAC,22/07/2003,001,2023-11-22_24h15.29.547,OS3_Mult_verification,2022.2.4,Win32,59.93048064,,,49,1.4491,1,"[""4"",""9"",""return""]","[0.9026000000089596,1.2855000000000132,1.4112000000029923]",1,1,32,24,1,49,,,,,,,,,,,,,,,,,,,,,,,,,,,,,,,,,,,,,,,,,,,,,,,,,,,,,,,,,,,,,,,,,,,,,,,,,,,,,,,,,,,,,,,,,,,,,,,,,,,,,,,,,,,,,,,,,,,,,,,,,,,,,,,,,,,,,,,,,,,,,,,,,,,,,,,,,,,,,,,,,
,822385097411,BAC,22/07/2003,001,2023-11-22_24h15.29.547,OS3_Mult_verification,2022.2.4,Win32,59.93048064,,,72,1.5629,1,"[""7"",""2"",""return""]","[0.7849999999999966,1.371100000008937,1.5234000000059496]",1,2,33,29,1,72,,,,,,,,,,,,,,,,,,,,,,,,,,,,,,,,,,,,,,,,,,,,,,,,,,,,,,,,,,,,,,,,,,,,,,,,,,,,,,,,,,,,,,,,,,,,,,,,,,,,,,,,,,,,,,,,,,,,,,,,,,,,,,,,,,,,,,,,,,,,,,,,,,,,,,,,,,,,,,,,,
,822385097411,BAC,22/07/2003,001,2023-11-22_24h15.29.547,OS3_Mult_verification,2022.2.4,Win32,59.93048064,,,48,1.1864,1,"[""4"",""8"",""return""]","[0.7034999999999911,1.001299999997002,1.149499999999989]",1,3,34,23,1,48,,,,,,,,,,,,,,,,,,,,,,,,,,,,,,,,,,,,,,,,,,,,,,,,,,,,,,,,,,,,,,,,,,,,,,,,,,,,,,,,,,,,,,,,,,,,,,,,,,,,,,,,,,,,,,,,,,,,,,,,,,,,,,,,,,,,,,,,,,,,,,,,,,,,,,,,,,,,,,,,,
,822385097411,BAC,22/07/2003,001,2023-11-22_24h15.29.547,OS3_Mult_verification,2022.2.4,Win32,59.93048064,,,63,3.8129,1,"[""6"",""2"",""backspace"",""3"",""return""]","[1.3352999999970336,1.5839000000059684,2.8167000000029816,3.0167999999970334,3.7680000000000007]",1,4,35,27,1,63,,,,,,,,,,,,,,,,,,,,,,,,,,,,,,,,,,,,,,,,,,,,,,,,,,,,,,,,,,,,,,,,,,,,,,,,,,,,,,,,,,,,,,,,,,,,,,,,,,,,,,,,,,,,,,,,,,,,,,,,,,,,,,,,,,,,,,,,,,,,,,,,,,,,,,,,,,,,,,,,,
,822385097411,BAC,22/07/2003,001,2023-11-22_24h15.29.547,OS3_Mult_verification,2022.2.4,Win32,59.93048064,,,20,2.149,1,"[""2"",""0"",""return""]","[0.7069000000059589,0.9001000000089334,2.109600000008953]",1,5,36,10,1,20,,,,,,,,,,,,,,,,,,,,,,,,,,,,,,,,,,,,,,,,,,,,,,,,,,,,,,,,,,,,,,,,,,,,,,,,,,,,,,,,,,,,,,,,,,,,,,,,,,,,,,,,,,,,,,,,,,,,,,,,,,,,,,,,,,,,,,,,,,,,,,,,,,,,,,,,,,,,,,,,,
,822385097411,BAC,22/07/2003,001,2023-11-22_24h15.29.547,OS3_Mult_verification,2022.2.4,Win32,59.93048064,,,14,1.2028,1,"[""1"",""4"",""return""]","[0.7333000000119227,0.9764000000059525,1.1587000000029946]",1,6,37,6,1,14,,,,,,,,,,,,,,,,,,,,,,,,,,,,,,,,,,,,,,,,,,,,,,,,,,,,,,,,,,,,,,,,,,,,,,,,,,,,,,,,,,,,,,,,,,,,,,,,,,,,,,,,,,,,,,,,,,,,,,,,,,,,,,,,,,,,,,,,,,,,,,,,,,,,,,,,,,,,,,,,,
,822385097411,BAC,22/07/2003,001,2023-11-22_24h15.29.547,OS3_Mult_verification,2022.2.4,Win32,59.93048064,,,1,1.0824,0,"[""1"",""return""]","[0.610600000008958,1.05030000001193]",1,7,38,8,1,16,,,,,,,,,,,,,,,,,,,,,,,,,,,,,,,,,,,,,,,,,,,,,,,,,,,,,,,,,,,,,,,,,,,,,,,,,,,,,,,,,,,,,,,,,,,,,,,,,,,,,,,,,,,,,,,,,,,,,,,,,,,,,,,,,,,,,,,,,,,,,,,,,,,,,,,,,,,,,,,,,
,822385097411,BAC,22/07/2003,001,2023-11-22_24h15.29.547,OS3_Mult_verification,2022.2.4,Win32,59.93048064,,,54,1.6496,1,"[""5"",""4"",""return""]","[1.03540000000595,1.3017000000029952,1.6169999999999902]",1,8,39,25,1,54,,,,,,,,,,,,,,,,,,,,,,,,,,,,,,,,,,,,,,,,,,,,,,,,,,,,,,,,,,,,,,,,,,,,,,,,,,,,,,,,,,,,,,,,,,,,,,,,,,,,,,,,,,,,,,,,,,,,,,,,,,,,,,,,,,,,,,,,,,,,,,,,,,,,,,,,,,,,,,,,,
,822385097411,BAC,22/07/2003,001,2023-11-22_24h15.29.547,OS3_Mult_verification,2022.2.4,Win32,59.93048064,,,24,1.0294,1,"[""2"",""4"",""return""]","[0.6302000000029864,0.8387999999970077,0.9939999999999998]",1,9,40,12,1,24,,,,,,,,,,,,,,,,,,,,,,,,,,,,,,,,,,,,,,,,,,,,,,,,,,,,,,,,,,,,,,,,,,,,,,,,,,,,,,,,,,,,,,,,,,,,,,,,,,,,,,,,,,,,,,,,,,,,,,,,,,,,,,,,,,,,,,,,,,,,,,,,,,,,,,,,,,,,,,,,,
,822385097411,BAC,22/07/2003,001,2023-11-22_24h15.29.547,OS3_Mult_verification,2022.2.4,Win32,59.93048064,,,12,0.8661,1,"[""1"",""2"",""return""]","[0.5104999999999791,0.6597999999970057,0.8258999999910372]",1,10,41,5,1,12,,,,,,,,,,,,,,,,,,,,,,,,,,,,,,,,,,,,,,,,,,,,,,,,,,,,,,,,,,,,,,,,,,,,,,,,,,,,,,,,,,,,,,,,,,,,,,,,,,,,,,,,,,,,,,,,,,,,,,,,,,,,,,,,,,,,,,,,,,,,,,,,,,,,,,,,,,,,,,,,,
,822385097411,BAC,22/07/2003,001,2023-11-22_24h15.29.547,OS3_Mult_verification,2022.2.4,Win32,59.93048064,,,35,1.2156,1,"[""3"",""5"",""return""]","[0.7785000000000082,0.9577000000029727,1.183599999994044]",1,11,42,18,1,35,,,,,,,,,,,,,,,,,,,,,,,,,,,,,,,,,,,,,,,,,,,,,,,,,,,,,,,,,,,,,,,,,,,,,,,,,,,,,,,,,,,,,,,,,,,,,,,,,,,,,,,,,,,,,,,,,,,,,,,,,,,,,,,,,,,,,,,,,,,,,,,,,,,,,,,,,,,,,,,,,
,822385097411,BAC,22/07/2003,001,2023-11-22_24h15.29.547,OS3_Mult_verification,2022.2.4,Win32,59.93048064,,,42,1.3529,1,"[""4"",""2"",""return""]","[0.7599000000059561,1.0134000000059586,1.3167999999970164]",1,12,43,21,1,42,,,,,,,,,,,,,,,,,,,,,,,,,,,,,,,,,,,,,,,,,,,,,,,,,,,,,,,,,,,,,,,,,,,,,,,,,,,,,,,,,,,,,,,,,,,,,,,,,,,,,,,,,,,,,,,,,,,,,,,,,,,,,,,,,,,,,,,,,,,,,,,,,,,,,,,,,,,,,,,,,
,822385097411,BAC,22/07/2003,001,2023-11-22_24h15.29.547,OS3_Mult_verification,2022.2.4,Win32,59.93048064,,,36,1.5293,1,"[""3"",""6"",""return""]","[0.6677999999970154,1.0749999999999886,1.5000999999940348]",1,13,44,19,1,36,,,,,,,,,,,,,,,,,,,,,,,,,,,,,,,,,,,,,,,,,,,,,,,,,,,,,,,,,,,,,,,,,,,,,,,,,,,,,,,,,,,,,,,,,,,,,,,,,,,,,,,,,,,,,,,,,,,,,,,,,,,,,,,,,,,,,,,,,,,,,,,,,,,,,,,,,,,,,,,,,
,822385097411,BAC,22/07/2003,001,2023-11-22_24h15.29.547,OS3_Mult_verification,2022.2.4,Win32,59.93048064,,,64,1.5656,1,"[""6"",""4"",""return""]","[0.9287000000030048,1.3074000000059698,1.5274000000059686]",1,14,45,28,1,64,,,,,,,,,,,,,,,,,,,,,,,,,,,,,,,,,,,,,,,,,,,,,,,,,,,,,,,,,,,,,,,,,,,,,,,,,,,,,,,,,,,,,,,,,,,,,,,,,,,,,,,,,,,,,,,,,,,,,,,,,,,,,,,,,,,,,,,,,,,,,,,,,,,,,,,,,,,,,,,,,
,822385097411,BAC,22/07/2003,001,2023-11-22_24h15.29.547,OS3_Mult_verification,2022.2.4,Win32,59.93048064,,,4,1.0162,1,"[""4"",""return""]","[0.8192999999970141,0.9780999999940434]",1,15,46,0,1,4,,,,,,,,,,,,,,,,,,,,,,,,,,,,,,,,,,,,,,,,,,,,,,,,,,,,,,,,,,,,,,,,,,,,,,,,,,,,,,,,,,,,,,,,,,,,,,,,,,,,,,,,,,,,,,,,,,,,,,,,,,,,,,,,,,,,,,,,,,,,,,,,,,,,,,,,,,,,,,,,,
,822385097411,BAC,22/07/2003,001,2023-11-22_24h15.29.547,OS3_Mult_verification,2022.2.4,Win32,59.93048064,,,18,1.4996,1,"[""1"",""8"",""return""]","[0.8847000000029936,1.2845000000000084,1.4675000000000011]",1,16,47,9,1,18,,,,,,,,,,,,,,,,,,,,,,,,,,,,,,,,,,,,,,,,,,,,,,,,,,,,,,,,,,,,,,,,,,,,,,,,,,,,,,,,,,,,,,,,,,,,,,,,,,,,,,,,,,,,,,,,,,,,,,,,,,,,,,,,,,,,,,,,,,,,,,,,,,,,,,,,,,,,,,,,,
,822385097411,BAC,22/07/2003,001,2023-11-22_24h15.29.547,OS3_Mult_verification,2022.2.4,Win32,59.93048064,,,27,1.2827,1,"[""2"",""7"",""return""]","[0.6422999999970216,1.051099999994051,1.2505000000000166]",1,17,48,14,1,27,,,,,,,,,,,,,,,,,,,,,,,,,,,,,,,,,,,,,,,,,,,,,,,,,,,,,,,,,,,,,,,,,,,,,,,,,,,,,,,,,,,,,,,,,,,,,,,,,,,,,,,,,,,,,,,,,,,,,,,,,,,,,,,,,,,,,,,,,,,,,,,,,,,,,,,,,,,,,,,,,
,822385097411,BAC,22/07/2003,001,2023-11-22_24h15.29.547,OS3_Mult_verification,2022.2.4,Win32,59.93048064,,,9,1.0989,1,"[""9"",""return""]","[0.866500000000002,1.057700000002967]",1,18,49,3,1,9,,,,,,,,,,,,,,,,,,,,,,,,,,,,,,,,,,,,,,,,,,,,,,,,,,,,,,,,,,,,,,,,,,,,,,,,,,,,,,,,,,,,,,,,,,,,,,,,,,,,,,,,,,,,,,,,,,,,,,,,,,,,,,,,,,,,,,,,,,,,,,,,,,,,,,,,,,,,,,,,,
,822385097411,BAC,22/07/2003,001,2023-11-22_24h15.29.547,OS3_Mult_verification,2022.2.4,Win32,59.93048064,,,56,1.1705,1,"[""5"",""6"",""return""]","[0.8265999999940163,0.9499999999999886,1.1337999999969952]",1,19,50,26,1,56,,,,,,,,,,,,,,,,,,,,,,,,,,,,,,,,,,,,,,,,,,,,,,,,,,,,,,,,,,,,,,,,,,,,,,,,,,,,,,,,,,,,,,,,,,,,,,,,,,,,,,,,,,,,,,,,,,,,,,,,,,,,,,,,,,,,,,,,,,,,,,,,,,,,,,,,,,,,,,,,,
,822385097411,BAC,22/07/2003,001,2023-11-22_24h15.29.547,OS3_Mult_verification,2022.2.4,Win32,59.93048064,,,45,1.1449,1,"[""4"",""5"",""return""]","[0.8439999999999941,0.9385999999940395,1.1010999999940339]",1,20,51,22,1,45,,,,,,,,,,,,,,,,,,,,,,,,,,,,,,,,,,,,,,,,,,,,,,,,,,,,,,,,,,,,,,,,,,,,,,,,,,,,,,,,,,,,,,,,,,,,,,,,,,,,,,,,,,,,,,,,,,,,,,,,,,,,,,,,,,,,,,,,,,,,,,,,,,,,,,,,,,,,,,,,,
,822385097411,BAC,22/07/2003,001,2023-11-22_24h15.29.547,OS3_Mult_verification,2022.2.4,Win32,59.93048064,,,21,1.0862,1,"[""2"",""1"",""return""]","[0.7519000000059748,0.9192000000030021,1.0353000000119437]",1,21,52,11,1,21,,,,,,,,,,,,,,,,,,,,,,,,,,,,,,,,,,,,,,,,,,,,,,,,,,,,,,,,,,,,,,,,,,,,,,,,,,,,,,,,,,,,,,,,,,,,,,,,,,,,,,,,,,,,,,,,,,,,,,,,,,,,,,,,,,,,,,,,,,,,,,,,,,,,,,,,,,,,,,,,,
,822385097411,BAC,22/07/2003,001,2023-11-22_24h15.29.547,OS3_Mult_verification,2022.2.4,Win32,59.93048064,,,40,1.3324,1,"[""4"",""0"",""return""]","[0.7557999999970093,1.1290999999940539,1.2844000000059737]",1,22,53,20,1,40,,,,,,,,,,,,,,,,,,,,,,,,,,,,,,,,,,,,,,,,,,,,,,,,,,,,,,,,,,,,,,,,,,,,,,,,,,,,,,,,,,,,,,,,,,,,,,,,,,,,,,,,,,,,,,,,,,,,,,,,,,,,,,,,,,,,,,,,,,,,,,,,,,,,,,,,,,,,,,,,,
,822385097411,BAC,22/07/2003,001,2023-11-22_24h15.29.547,OS3_Mult_verification,2022.2.4,Win32,59.93048064,,,10,1.1662,1,"[""1"",""0"",""return""]","[0.6012000000029616,0.9677000000029636,1.1286000000089302]",1,23,54,4,1,10,,,,,,,,,,,,,,,,,,,,,,,,,,,,,,,,,,,,,,,,,,,,,,,,,,,,,,,,,,,,,,,,,,,,,,,,,,,,,,,,,,,,,,,,,,,,,,,,,,,,,,,,,,,,,,,,,,,,,,,,,,,,,,,,,,,,,,,,,,,,,,,,,,,,,,,,,,,,,,,,,
,822385097411,BAC,22/07/2003,001,2023-11-22_24h15.29.547,OS3_Mult_verification,2022.2.4,Win32,59.93048064,,,25,1.4366,1,"[""2"",""5"",""return""]","[1.0397999999970011,1.266999999999996,1.3919000000059611]",1,24,55,13,1,25,,,,,,,,,,,,,,,,,,,,,,,,,,,,,,,,,,,,,,,,,,,,,,,,,,,,,,,,,,,,,,,,,,,,,,,,,,,,,,,,,,,,,,,,,,,,,,,,,,,,,,,,,,,,,,,,,,,,,,,,,,,,,,,,,,,,,,,,,,,,,,,,,,,,,,,,,,,,,,,,,
,822385097411,BAC,22/07/2003,001,2023-11-22_24h15.29.547,OS3_Mult_verification,2022.2.4,Win32,59.93048064,,,15,1.1155,1,"[""1"",""5"",""return""]","[0.6225000000000023,0.8852000000029818,1.0839000000059684]",1,25,56,7,1,15,,,,,,,,,,,,,,,,,,,,,,,,,,,,,,,,,,,,,,,,,,,,,,,,,,,,,,,,,,,,,,,,,,,,,,,,,,,,,,,,,,,,,,,,,,,,,,,,,,,,,,,,,,,,,,,,,,,,,,,,,,,,,,,,,,,,,,,,,,,,,,,,,,,,,,,,,,,,,,,,,
,822385097411,BAC,22/07/2003,001,2023-11-22_24h15.29.547,OS3_Mult_verification,2022.2.4,Win32,59.93048064,,,32,1.053,1,"[""3"",""2"",""return""]","[0.7208000000119057,0.8701000000089323,1.0021000000089373]",1,26,57,17,1,32,,,,,,,,,,,,,,,,,,,,,,,,,,,,,,,,,,,,,,,,,,,,,,,,,,,,,,,,,,,,,,,,,,,,,,,,,,,,,,,,,,,,,,,,,,,,,,,,,,,,,,,,,,,,,,,,,,,,,,,,,,,,,,,,,,,,,,,,,,,,,,,,,,,,,,,,,,,,,,,,,
,822385097411,BAC,22/07/2003,001,2023-11-22_24h15.29.547,OS3_Mult_verification,2022.2.4,Win32,59.93048064,,,30,1.3362,1,"[""3"",""0"",""return""]","[0.7932000000029973,1.1585000000000036,1.2952000000029784]",1,27,58,16,1,30,,,,,,,,,,,,,,,,,,,,,,,,,,,,,,,,,,,,,,,,,,,,,,,,,,,,,,,,,,,,,,,,,,,,,,,,,,,,,,,,,,,,,,,,,,,,,,,,,,,,,,,,,,,,,,,,,,,,,,,,,,,,,,,,,,,,,,,,,,,,,,,,,,,,,,,,,,,,,,,,,
,822385097411,BAC,22/07/2003,001,2023-11-22_24h15.29.547,OS3_Mult_verification,2022.2.4,Win32,59.93048064,,,6,1.0626,1,"[""6"",""return""]","[0.90119999998808,1.0260000000000105]",1,28,59,1,1,6,,,,,,,,,,,,,,,,,,,,,,,,,,,,,,,,,,,,,,,,,,,,,,,,,,,,,,,,,,,,,,,,,,,,,,,,,,,,,,,,,,,,,,,,,,,,,,,,,,,,,,,,,,,,,,,,,,,,,,,,,,,,,,,,,,,,,,,,,,,,,,,,,,,,,,,,,,,,,,,,,
,822385097411,BAC,22/07/2003,001,2023-11-22_24h15.29.547,OS3_Mult_verification,2022.2.4,Win32,59.93048064,,,28,1.3164,1,"[""2"",""8"",""return""]","[0.7410999999940202,1.0872999999970148,1.2742999999969982]",1,29,60,15,1,28,,,,,,,,,,,,,,,,,,,,,,,,,,,,,,,,,,,,,,,,,,,,,,,,,,,,,,,,,,,,,,,,,,,,,,,,,,,,,,,,,,,,,,,,,,,,,,,,,,,,,,,,,,,,,,,,,,,,,,,,,,,,,,,,,,,,,,,,,,,,,,,,,,,,,,,,,,,,,,,,,
,822385097411,BAC,22/07/2003,001,2023-11-22_24h15.29.547,OS3_Mult_verification,2022.2.4,Win32,59.93048064,,,81,1.37,1,"[""8"",""1"",""return""]","[0.984700000002988,1.1252000000029625,1.3340000000000032]",1,30,61,30,1,81,,,,,,,,,,,,,,,,,,,,,,,,,,,,,,,,,,,,,,,,,,,,,,,,,,,,,,,,,,,,,,,,,,,,,,,,,,,,,,,,,,,,,,,,,,,,,,,,,,,,,,,,,,,,,,,,,,,,,,,,,,,,,,,,,,,,,,,,,,,,,,,,,,,,,,,,,,,,,,,,,
,822385097411,BAC,22/07/2003,001,2023-11-22_24h15.29.547,OS3_Mult_verification,2022.2.4,Win32,59.93048064,,,,,,,,,,,,,,space,2.7356,,,,,,,,,,,,,,,,,,,,,,,,,,,,,,,,,,,,,,,,,,,,,,,,,,,,,,,,,,,,,,,,,,,,,,,,,,,,,,,,,,,,,,,,,,,,,,,,,,,,,,,,,,,,,,,,,,,,,,,,,,,,,,,,,,,,,,,,,,,,,,,,,,,,,,,,,,,,,,,
,822385097411,BAC,22/07/2003,001,2023-11-22_24h15.29.547,OS3_Mult_verification,2022.2.4,Win32,59.93048064,,,,,,,,,,,,,,,,,,,,,,,,,,,,,,,,,,,,,,,,,,,,,,,,,,,,,,,,,,,,,,,,,,,,,,,,,,,,,,,,,,,,,,,,,,,,,,,,,,,,,,,,,,,,,,,,,,,,,,,,,,,,,,,,,,,,,,,,,,,,,,,,,,,,,,,,,,,,,,,,,,,,,,,,,,,,,,
,822385097411,BAC,22/07/2003,001,2023-11-22_24h15.29.547,OS3_Mult_verification,2022.2.4,Win32,59.93048064,,,,,,,,,,,,,,,,space,2.9018,,,,,,,,,,,,,,,,,,,,,,,,,,,,,,,,,,,,,,,,,,,,,,,,,,,,,,,,,,,,,,,,,,,,,,,,,,,,,,,,,,,,,,,,,,,,,,,,,,,,,,,,,,,,,,,,,,,,,,,,,,,,,,,,,,,,,,,,,,,,,,,,,,,,,,,,,,,,,
,822385097411,BAC,22/07/2003,001,2023-11-22_24h15.29.547,OS3_Mult_verification,2022.2.4,Win32,59.93048064,,,,,,,,,,,,,,,,,,20,2.0238,1,"[""2"",""0"",""return""]","[1.2786000000089643,1.4208000000119227,1.7284999999999968]",0,0,0,1,1,2 × 10 =,20,,,,,,,,,,,,,,,,,,,,,,,,,,,,,,,,,,,,,,,,,,,,,,,,,,,,,,,,,,,,,,,,,,,,,,,,,,,,,,,,,,,,,,,,,,,,,,,,,,,,,,,,,,,,,,,,,,,,,,,,,,,,,,,,,,,,,,,,,,,,,,,,,
,822385097411,BAC,22/07/2003,001,2023-11-22_24h15.29.547,OS3_Mult_verification,2022.2.4,Win32,59.93048064,,,,,,,,,,,,,,,,,,7,1.6656,1,"[""7"",""return""]","[1.233400000005986,1.3550000000000182]",0,1,1,0,1,1 × 7 =,7,,,,,,,,,,,,,,,,,,,,,,,,,,,,,,,,,,,,,,,,,,,,,,,,,,,,,,,,,,,,,,,,,,,,,,,,,,,,,,,,,,,,,,,,,,,,,,,,,,,,,,,,,,,,,,,,,,,,,,,,,,,,,,,,,,,,,,,,,,,,,,,,,
,822385097411,BAC,22/07/2003,001,2023-11-22_24h15.29.547,OS3_Mult_verification,2022.2.4,Win32,59.93048064,,,,,,,,,,,,,,,,,,22,1.6756,1,"[""2"",""2"",""return""]","[1.0595999999940204,1.221599999994055,1.369699999988086]",0,2,2,2,1,2 × 11 =,22,,,,,,,,,,,,,,,,,,,,,,,,,,,,,,,,,,,,,,,,,,,,,,,,,,,,,,,,,,,,,,,,,,,,,,,,,,,,,,,,,,,,,,,,,,,,,,,,,,,,,,,,,,,,,,,,,,,,,,,,,,,,,,,,,,,,,,,,,,,,,,,,,
,822385097411,BAC,22/07/2003,001,2023-11-22_24h15.29.547,OS3_Mult_verification,2022.2.4,Win32,59.93048064,,,,,,,,,,,,,,,,,,,,,,,,,,,,,,,,,,,,,,,,,,,,,,,,,,,,,,,,,,,,,,,,,,,,,,,,,,,,,,,,,,,,,,,,,,,,,,,,,,,,,,,,,,,,,,,,,,,,,,,,,,,,,,,,,,,,,,,,,,,,,,,,,,,,,,,,,,,,,,,,,,,,,,,,,,,,,,
,822385097411,BAC,22/07/2003,001,2023-11-22_24h15.29.547,OS3_Mult_verification,2022.2.4,Win32,59.93048064,,,,,,,,,,,,,,,,,,,,,,,,,,,,,,,,,,,,,,,,,,,,,,,,,,,,,,,,,,,,,,,,,,,,,,,,,,,,,,,,,,,,,,,,,,,,,,,,,,,,,,,,,,,,,,,,,,,,,,,,,,,,,,,,,,,,,,,,,,,,,,,,,,,,,,,,,,,,,,,,,,,,,,,,,,,,,,
,822385097411,BAC,22/07/2003,001,2023-11-22_24h15.29.547,OS3_Mult_verification,2022.2.4,Win32,59.93048064,,,,,,,,,,,,,,,,,,6,1.6703,1,"[""6"",""return""]","[1.2727999999970052,1.3757000000029507]",,,,,,2 × 3 =,6,0,0,0,0,1,,,,,,,,,,,,,,,,,,,,,,,,,,,,,,,,,,,,,,,,,,,,,,,,,,,,,,,,,,,,,,,,,,,,,,,,,,,,,,,,,,,,,,,,,,,,,,,,,,,,,,,,,,,,,,,,,,,,,,,,,,,,,,,,,,,,,,,,,,,,
,822385097411,BAC,22/07/2003,001,2023-11-22_24h15.29.547,OS3_Mult_verification,2022.2.4,Win32,59.93048064,,,,,,,,,,,,,,,,,,40,1.9988,1,"[""4"",""0"",""return""]","[1.2694999999999936,1.4347000000029766,1.6952000000030125]",,,,,,5 × 8 =,40,0,1,1,1,1,,,,,,,,,,,,,,,,,,,,,,,,,,,,,,,,,,,,,,,,,,,,,,,,,,,,,,,,,,,,,,,,,,,,,,,,,,,,,,,,,,,,,,,,,,,,,,,,,,,,,,,,,,,,,,,,,,,,,,,,,,,,,,,,,,,,,,,,,,,,
,822385097411,BAC,22/07/2003,001,2023-11-22_24h15.29.547,OS3_Mult_verification,2022.2.4,Win32,59.93048064,,,,,,,,,,,,,,,,,,12,1.6322,1,"[""1"",""2"",""return""]","[1.0244000000059827,1.1594000000059737,1.3182000000029461]",,,,,,3 × 4 =,12,0,2,2,2,1,,,,,,,,,,,,,,,,,,,,,,,,,,,,,,,,,,,,,,,,,,,,,,,,,,,,,,,,,,,,,,,,,,,,,,,,,,,,,,,,,,,,,,,,,,,,,,,,,,,,,,,,,,,,,,,,,,,,,,,,,,,,,,,,,,,,,,,,,,,,
,822385097411,BAC,22/07/2003,001,2023-11-22_24h15.29.547,OS3_Mult_verification,2022.2.4,Win32,59.93048064,,,,,,,,,,,,,,,,,,15,1.449,1,"[""1"",""5"",""return""]","[0.7552999999970211,1.0007999999970139,1.1438999999910493]",,,,,,5 × 3 =,15,0,3,3,3,1,,,,,,,,,,,,,,,,,,,,,,,,,,,,,,,,,,,,,,,,,,,,,,,,,,,,,,,,,,,,,,,,,,,,,,,,,,,,,,,,,,,,,,,,,,,,,,,,,,,,,,,,,,,,,,,,,,,,,,,,,,,,,,,,,,,,,,,,,,,,
,822385097411,BAC,22/07/2003,001,2023-11-22_24h15.29.547,OS3_Mult_verification,2022.2.4,Win32,59.93048064,,,,,,,,,,,,,,,,,,8,1.4352,1,"[""8"",""return""]","[1.000400000005925,1.1217000000029316]",,,,,,2 × 4 =,8,0,4,4,4,1,,,,,,,,,,,,,,,,,,,,,,,,,,,,,,,,,,,,,,,,,,,,,,,,,,,,,,,,,,,,,,,,,,,,,,,,,,,,,,,,,,,,,,,,,,,,,,,,,,,,,,,,,,,,,,,,,,,,,,,,,,,,,,,,,,,,,,,,,,,,
,822385097411,BAC,22/07/2003,001,2023-11-22_24h15.29.547,OS3_Mult_verification,2022.2.4,Win32,59.93048064,,,,,,,,,,,,,,,,,,4,1.2829,1,"[""4"",""return""]","[0.8799000000059323,0.9710000000000036]",,,,,,2 × 2 =,4,0,5,5,5,1,,,,,,,,,,,,,,,,,,,,,,,,,,,,,,,,,,,,,,,,,,,,,,,,,,,,,,,,,,,,,,,,,,,,,,,,,,,,,,,,,,,,,,,,,,,,,,,,,,,,,,,,,,,,,,,,,,,,,,,,,,,,,,,,,,,,,,,,,,,,
,822385097411,BAC,22/07/2003,001,2023-11-22_24h15.29.547,OS3_Mult_verification,2022.2.4,Win32,59.93048064,,,,,,,,,,,,,,,,,,20,1.7327,1,"[""2"",""0"",""return""]","[0.9181000000089625,1.2838000000119223,1.421800000011956]",,,,,,4 × 5 =,20,0,6,6,6,1,,,,,,,,,,,,,,,,,,,,,,,,,,,,,,,,,,,,,,,,,,,,,,,,,,,,,,,,,,,,,,,,,,,,,,,,,,,,,,,,,,,,,,,,,,,,,,,,,,,,,,,,,,,,,,,,,,,,,,,,,,,,,,,,,,,,,,,,,,,,
,822385097411,BAC,22/07/2003,001,2023-11-22_24h15.29.547,OS3_Mult_verification,2022.2.4,Win32,59.93048064,,,,,,,,,,,,,,,,,,9,1.3789,1,"[""9"",""return""]","[0.971600000008948,1.0776000000089425]",,,,,,3 × 3 =,9,0,7,7,7,1,,,,,,,,,,,,,,,,,,,,,,,,,,,,,,,,,,,,,,,,,,,,,,,,,,,,,,,,,,,,,,,,,,,,,,,,,,,,,,,,,,,,,,,,,,,,,,,,,,,,,,,,,,,,,,,,,,,,,,,,,,,,,,,,,,,,,,,,,,,,
,822385097411,BAC,22/07/2003,001,2023-11-22_24h15.29.547,OS3_Mult_verification,2022.2.4,Win32,59.93048064,,,,,,,,,,,,,,,,,,10,1.5658,1,"[""1"",""0"",""return""]","[0.7680999999940354,1.1030999999940718,1.2620000000000005]",,,,,,5 × 2 =,10,0,8,8,8,1,,,,,,,,,,,,,,,,,,,,,,,,,,,,,,,,,,,,,,,,,,,,,,,,,,,,,,,,,,,,,,,,,,,,,,,,,,,,,,,,,,,,,,,,,,,,,,,,,,,,,,,,,,,,,,,,,,,,,,,,,,,,,,,,,,,,,,,,,,,,
,822385097411,BAC,22/07/2003,001,2023-11-22_24h15.29.547,OS3_Mult_verification,2022.2.4,Win32,59.93048064,,,,,,,,,,,,,,,,,,16,2.5821,1,"[""1"",""6"",""return""]","[1.101400000005924,1.8464000000059286,2.2780999999940263]",,,,,,4 × 4 =,16,0,9,9,9,1,,,,,,,,,,,,,,,,,,,,,,,,,,,,,,,,,,,,,,,,,,,,,,,,,,,,,,,,,,,,,,,,,,,,,,,,,,,,,,,,,,,,,,,,,,,,,,,,,,,,,,,,,,,,,,,,,,,,,,,,,,,,,,,,,,,,,,,,,,,,
,822385097411,BAC,22/07/2003,001,2023-11-22_24h15.29.547,OS3_Mult_verification,2022.2.4,Win32,59.93048064,,,,,,,,,,,,,,,,,,24,1.5324,1,"[""2"",""4"",""return""]","[0.9353000000119209,1.1186000000089393,1.244800000011935]",,,,,,8 × 3 =,24,0,10,10,10,1,,,,,,,,,,,,,,,,,,,,,,,,,,,,,,,,,,,,,,,,,,,,,,,,,,,,,,,,,,,,,,,,,,,,,,,,,,,,,,,,,,,,,,,,,,,,,,,,,,,,,,,,,,,,,,,,,,,,,,,,,,,,,,,,,,,,,,,,,,,,
,822385097411,BAC,22/07/2003,001,2023-11-22_24h15.29.547,OS3_Mult_verification,2022.2.4,Win32,59.93048064,,,,,,,,,,,,,,,,,,30,1.8991,1,"[""3"",""0"",""return""]","[1.225600000008967,1.3529000000060023,1.5930000000000177]",,,,,,6 × 5 =,30,0,11,11,11,1,,,,,,,,,,,,,,,,,,,,,,,,,,,,,,,,,,,,,,,,,,,,,,,,,,,,,,,,,,,,,,,,,,,,,,,,,,,,,,,,,,,,,,,,,,,,,,,,,,,,,,,,,,,,,,,,,,,,,,,,,,,,,,,,,,,,,,,,,,,,
,822385097411,BAC,22/07/2003,001,2023-11-22_24h15.29.547,OS3_Mult_verification,2022.2.4,Win32,59.93048064,,,,,,,,,,,,,,,,,,14,1.5359,1,"[""1"",""4"",""return""]","[0.8122000000029743,1.085299999997062,1.234700000002988]",,,,,,7 × 2 =,14,0,12,12,12,1,,,,,,,,,,,,,,,,,,,,,,,,,,,,,,,,,,,,,,,,,,,,,,,,,,,,,,,,,,,,,,,,,,,,,,,,,,,,,,,,,,,,,,,,,,,,,,,,,,,,,,,,,,,,,,,,,,,,,,,,,,,,,,,,,,,,,,,,,,,,
,822385097411,BAC,22/07/2003,001,2023-11-22_24h15.29.547,OS3_Mult_verification,2022.2.4,Win32,59.93048064,,,,,,,,,,,,,,,,,,27,1.8328,1,"[""2"",""7"",""return""]","[1.1229999999999905,1.281899999991026,1.5332999999969843]",,,,,,3 × 9 =,27,0,13,13,13,1,,,,,,,,,,,,,,,,,,,,,,,,,,,,,,,,,,,,,,,,,,,,,,,,,,,,,,,,,,,,,,,,,,,,,,,,,,,,,,,,,,,,,,,,,,,,,,,,,,,,,,,,,,,,,,,,,,,,,,,,,,,,,,,,,,,,,,,,,,,,
,822385097411,BAC,22/07/2003,001,2023-11-22_24h15.29.547,OS3_Mult_verification,2022.2.4,Win32,59.93048064,,,,,,,,,,,,,,,,,,16,1.5823,1,"[""1"",""6"",""return""]","[0.8120000000000118,1.1674000000060119,1.2842000000030112]",,,,,,2 × 8 =,16,0,14,14,14,1,,,,,,,,,,,,,,,,,,,,,,,,,,,,,,,,,,,,,,,,,,,,,,,,,,,,,,,,,,,,,,,,,,,,,,,,,,,,,,,,,,,,,,,,,,,,,,,,,,,,,,,,,,,,,,,,,,,,,,,,,,,,,,,,,,,,,,,,,,,,
,822385097411,BAC,22/07/2003,001,2023-11-22_24h15.29.547,OS3_Mult_verification,2022.2.4,Win32,59.93048064,,,,,,,,,,,,,,,,,,24,1.5459,1,"[""2"",""4"",""return""]","[0.8715999999940323,1.0840000000000032,1.2397000000029834]",,,,,,4 × 6 =,24,0,15,15,15,1,,,,,,,,,,,,,,,,,,,,,,,,,,,,,,,,,,,,,,,,,,,,,,,,,,,,,,,,,,,,,,,,,,,,,,,,,,,,,,,,,,,,,,,,,,,,,,,,,,,,,,,,,,,,,,,,,,,,,,,,,,,,,,,,,,,,,,,,,,,,
,822385097411,BAC,22/07/2003,001,2023-11-22_24h15.29.547,OS3_Mult_verification,2022.2.4,Win32,59.93048064,,,,,,,,,,,,,,,,,,21,1.3698,1,"[""2"",""1"",""return""]","[0.7292999999970107,0.9505000000000337,1.0685000000000286]",,,,,,7 × 3 =,21,0,16,16,16,1,,,,,,,,,,,,,,,,,,,,,,,,,,,,,,,,,,,,,,,,,,,,,,,,,,,,,,,,,,,,,,,,,,,,,,,,,,,,,,,,,,,,,,,,,,,,,,,,,,,,,,,,,,,,,,,,,,,,,,,,,,,,,,,,,,,,,,,,,,,,
,822385097411,BAC,22/07/2003,001,2023-11-22_24h15.29.547,OS3_Mult_verification,2022.2.4,Win32,59.93048064,,,,,,,,,,,,,,,,,,27,1.6819,1,"[""2"",""7"",""return""]","[0.9052999999969984,1.2492999999969925,1.3839999999999577]",,,,,,9 × 3 =,27,0,17,17,17,1,,,,,,,,,,,,,,,,,,,,,,,,,,,,,,,,,,,,,,,,,,,,,,,,,,,,,,,,,,,,,,,,,,,,,,,,,,,,,,,,,,,,,,,,,,,,,,,,,,,,,,,,,,,,,,,,,,,,,,,,,,,,,,,,,,,,,,,,,,,,
,822385097411,BAC,22/07/2003,001,2023-11-22_24h15.29.547,OS3_Mult_verification,2022.2.4,Win32,59.93048064,,,,,,,,,,,,,,,,,,28,1.8124,1,"[""2"",""8"",""return""]","[0.8464999999999918,1.274100000008957,1.5087000000029889]",,,,,,4 × 7 =,28,0,18,18,18,1,,,,,,,,,,,,,,,,,,,,,,,,,,,,,,,,,,,,,,,,,,,,,,,,,,,,,,,,,,,,,,,,,,,,,,,,,,,,,,,,,,,,,,,,,,,,,,,,,,,,,,,,,,,,,,,,,,,,,,,,,,,,,,,,,,,,,,,,,,,,
,822385097411,BAC,22/07/2003,001,2023-11-22_24h15.29.547,OS3_Mult_verification,2022.2.4,Win32,59.93048064,,,,,,,,,,,,,,,,,,18,1.6353,1,"[""1"",""8"",""return""]","[0.806399999991072,1.2327999999969848,1.3232999999970048]",,,,,,2 × 9 =,18,0,19,19,19,1,,,,,,,,,,,,,,,,,,,,,,,,,,,,,,,,,,,,,,,,,,,,,,,,,,,,,,,,,,,,,,,,,,,,,,,,,,,,,,,,,,,,,,,,,,,,,,,,,,,,,,,,,,,,,,,,,,,,,,,,,,,,,,,,,,,,,,,,,,,,
,822385097411,BAC,22/07/2003,001,2023-11-22_24h15.29.547,OS3_Mult_verification,2022.2.4,Win32,59.93048064,,,,,,,,,,,,,,,,,,72,1.8672,1,"[""7"",""2"",""return""]","[1.2297000000029925,1.4505000000000337,1.5566000000089844]",,,,,,9 × 8 =,72,0,20,20,20,1,,,,,,,,,,,,,,,,,,,,,,,,,,,,,,,,,,,,,,,,,,,,,,,,,,,,,,,,,,,,,,,,,,,,,,,,,,,,,,,,,,,,,,,,,,,,,,,,,,,,,,,,,,,,,,,,,,,,,,,,,,,,,,,,,,,,,,,,,,,,
,822385097411,BAC,22/07/2003,001,2023-11-22_24h15.29.547,OS3_Mult_verification,2022.2.4,Win32,59.93048064,,,,,,,,,,,,,,,,,,42,1.6619,1,"[""4"",""2"",""return""]","[0.9195999999940341,1.1675999999940245,1.351900000005969]",,,,,,7 × 6 =,42,0,21,21,21,1,,,,,,,,,,,,,,,,,,,,,,,,,,,,,,,,,,,,,,,,,,,,,,,,,,,,,,,,,,,,,,,,,,,,,,,,,,,,,,,,,,,,,,,,,,,,,,,,,,,,,,,,,,,,,,,,,,,,,,,,,,,,,,,,,,,,,,,,,,,,
,822385097411,BAC,22/07/2003,001,2023-11-22_24h15.29.547,OS3_Mult_verification,2022.2.4,Win32,59.93048064,,,,,,,,,,,,,,,,,,54,1.5656,1,"[""5"",""4"",""return""]","[1.005200000002958,1.1667000000030043,1.255300000011914]",,,,,,6 × 9 =,54,0,22,22,22,1,,,,,,,,,,,,,,,,,,,,,,,,,,,,,,,,,,,,,,,,,,,,,,,,,,,,,,,,,,,,,,,,,,,,,,,,,,,,,,,,,,,,,,,,,,,,,,,,,,,,,,,,,,,,,,,,,,,,,,,,,,,,,,,,,,,,,,,,,,,,
,822385097411,BAC,22/07/2003,001,2023-11-22_24h15.29.547,OS3_Mult_verification,2022.2.4,Win32,59.93048064,,,,,,,,,,,,,,,,,,45,1.4819,1,"[""4"",""5"",""return""]","[0.8729999999999905,1.0534000000059223,1.170400000005941]",,,,,,9 × 5 =,45,0,23,23,23,1,,,,,,,,,,,,,,,,,,,,,,,,,,,,,,,,,,,,,,,,,,,,,,,,,,,,,,,,,,,,,,,,,,,,,,,,,,,,,,,,,,,,,,,,,,,,,,,,,,,,,,,,,,,,,,,,,,,,,,,,,,,,,,,,,,,,,,,,,,,,
,822385097411,BAC,22/07/2003,001,2023-11-22_24h15.29.547,OS3_Mult_verification,2022.2.4,Win32,59.93048064,,,,,,,,,,,,,,,,,,56,1.6028,1,"[""5"",""6"",""return""]","[1.0006000000089443,1.169600000008927,1.3007999999970252]",,,,,,8 × 7 =,56,0,24,24,24,1,,,,,,,,,,,,,,,,,,,,,,,,,,,,,,,,,,,,,,,,,,,,,,,,,,,,,,,,,,,,,,,,,,,,,,,,,,,,,,,,,,,,,,,,,,,,,,,,,,,,,,,,,,,,,,,,,,,,,,,,,,,,,,,,,,,,,,,,,,,,
,822385097411,BAC,22/07/2003,001,2023-11-22_24h15.29.547,OS3_Mult_verification,2022.2.4,Win32,59.93048064,,,,,,,,,,,,,,,,,,36,1.4657,1,"[""3"",""6"",""return""]","[0.8034000000059791,1.0633000000119068,1.1625000000000227]",,,,,,6 × 6 =,36,0,25,25,25,1,,,,,,,,,,,,,,,,,,,,,,,,,,,,,,,,,,,,,,,,,,,,,,,,,,,,,,,,,,,,,,,,,,,,,,,,,,,,,,,,,,,,,,,,,,,,,,,,,,,,,,,,,,,,,,,,,,,,,,,,,,,,,,,,,,,,,,,,,,,,
,822385097411,BAC,22/07/2003,001,2023-11-22_24h15.29.547,OS3_Mult_verification,2022.2.4,Win32,59.93048064,,,,,,,,,,,,,,,,,,35,1.3788,1,"[""3"",""5"",""return""]","[0.7739000000059946,0.9574999999999818,1.0791000000089639]",,,,,,5 × 7 =,35,0,26,26,26,1,,,,,,,,,,,,,,,,,,,,,,,,,,,,,,,,,,,,,,,,,,,,,,,,,,,,,,,,,,,,,,,,,,,,,,,,,,,,,,,,,,,,,,,,,,,,,,,,,,,,,,,,,,,,,,,,,,,,,,,,,,,,,,,,,,,,,,,,,,,,
,822385097411,BAC,22/07/2003,001,2023-11-22_24h15.29.547,OS3_Mult_verification,2022.2.4,Win32,59.93048064,,,,,,,,,,,,,,,,,,36,1.716,1,"[""3"",""6"",""return""]","[0.9859000000059268,1.2912000000029593,1.4109000000059382]",,,,,,4 × 9 =,36,0,27,27,27,1,,,,,,,,,,,,,,,,,,,,,,,,,,,,,,,,,,,,,,,,,,,,,,,,,,,,,,,,,,,,,,,,,,,,,,,,,,,,,,,,,,,,,,,,,,,,,,,,,,,,,,,,,,,,,,,,,,,,,,,,,,,,,,,,,,,,,,,,,,,,
,822385097411,BAC,22/07/2003,001,2023-11-22_24h15.29.547,OS3_Mult_verification,2022.2.4,Win32,59.93048064,,,,,,,,,,,,,,,,,,48,1.6157,1,"[""4"",""8"",""return""]","[0.8505000000000109,1.2007999999970025,1.305499999999995]",,,,,,8 × 6 =,48,0,28,28,28,1,,,,,,,,,,,,,,,,,,,,,,,,,,,,,,,,,,,,,,,,,,,,,,,,,,,,,,,,,,,,,,,,,,,,,,,,,,,,,,,,,,,,,,,,,,,,,,,,,,,,,,,,,,,,,,,,,,,,,,,,,,,,,,,,,,,,,,,,,,,,
,822385097411,BAC,22/07/2003,001,2023-11-22_24h15.29.547,OS3_Mult_verification,2022.2.4,Win32,59.93048064,,,,,,,,,,,,,,,,,,63,2.4652,1,"[""6"",""3"",""return""]","[1.600499999999954,1.9862999999970157,2.168299999996975]",,,,,,9 × 7 =,63,0,29,29,29,1,,,,,,,,,,,,,,,,,,,,,,,,,,,,,,,,,,,,,,,,,,,,,,,,,,,,,,,,,,,,,,,,,,,,,,,,,,,,,,,,,,,,,,,,,,,,,,,,,,,,,,,,,,,,,,,,,,,,,,,,,,,,,,,,,,,,,,,,,,,,
,822385097411,BAC,22/07/2003,001,2023-11-22_24h15.29.547,OS3_Mult_verification,2022.2.4,Win32,59.93048064,,,,,,,,,,,,,,,,,,12,1.3081,1,"[""1"",""2"",""return""]","[0.7345000000000255,0.9009000000059473,1.0032000000030052]",,,,,,4 × 3 =,12,0,30,30,30,1,,,,,,,,,,,,,,,,,,,,,,,,,,,,,,,,,,,,,,,,,,,,,,,,,,,,,,,,,,,,,,,,,,,,,,,,,,,,,,,,,,,,,,,,,,,,,,,,,,,,,,,,,,,,,,,,,,,,,,,,,,,,,,,,,,,,,,,,,,,,
,822385097411,BAC,22/07/2003,001,2023-11-22_24h15.29.547,OS3_Mult_verification,2022.2.4,Win32,59.93048064,,,,,,,,,,,,,,,,,,25,1.5655,1,"[""2"",""5"",""return""]","[0.9132000000029734,1.1501000000089334,1.255200000002958]",,,,,,5 × 5 =,25,0,31,31,31,1,,,,,,,,,,,,,,,,,,,,,,,,,,,,,,,,,,,,,,,,,,,,,,,,,,,,,,,,,,,,,,,,,,,,,,,,,,,,,,,,,,,,,,,,,,,,,,,,,,,,,,,,,,,,,,,,,,,,,,,,,,,,,,,,,,,,,,,,,,,,
,822385097411,BAC,22/07/2003,001,2023-11-22_24h15.29.547,OS3_Mult_verification,2022.2.4,Win32,59.93048064,,,,,,,,,,,,,,,,,,6,1.4691,1,"[""6"",""return""]","[1.0495999999940295,1.1665999999940482]",,,,,,3 × 2 =,6,0,32,32,32,1,,,,,,,,,,,,,,,,,,,,,,,,,,,,,,,,,,,,,,,,,,,,,,,,,,,,,,,,,,,,,,,,,,,,,,,,,,,,,,,,,,,,,,,,,,,,,,,,,,,,,,,,,,,,,,,,,,,,,,,,,,,,,,,,,,,,,,,,,,,,
,822385097411,BAC,22/07/2003,001,2023-11-22_24h15.29.547,OS3_Mult_verification,2022.2.4,Win32,59.93048064,,,,,,,,,,,,,,,,,,20,1.596,1,"[""2"",""0"",""return""]","[0.7562000000029911,1.1564000000059877,1.2925000000000182]",,,,,,5 × 4 =,20,0,33,33,33,1,,,,,,,,,,,,,,,,,,,,,,,,,,,,,,,,,,,,,,,,,,,,,,,,,,,,,,,,,,,,,,,,,,,,,,,,,,,,,,,,,,,,,,,,,,,,,,,,,,,,,,,,,,,,,,,,,,,,,,,,,,,,,,,,,,,,,,,,,,,,
,822385097411,BAC,22/07/2003,001,2023-11-22_24h15.29.547,OS3_Mult_verification,2022.2.4,Win32,59.93048064,,,,,,,,,,,,,,,,,,8,1.3361,1,"[""8"",""return""]","[0.9415000000000191,1.0331000000089148]",,,,,,4 × 2 =,8,0,34,34,34,1,,,,,,,,,,,,,,,,,,,,,,,,,,,,,,,,,,,,,,,,,,,,,,,,,,,,,,,,,,,,,,,,,,,,,,,,,,,,,,,,,,,,,,,,,,,,,,,,,,,,,,,,,,,,,,,,,,,,,,,,,,,,,,,,,,,,,,,,,,,,
,822385097411,BAC,22/07/2003,001,2023-11-22_24h15.29.547,OS3_Mult_verification,2022.2.4,Win32,59.93048064,,,,,,,,,,,,,,,,,,12,1.3986,1,"[""1"",""2"",""return""]","[0.8182999999970093,0.973799999997027,1.099699999988104]",,,,,,2 × 6 =,12,0,35,35,35,1,,,,,,,,,,,,,,,,,,,,,,,,,,,,,,,,,,,,,,,,,,,,,,,,,,,,,,,,,,,,,,,,,,,,,,,,,,,,,,,,,,,,,,,,,,,,,,,,,,,,,,,,,,,,,,,,,,,,,,,,,,,,,,,,,,,,,,,,,,,,
,822385097411,BAC,22/07/2003,001,2023-11-22_24h15.29.547,OS3_Mult_verification,2022.2.4,Win32,59.93048064,,,,,,,,,,,,,,,,,,15,1.5992,1,"[""1"",""5"",""return""]","[0.8004000000059932,0.9879999999999995,1.2995000000000232]",,,,,,3 × 5 =,15,0,36,36,36,1,,,,,,,,,,,,,,,,,,,,,,,,,,,,,,,,,,,,,,,,,,,,,,,,,,,,,,,,,,,,,,,,,,,,,,,,,,,,,,,,,,,,,,,,,,,,,,,,,,,,,,,,,,,,,,,,,,,,,,,,,,,,,,,,,,,,,,,,,,,,
,822385097411,BAC,22/07/2003,001,2023-11-22_24h15.29.547,OS3_Mult_verification,2022.2.4,Win32,59.93048064,,,,,,,,,,,,,,,,,,18,1.6829,1,"[""1"",""8"",""return""]","[0.9008000000119409,1.218600000008962,1.3832000000030007]",,,,,,6 × 3 =,18,0,37,37,37,1,,,,,,,,,,,,,,,,,,,,,,,,,,,,,,,,,,,,,,,,,,,,,,,,,,,,,,,,,,,,,,,,,,,,,,,,,,,,,,,,,,,,,,,,,,,,,,,,,,,,,,,,,,,,,,,,,,,,,,,,,,,,,,,,,,,,,,,,,,,,
,822385097411,BAC,22/07/2003,001,2023-11-22_24h15.29.547,OS3_Mult_verification,2022.2.4,Win32,59.93048064,,,,,,,,,,,,,,,,,,10,1.5625,1,"[""1"",""0"",""return""]","[0.7334999999999923,1.1449999999999818,1.2575999999940564]",,,,,,2 × 5 =,10,0,38,38,38,1,,,,,,,,,,,,,,,,,,,,,,,,,,,,,,,,,,,,,,,,,,,,,,,,,,,,,,,,,,,,,,,,,,,,,,,,,,,,,,,,,,,,,,,,,,,,,,,,,,,,,,,,,,,,,,,,,,,,,,,,,,,,,,,,,,,,,,,,,,,,
,822385097411,BAC,22/07/2003,001,2023-11-22_24h15.29.547,OS3_Mult_verification,2022.2.4,Win32,59.93048064,,,,,,,,,,,,,,,,,,32,2.2531,1,"[""3"",""2"",""return""]","[1.6550000000000296,1.8208000000119,1.950200000003008]",,,,,,4 × 8 =,32,0,39,39,39,1,,,,,,,,,,,,,,,,,,,,,,,,,,,,,,,,,,,,,,,,,,,,,,,,,,,,,,,,,,,,,,,,,,,,,,,,,,,,,,,,,,,,,,,,,,,,,,,,,,,,,,,,,,,,,,,,,,,,,,,,,,,,,,,,,,,,,,,,,,,,
,822385097411,BAC,22/07/2003,001,2023-11-22_24h15.29.547,OS3_Mult_verification,2022.2.4,Win32,59.93048064,,,,,,,,,,,,,,,,,,24,1.386,1,"[""2"",""4"",""return""]","[0.7685000000000173,0.9842999999970061,1.0862000000029752]",,,,,,3 × 8 =,24,0,40,40,40,1,,,,,,,,,,,,,,,,,,,,,,,,,,,,,,,,,,,,,,,,,,,,,,,,,,,,,,,,,,,,,,,,,,,,,,,,,,,,,,,,,,,,,,,,,,,,,,,,,,,,,,,,,,,,,,,,,,,,,,,,,,,,,,,,,,,,,,,,,,,,
,822385097411,BAC,22/07/2003,001,2023-11-22_24h15.29.547,OS3_Mult_verification,2022.2.4,Win32,59.93048064,,,,,,,,,,,,,,,,,,30,1.6357,1,"[""3"",""0"",""return""]","[0.7495999999940182,1.102700000002983,1.337400000005971]",,,,,,5 × 6 =,30,0,41,41,41,1,,,,,,,,,,,,,,,,,,,,,,,,,,,,,,,,,,,,,,,,,,,,,,,,,,,,,,,,,,,,,,,,,,,,,,,,,,,,,,,,,,,,,,,,,,,,,,,,,,,,,,,,,,,,,,,,,,,,,,,,,,,,,,,,,,,,,,,,,,,,
,822385097411,BAC,22/07/2003,001,2023-11-22_24h15.29.547,OS3_Mult_verification,2022.2.4,Win32,59.93048064,,,,,,,,,,,,,,,,,,14,1.3461,1,"[""1"",""4"",""return""]","[0.7097000000029539,0.9364000000059605,1.0365999999940527]",,,,,,2 × 7 =,14,0,42,42,42,1,,,,,,,,,,,,,,,,,,,,,,,,,,,,,,,,,,,,,,,,,,,,,,,,,,,,,,,,,,,,,,,,,,,,,,,,,,,,,,,,,,,,,,,,,,,,,,,,,,,,,,,,,,,,,,,,,,,,,,,,,,,,,,,,,,,,,,,,,,,,
,822385097411,BAC,22/07/2003,001,2023-11-22_24h15.29.547,OS3_Mult_verification,2022.2.4,Win32,59.93048064,,,,,,,,,,,,,,,,,,24,1.2857,1,"[""2"",""4"",""return""]","[0.6712000000030116,0.8904000000059682,0.9967999999970516]",,,,,,6 × 4 =,24,0,43,43,43,1,,,,,,,,,,,,,,,,,,,,,,,,,,,,,,,,,,,,,,,,,,,,,,,,,,,,,,,,,,,,,,,,,,,,,,,,,,,,,,,,,,,,,,,,,,,,,,,,,,,,,,,,,,,,,,,,,,,,,,,,,,,,,,,,,,,,,,,,,,,,
,822385097411,BAC,22/07/2003,001,2023-11-22_24h15.29.547,OS3_Mult_verification,2022.2.4,Win32,59.93048064,,,,,,,,,,,,,,,,,,21,1.4156,1,"[""2"",""1"",""return""]","[0.6588999999910357,0.9127999999969916,1.1173999999910507]",,,,,,3 × 7 =,21,0,44,44,44,1,,,,,,,,,,,,,,,,,,,,,,,,,,,,,,,,,,,,,,,,,,,,,,,,,,,,,,,,,,,,,,,,,,,,,,,,,,,,,,,,,,,,,,,,,,,,,,,,,,,,,,,,,,,,,,,,,,,,,,,,,,,,,,,,,,,,,,,,,,,,
,822385097411,BAC,22/07/2003,001,2023-11-22_24h15.29.547,OS3_Mult_verification,2022.2.4,Win32,59.93048064,,,,,,,,,,,,,,,,,,81,1.6992,1,"[""8"",""1"",""return""]","[1.1020000000000323,1.2172000000030039,1.400400000005959]",,,,,,9 × 9 =,81,0,45,45,45,1,,,,,,,,,,,,,,,,,,,,,,,,,,,,,,,,,,,,,,,,,,,,,,,,,,,,,,,,,,,,,,,,,,,,,,,,,,,,,,,,,,,,,,,,,,,,,,,,,,,,,,,,,,,,,,,,,,,,,,,,,,,,,,,,,,,,,,,,,,,,
,822385097411,BAC,22/07/2003,001,2023-11-22_24h15.29.547,OS3_Mult_verification,2022.2.4,Win32,59.93048064,,,,,,,,,,,,,,,,,,16,1.4496,1,"[""1"",""6"",""return""]","[0.6535000000000082,1.0275999999940382,1.1507000000029848]",,,,,,8 × 2 =,16,0,46,46,46,1,,,,,,,,,,,,,,,,,,,,,,,,,,,,,,,,,,,,,,,,,,,,,,,,,,,,,,,,,,,,,,,,,,,,,,,,,,,,,,,,,,,,,,,,,,,,,,,,,,,,,,,,,,,,,,,,,,,,,,,,,,,,,,,,,,,,,,,,,,,,
,822385097411,BAC,22/07/2003,001,2023-11-22_24h15.29.547,OS3_Mult_verification,2022.2.4,Win32,59.93048064,,,,,,,,,,,,,,,,,,48,1.6106,1,"[""4"",""8"",""return""]","[0.8561000000088939,1.206300000011879,1.3121000000089111]",,,,,,6 × 8 =,48,0,47,47,47,1,,,,,,,,,,,,,,,,,,,,,,,,,,,,,,,,,,,,,,,,,,,,,,,,,,,,,,,,,,,,,,,,,,,,,,,,,,,,,,,,,,,,,,,,,,,,,,,,,,,,,,,,,,,,,,,,,,,,,,,,,,,,,,,,,,,,,,,,,,,,
,822385097411,BAC,22/07/2003,001,2023-11-22_24h15.29.547,OS3_Mult_verification,2022.2.4,Win32,59.93048064,,,,,,,,,,,,,,,,,,28,1.616,1,"[""2"",""8"",""return""]","[0.7838999999910357,1.198399999991011,1.3104999999999905]",,,,,,7 × 4 =,28,0,48,48,48,1,,,,,,,,,,,,,,,,,,,,,,,,,,,,,,,,,,,,,,,,,,,,,,,,,,,,,,,,,,,,,,,,,,,,,,,,,,,,,,,,,,,,,,,,,,,,,,,,,,,,,,,,,,,,,,,,,,,,,,,,,,,,,,,,,,,,,,,,,,,,
,822385097411,BAC,22/07/2003,001,2023-11-22_24h15.29.547,OS3_Mult_verification,2022.2.4,Win32,59.93048064,,,,,,,,,,,,,,,,,,18,2.1521,1,"[""1"",""8"",""return""]","[1.2069000000059305,1.3516000000089434,1.837900000005959]",,,,,,9 × 2 =,18,0,49,49,49,1,,,,,,,,,,,,,,,,,,,,,,,,,,,,,,,,,,,,,,,,,,,,,,,,,,,,,,,,,,,,,,,,,,,,,,,,,,,,,,,,,,,,,,,,,,,,,,,,,,,,,,,,,,,,,,,,,,,,,,,,,,,,,,,,,,,,,,,,,,,,
,822385097411,BAC,22/07/2003,001,2023-11-22_24h15.29.547,OS3_Mult_verification,2022.2.4,Win32,59.93048064,,,,,,,,,,,,,,,,,,30,1.6158,0,"[""3"",""0"",""return""]","[0.8997999999970148,1.06159999999403,1.3170999999940705]",,,,,,7 × 5 =,35,0,50,50,50,1,,,,,,,,,,,,,,,,,,,,,,,,,,,,,,,,,,,,,,,,,,,,,,,,,,,,,,,,,,,,,,,,,,,,,,,,,,,,,,,,,,,,,,,,,,,,,,,,,,,,,,,,,,,,,,,,,,,,,,,,,,,,,,,,,,,,,,,,,,,,
,822385097411,BAC,22/07/2003,001,2023-11-22_24h15.29.547,OS3_Mult_verification,2022.2.4,Win32,59.93048064,,,,,,,,,,,,,,,,,,36,1.815,1,"[""3"",""6"",""return""]","[1.0503999999910434,1.4333999999910816,1.5118999999910443]",,,,,,9 × 4 =,36,0,51,51,51,1,,,,,,,,,,,,,,,,,,,,,,,,,,,,,,,,,,,,,,,,,,,,,,,,,,,,,,,,,,,,,,,,,,,,,,,,,,,,,,,,,,,,,,,,,,,,,,,,,,,,,,,,,,,,,,,,,,,,,,,,,,,,,,,,,,,,,,,,,,,,
,822385097411,BAC,22/07/2003,001,2023-11-22_24h15.29.547,OS3_Mult_verification,2022.2.4,Win32,59.93048064,,,,,,,,,,,,,,,,,,64,1.7488,1,"[""6"",""4"",""return""]","[1.094799999997008,1.3034999999999854,1.4424000000059323]",,,,,,8 × 8 =,64,0,52,52,52,1,,,,,,,,,,,,,,,,,,,,,,,,,,,,,,,,,,,,,,,,,,,,,,,,,,,,,,,,,,,,,,,,,,,,,,,,,,,,,,,,,,,,,,,,,,,,,,,,,,,,,,,,,,,,,,,,,,,,,,,,,,,,,,,,,,,,,,,,,,,,
,822385097411,BAC,22/07/2003,001,2023-11-22_24h15.29.547,OS3_Mult_verification,2022.2.4,Win32,59.93048064,,,,,,,,,,,,,,,,,,45,1.4662,1,"[""4"",""5"",""return""]","[0.8832999999970639,1.0339999999999918,1.1672999999970557]",,,,,,5 × 9 =,45,0,53,53,53,1,,,,,,,,,,,,,,,,,,,,,,,,,,,,,,,,,,,,,,,,,,,,,,,,,,,,,,,,,,,,,,,,,,,,,,,,,,,,,,,,,,,,,,,,,,,,,,,,,,,,,,,,,,,,,,,,,,,,,,,,,,,,,,,,,,,,,,,,,,,,
,822385097411,BAC,22/07/2003,001,2023-11-22_24h15.29.547,OS3_Mult_verification,2022.2.4,Win32,59.93048064,,,,,,,,,,,,,,,,,,56,1.6325,1,"[""5"",""6"",""return""]","[0.9908999999910861,1.1878999999910889,1.3337999999970407]",,,,,,7 × 8 =,56,0,54,54,54,1,,,,,,,,,,,,,,,,,,,,,,,,,,,,,,,,,,,,,,,,,,,,,,,,,,,,,,,,,,,,,,,,,,,,,,,,,,,,,,,,,,,,,,,,,,,,,,,,,,,,,,,,,,,,,,,,,,,,,,,,,,,,,,,,,,,,,,,,,,,,
,822385097411,BAC,22/07/2003,001,2023-11-22_24h15.29.547,OS3_Mult_verification,2022.2.4,Win32,59.93048064,,,,,,,,,,,,,,,,,,,0.3329,0,,,,,,,,6 × 6 =,36,0,55,55,55,1,,,,,,,,,,,,,,,,,,,,,,,,,,,,,,,,,,,,,,,,,,,,,,,,,,,,,,,,,,,,,,,,,,,,,,,,,,,,,,,,,,,,,,,,,,,,,,,,,,,,,,,,,,,,,,,,,,,,,,,,,,,,,,,,,,,,,,,,,,,,
,822385097411,BAC,22/07/2003,001,2023-11-22_24h15.29.547,OS3_Mult_verification,2022.2.4,Win32,59.93048064,,,,,,,,,,,,,,,,space,1.1841,,,,,,,,,,,,,,,,,,TRUE,2.3952,0.024649894,-0.345378151,1,0,0,0,0,0,0,1,practice trial,,3,3,,,,,,,,,,,,,,,,,,,,,,,,,,,,,,,,,,,,,,,,,,,,,,,,,,,,,,,,,,,,,,,,,,,,,,,,,,,,,,,,,,,,,,,,,,,,,,,,,,,,,,,,,,,,,,,,,,,,,,,,,,,,
,822385097411,BAC,22/07/2003,001,2023-11-22_24h15.29.547,OS3_Mult_verification,2022.2.4,Win32,59.93048064,,,,,,,,,,,,,,,,,,,,,,,,,,,,,,,,,,,TRUE,2.0025,0.017927205,-0.31512605,1,0,0,0,1,1,2,1,practice trial,,3,3,,,,,,,,,,,,,,,,,,,,,,,,,,,,,,,,,,,,,,,,,,,,,,,,,,,,,,,,,,,,,,,,,,,,,,,,,,,,,,,,,,,,,,,,,,,,,,,,,,,,,,,,,,,,,,,,,,,,,,,,,,,,
,822385097411,BAC,22/07/2003,001,2023-11-22_24h15.29.547,OS3_Mult_verification,2022.2.4,Win32,59.93048064,,,,,,,,,,,,,,,,,,,,,,,,,,,,,,,,,,,TRUE,1.8847,-0.022408929,-0.328571429,1,0,0,0,2,2,1,1,practice trial,,3,3,,,,,,,,,,,,,,,,,,,,,,,,,,,,,,,,,,,,,,,,,,,,,,,,,,,,,,,,,,,,,,,,,,,,,,,,,,,,,,,,,,,,,,,,,,,,,,,,,,,,,,,,,,,,,,,,,,,,,,,,,,,,
,822385097411,BAC,22/07/2003,001,2023-11-22_24h15.29.547,OS3_Mult_verification,2022.2.4,Win32,59.93048064,,,,,,,,,,,,,,,,,,,,,,,,,,,,,,,,,,,TRUE,1.463,0.03585441,-0.350980461,1,0,0,,,,,,Trial #1,,2,2,0,0,0,0,1,2,,,,,,,,,,,,,,,,,,,,,,,,,,,,,,,,,,,,,,,,,,,,,,,,,,,,,,,,,,,,,,,,,,,,,,,,,,,,,,,,,,,,,,,,,,,,,,,,,,,,,,,,,,,,,,,,,,,,,,
,822385097411,BAC,22/07/2003,001,2023-11-22_24h15.29.547,OS3_Mult_verification,2022.2.4,Win32,59.93048064,,,,,,,,,,,,,,,,,,,,,,,,,,,,,,,,,,,TRUE,1.3032,-0.004481724,-0.329691911,1,0,0,,,,,,Trial #1,,2,2,0,1,1,1,1,2,,,,,,,,,,,,,,,,,,,,,,,,,,,,,,,,,,,,,,,,,,,,,,,,,,,,,,,,,,,,,,,,,,,,,,,,,,,,,,,,,,,,,,,,,,,,,,,,,,,,,,,,,,,,,,,,,,,,,,
,822385097411,BAC,22/07/2003,001,2023-11-22_24h15.29.547,OS3_Mult_verification,2022.2.4,Win32,59.93048064,,,,,,,,,,,,,,,,,,,,,,,,,,,,,,,,,,,TRUE,1.2844,-0.03809517,-0.372268908,1,0,0,,,,,,Trial #1,,2,2,0,2,2,2,1,2,,,,,,,,,,,,,,,,,,,,,,,,,,,,,,,,,,,,,,,,,,,,,,,,,,,,,,,,,,,,,,,,,,,,,,,,,,,,,,,,,,,,,,,,,,,,,,,,,,,,,,,,,,,,,,,,,,,,,,
,822385097411,BAC,22/07/2003,001,2023-11-22_24h15.29.547,OS3_Mult_verification,2022.2.4,Win32,59.93048064,,,,,,,,,,,,,,,,,,,,,,,,,,,,,,,,,,,TRUE,1.5302,-0.064985926,-0.321848739,1,0,0,,,,,,Trial #2,,3,3,0,0,0,0,1,3,,,,,,,,,,,,,,,,,,,,,,,,,,,,,,,,,,,,,,,,,,,,,,,,,,,,,,,,,,,,,,,,,,,,,,,,,,,,,,,,,,,,,,,,,,,,,,,,,,,,,,,,,,,,,,,,,,,,,,
,822385097411,BAC,22/07/2003,001,2023-11-22_24h15.29.547,OS3_Mult_verification,2022.2.4,Win32,59.93048064,,,,,,,,,,,,,,,,,,,,,,,,,,,,,,,,,,,TRUE,1.4828,-0.085153993,-0.361064494,1,0,0,,,,,,Trial #2,,3,3,0,1,1,1,1,3,,,,,,,,,,,,,,,,,,,,,,,,,,,,,,,,,,,,,,,,,,,,,,,,,,,,,,,,,,,,,,,,,,,,,,,,,,,,,,,,,,,,,,,,,,,,,,,,,,,,,,,,,,,,,,,,,,,,,,
,822385097411,BAC,22/07/2003,001,2023-11-22_24h15.29.547,OS3_Mult_verification,2022.2.4,Win32,59.93048064,,,,,,,,,,,,,,,,,,,,,,,,,,,,,,,,,,,TRUE,1.563,0.05154065,-0.375630252,1,0,0,,,,,,Trial #2,,3,3,0,2,2,2,1,3,,,,,,,,,,,,,,,,,,,,,,,,,,,,,,,,,,,,,,,,,,,,,,,,,,,,,,,,,,,,,,,,,,,,,,,,,,,,,,,,,,,,,,,,,,,,,,,,,,,,,,,,,,,,,,,,,,,,,,
,822385097411,BAC,22/07/2003,001,2023-11-22_24h15.29.547,OS3_Mult_verification,2022.2.4,Win32,59.93048064,,,,,,,,,,,,,,,,,,,,,,,,,,,,,,,,,,,TRUE,1.736,-0.059383719,-0.327451049,1,0,0,,,,,,Trial #3,,3,3,0,0,0,0,1,4,,,,,,,,,,,,,,,,,,,,,,,,,,,,,,,,,,,,,,,,,,,,,,,,,,,,,,,,,,,,,,,,,,,,,,,,,,,,,,,,,,,,,,,,,,,,,,,,,,,,,,,,,,,,,,,,,,,,,,
,822385097411,BAC,22/07/2003,001,2023-11-22_24h15.29.547,OS3_Mult_verification,2022.2.4,Win32,59.93048064,,,,,,,,,,,,,,,,,,,,,,,,,,,,,,,,,,,TRUE,1.6462,-0.029131618,-0.350980461,1,0,0,,,,,,Trial #3,,3,3,0,1,1,1,1,4,,,,,,,,,,,,,,,,,,,,,,,,,,,,,,,,,,,,,,,,,,,,,,,,,,,,,,,,,,,,,,,,,,,,,,,,,,,,,,,,,,,,,,,,,,,,,,,,,,,,,,,,,,,,,,,,,,,,,,
,822385097411,BAC,22/07/2003,001,2023-11-22_24h15.29.547,OS3_Mult_verification,2022.2.4,Win32,59.93048064,,,,,,,,,,,,,,,,,,,,,,,,,,,,,,,,,,,TRUE,1.9162,-0.094117647,-0.370028045,1,0,0,,,,,,Trial #3,,3,3,0,2,2,2,1,4,,,,,,,,,,,,,,,,,,,,,,,,,,,,,,,,,,,,,,,,,,,,,,,,,,,,,,,,,,,,,,,,,,,,,,,,,,,,,,,,,,,,,,,,,,,,,,,,,,,,,,,,,,,,,,,,,,,,,,
,822385097411,BAC,22/07/2003,001,2023-11-22_24h15.29.547,OS3_Mult_verification,2022.2.4,Win32,59.93048064,,,,,,,,,,,,,,,,,,,,,,,,,,,,,,,,,,,TRUE,2.0002,-0.100840336,-0.333053255,1,0,0,,,,,,Trial #4,,4,4,0,0,0,0,1,5,,,,,,,,,,,,,,,,,,,,,,,,,,,,,,,,,,,,,,,,,,,,,,,,,,,,,,,,,,,,,,,,,,,,,,,,,,,,,,,,,,,,,,,,,,,,,,,,,,,,,,,,,,,,,,,,,,,,,,
,822385097411,BAC,22/07/2003,001,2023-11-22_24h15.29.547,OS3_Mult_verification,2022.2.4,Win32,59.93048064,,,,,,,,,,,,,,,,,,,,,,,,,,,,,,,,,,,TRUE,2.55,-0.059383719,-0.376750734,1,0,0,,,,,,Trial #4,,4,4,0,1,1,1,1,5,,,,,,,,,,,,,,,,,,,,,,,,,,,,,,,,,,,,,,,,,,,,,,,,,,,,,,,,,,,,,,,,,,,,,,,,,,,,,,,,,,,,,,,,,,,,,,,,,,,,,,,,,,,,,,,,,,,,,,
,822385097411,BAC,22/07/2003,001,2023-11-22_24h15.29.547,OS3_Mult_verification,2022.2.4,Win32,59.93048064,,,,,,,,,,,,,,,,,,,,,,,,,,,,,,,,,,,TRUE,2.9651,0.010084034,-0.343137289,1,0,0,,,,,,Trial #4,,4,4,0,2,2,2,1,5,,,,,,,,,,,,,,,,,,,,,,,,,,,,,,,,,,,,,,,,,,,,,,,,,,,,,,,,,,,,,,,,,,,,,,,,,,,,,,,,,,,,,,,,,,,,,,,,,,,,,,,,,,,,,,,,,,,,,,
,822385097411,BAC,22/07/2003,001,2023-11-22_24h15.29.547,OS3_Mult_verification,2022.2.4,Win32,59.93048064,,,,,,,,,,,,,,,,,,,,,,,,,,,,,,,,,,,TRUE,2.4166,0.063865546,-0.331932773,1,0,0,,,,,,Trial #5,,4,4,0,0,0,0,1,6,,,,,,,,,,,,,,,,,,,,,,,,,,,,,,,,,,,,,,,,,,,,,,,,,,,,,,,,,,,,,,,,,,,,,,,,,,,,,,,,,,,,,,,,,,,,,,,,,,,,,,,,,,,,,,,,,,,,,,
,822385097411,BAC,22/07/2003,001,2023-11-22_24h15.29.547,OS3_Mult_verification,2022.2.4,Win32,59.93048064,,,,,,,,,,,,,,,,,,,,,,,,,,,,,,,,,,,TRUE,2.3132,0.112044852,-0.342016807,1,0,0,,,,,,Trial #5,,4,4,0,1,1,1,1,6,,,,,,,,,,,,,,,,,,,,,,,,,,,,,,,,,,,,,,,,,,,,,,,,,,,,,,,,,,,,,,,,,,,,,,,,,,,,,,,,,,,,,,,,,,,,,,,,,,,,,,,,,,,,,,,,,,,,,,
,822385097411,BAC,22/07/2003,001,2023-11-22_24h15.29.547,OS3_Mult_verification,2022.2.4,Win32,59.93048064,,,,,,,,,,,,,,,,,,,,,,,,,,,,,,,,,,,TRUE,2.2496,0.014565861,-0.345378151,1,0,0,,,,,,Trial #5,,4,4,0,2,2,2,1,6,,,,,,,,,,,,,,,,,,,,,,,,,,,,,,,,,,,,,,,,,,,,,,,,,,,,,,,,,,,,,,,,,,,,,,,,,,,,,,,,,,,,,,,,,,,,,,,,,,,,,,,,,,,,,,,,,,,,,,
,822385097411,BAC,22/07/2003,001,2023-11-22_24h15.29.547,OS3_Mult_verification,2022.2.4,Win32,59.93048064,,,,,,,,,,,,,,,,,,,,,,,,,,,,,,,,,,,TRUE,2.8003,0.063865546,-0.344257771,1,0,0,,,,,,Trial #6,,4,4,0,0,0,0,1,7,,,,,,,,,,,,,,,,,,,,,,,,,,,,,,,,,,,,,,,,,,,,,,,,,,,,,,,,,,,,,,,,,,,,,,,,,,,,,,,,,,,,,,,,,,,,,,,,,,,,,,,,,,,,,,,,,,,,,,
,822385097411,BAC,22/07/2003,001,2023-11-22_24h15.29.547,OS3_Mult_verification,2022.2.4,Win32,59.93048064,,,,,,,,,,,,,,,,,,,,,,,,,,,,,,,,,,,TRUE,2.7454,0.076190545,-0.329691911,1,0,0,,,,,,Trial #6,,4,4,0,1,1,1,1,7,,,,,,,,,,,,,,,,,,,,,,,,,,,,,,,,,,,,,,,,,,,,,,,,,,,,,,,,,,,,,,,,,,,,,,,,,,,,,,,,,,,,,,,,,,,,,,,,,,,,,,,,,,,,,,,,,,,,,,
,822385097411,BAC,22/07/2003,001,2023-11-22_24h15.29.547,OS3_Mult_verification,2022.2.4,Win32,59.93048064,,,,,,,,,,,,,,,,,,,,,,,,,,,,,,,,,,,TRUE,3.3825,-0.079551787,-0.334173738,1,0,0,,,,,,Trial #6,,4,4,0,2,2,2,1,7,,,,,,,,,,,,,,,,,,,,,,,,,,,,,,,,,,,,,,,,,,,,,,,,,,,,,,,,,,,,,,,,,,,,,,,,,,,,,,,,,,,,,,,,,,,,,,,,,,,,,,,,,,,,,,,,,,,,,,
,822385097411,BAC,22/07/2003,001,2023-11-22_24h15.29.547,OS3_Mult_verification,2022.2.4,Win32,59.93048064,,,,,,,,,,,,,,,,,,,,,,,,,,,,,,,,,,,TRUE,3.3513,0.030252101,-0.353221323,1,0,0,,,,,,Trial #7,,4,4,0,0,0,0,1,8,,,,,,,,,,,,,,,,,,,,,,,,,,,,,,,,,,,,,,,,,,,,,,,,,,,,,,,,,,,,,,,,,,,,,,,,,,,,,,,,,,,,,,,,,,,,,,,,,,,,,,,,,,,,,,,,,,,,,,
,822385097411,BAC,22/07/2003,001,2023-11-22_24h15.29.547,OS3_Mult_verification,2022.2.4,Win32,59.93048064,,,,,,,,,,,,,,,,,,,,,,,,,,,,,,,,,,,TRUE,3.1956,0.022409032,-0.333053255,1,0,0,,,,,,Trial #7,,4,4,0,1,1,1,1,8,,,,,,,,,,,,,,,,,,,,,,,,,,,,,,,,,,,,,,,,,,,,,,,,,,,,,,,,,,,,,,,,,,,,,,,,,,,,,,,,,,,,,,,,,,,,,,,,,,,,,,,,,,,,,,,,,,,,,,
,822385097411,BAC,22/07/2003,001,2023-11-22_24h15.29.547,OS3_Mult_verification,2022.2.4,Win32,59.93048064,,,,,,,,,,,,,,,,,,,,,,,,,,,,,,,,,,,TRUE,3.0626,-0.01568624,-0.325210084,1,0,0,,,,,,Trial #7,,4,4,0,2,2,2,1,8,,,,,,,,,,,,,,,,,,,,,,,,,,,,,,,,,,,,,,,,,,,,,,,,,,,,,,,,,,,,,,,,,,,,,,,,,,,,,,,,,,,,,,,,,,,,,,,,,,,,,,,,,,,,,,,,,,,,,,
,822385097411,BAC,22/07/2003,001,2023-11-22_24h15.29.547,OS3_Mult_verification,2022.2.4,Win32,59.93048064,,,,,,,,,,,,,,,,,,,,,,,,,,,,,,,,,,,TRUE,3.0171,0.017927205,-0.346498634,1,0,0,,,,,,Trial #8,,5,5,0,0,0,0,1,9,,,,,,,,,,,,,,,,,,,,,,,,,,,,,,,,,,,,,,,,,,,,,,,,,,,,,,,,,,,,,,,,,,,,,,,,,,,,,,,,,,,,,,,,,,,,,,,,,,,,,,,,,,,,,,,,,,,,,,
,822385097411,BAC,22/07/2003,001,2023-11-22_24h15.29.547,OS3_Mult_verification,2022.2.4,Win32,59.93048064,,,,,,,,,,,,,,,,,,,,,,,,,,,,,,,,,,,FALSE,4.0323,0.025770377,-0.334173738,1,0,0,,,,,,Trial #8,,5,5,0,1,1,1,1,9,,,,,,,,,,,,,,,,,,,,,,,,,,,,,,,,,,,,,,,,,,,,,,,,,,,,,,,,,,,,,,,,,,,,,,,,,,,,,,,,,,,,,,,,,,,,,,,,,,,,,,,,,,,,,,,,,,,,,,
,822385097411,BAC,22/07/2003,001,2023-11-22_24h15.29.547,OS3_Mult_verification,2022.2.4,Win32,59.93048064,,,,,,,,,,,,,,,,,,,,,,,,,,,,,,,,,,,TRUE,5.4499,0.032493066,-0.361064494,1,0,0,,,,,,Trial #8,,5,5,0,2,2,2,1,9,,,,,,,,,,,,,,,,,,,,,,,,,,,,,,,,,,,,,,,,,,,,,,,,,,,,,,,,,,,,,,,,,,,,,,,,,,,,,,,,,,,,,,,,,,,,,,,,,,,,,,,,,,,,,,,,,,,,,,
,822385097411,BAC,22/07/2003,001,2023-11-22_24h15.29.547,OS3_Mult_verification,2022.2.4,Win32,59.93048064,,,,,,,,,,,,,,,,,,,,,,,,,,,,,,,,,,,TRUE,4.9793,-0.021288447,-0.339775945,1,0,0,,,,,,Trial #9,,5,5,0,0,0,0,1,10,,,,,,,,,,,,,,,,,,,,,,,,,,,,,,,,,,,,,,,,,,,,,,,,,,,,,,,,,,,,,,,,,,,,,,,,,,,,,,,,,,,,,,,,,,,,,,,,,,,,,,,,,,,,,,,,,,,,,,
,822385097411,BAC,22/07/2003,001,2023-11-22_24h15.29.547,OS3_Mult_verification,2022.2.4,Win32,59.93048064,,,,,,,,,,,,,,,,,,,,,,,,,,,,,,,,,,,TRUE,3.9492,0.039215755,-0.354341805,1,0,0,,,,,,Trial #9,,5,5,0,1,1,1,1,10,,,,,,,,,,,,,,,,,,,,,,,,,,,,,,,,,,,,,,,,,,,,,,,,,,,,,,,,,,,,,,,,,,,,,,,,,,,,,,,,,,,,,,,,,,,,,,,,,,,,,,,,,,,,,,,,,,,,,,
,822385097411,BAC,22/07/2003,001,2023-11-22_24h15.29.547,OS3_Mult_verification,2022.2.4,Win32,59.93048064,,,,,,,,,,,,,,,,,,,,,,,,,,,,,,,,,,,FALSE,3.816,0.116526679,-0.330812393,1,0,0,,,,,,Trial #9,,5,5,0,2,2,2,1,10,,,,,,,,,,,,,,,,,,,,,,,,,,,,,,,,,,,,,,,,,,,,,,,,,,,,,,,,,,,,,,,,,,,,,,,,,,,,,,,,,,,,,,,,,,,,,,,,,,,,,,,,,,,,,,,,,,,,,,
,822385097411,BAC,22/07/2003,001,2023-11-22_24h15.29.547,OS3_Mult_verification,2022.2.4,Win32,59.93048064,,,,,,,,,,,,,,,,,,,,,,,,,,,,,,,,,,,FALSE,5.2794,0.142296953,-0.327451049,1,0,0,,,,,,Trial #10,,5,5,0,0,0,0,1,11,,,,,,,,,,,,,,,,,,,,,,,,,,,,,,,,,,,,,,,,,,,,,,,,,,,,,,,,,,,,,,,,,,,,,,,,,,,,,,,,,,,,,,,,,,,,,,,,,,,,,,,,,,,,,,,,,,,,,,
,822385097411,BAC,22/07/2003,001,2023-11-22_24h15.29.547,OS3_Mult_verification,2022.2.4,Win32,59.93048064,,,,,,,,,,,,,,,,,,,,,,,,,,,,,,,,,,,FALSE,5.7464,0.05154065,-0.354341805,1,0,0,,,,,,Trial #10,,5,5,0,1,1,1,1,11,,,,,,,,,,,,,,,,,,,,,,,,,,,,,,,,,,,,,,,,,,,,,,,,,,,,,,,,,,,,,,,,,,,,,,,,,,,,,,,,,,,,,,,,,,,,,,,,,,,,,,,,,,,,,,,,,,,,,,
,822385097411,BAC,22/07/2003,001,2023-11-22_24h15.29.547,OS3_Mult_verification,2022.2.4,Win32,59.93048064,,,,,,,,,,,,,,,,,,,,,,,,,,,,,,,,,,,TRUE,6.0497,-0.082913131,-0.331932773,1,0,0,,,,,,Trial #10,,5,5,0,2,2,2,1,11,,,,,,,,,,,,,,,,,,,,,,,,,,,,,,,,,,,,,,,,,,,,,,,,,,,,,,,,,,,,,,,,,,,,,,,,,,,,,,,,,,,,,,,,,,,,,,,,,,,,,,,,,,,,,,,,,,,,,,
,822385097411,BAC,22/07/2003,001,2023-11-22_24h15.29.547,OS3_Mult_verification,2022.2.4,Win32,59.93048064,,,,,,,,,,,,,,,,,,,,,,,,,,,,,,,,,,,,,,,,,,,,,,,,,,,,,,,,,0,0,0,0,1,,,,,,,,,,,,,,,,,,,,,,,,,,,,,,,,,,,,,,,,,,,,,,,,,,,,,,,,,,,,,,,,,,,,,,,,,,,,,,,,,,,,,,,,,,,,,,,,,,,,,,,,,,,,,,,,,
,822385097411,BAC,22/07/2003,001,2023-11-22_24h15.29.547,OS3_Mult_verification,2022.2.4,Win32,59.93048064,,,,,,,,,,,,,,,,,,,,,,,,,,,,,,,,,,,,,,,,,,,,,,,,,,,,,,,,,,,,,,0,0,0,0,1,0,1,0,,,,,,,,,,,,,,,,,,,,,,,,,,,,,,,,,,,,,,,,,,,,,,,,,,,,,,,,,,,,,,,,,,,,,,,,,,,,,,,,,,,,,,,,,,,,,,,,,,,,,,,,,
,822385097411,BAC,22/07/2003,001,2023-11-22_24h15.29.547,OS3_Mult_verification,2022.2.4,Win32,59.93048064,,,,,,,,,,,,,,,,space,1.4724,,,,,,,,,,,,,,,,,,,,,,,,,,,,,,,,,,,,,,,,,,,,,,,,,,,,,right,1,1.0609,0,0,0,1,1,practice,4,3,4 | 3,1,0.05,0.065,incongruent,right,,,,,,,,,,,,,,,,,,,,,,,,,,,,,,,,,,,,,,,,,,,,,,,,,,,,,,,,,,,,,,,,,,,,,,,,,,,,,,,,,,,,,,,,
,822385097411,BAC,22/07/2003,001,2023-11-22_24h15.29.547,OS3_Mult_verification,2022.2.4,Win32,59.93048064,,,,,,,,,,,,,,,,,,,,,,,,,,,,,,,,,,,,,,,,,,,,,,,,,,,,,,,,,,,,,,,,,,,,,,right,1,0.6838,0,1,1,2,1,practice,9,9,9 | 9,0,0.05,0.065,neutral,right,,,,,,,,,,,,,,,,,,,,,,,,,,,,,,,,,,,,,,,,,,,,,,,,,,,,,,,,,,,,,,,,,,,,,,,,,,,,,,,,,,,,,,,,
,822385097411,BAC,22/07/2003,001,2023-11-22_24h15.29.547,OS3_Mult_verification,2022.2.4,Win32,59.93048064,,,,,,,,,,,,,,,,,,,,,,,,,,,,,,,,,,,,,,,,,,,,,,,,,,,,,,,,,,,,,,,,,,,,,,left,1,0.5059,0,2,2,0,1,practice,9,8,9 | 8,1,0.065,0.05,congruent,left,,,,,,,,,,,,,,,,,,,,,,,,,,,,,,,,,,,,,,,,,,,,,,,,,,,,,,,,,,,,,,,,,,,,,,,,,,,,,,,,,,,,,,,,
,822385097411,BAC,22/07/2003,001,2023-11-22_24h15.29.547,OS3_Mult_verification,2022.2.4,Win32,59.93048064,,,,,,,,,,,,,,,,,,,,,,,,,,,,,,,,,,,,,,,,,,,,,,,,,,,,,,,,,,,,,,,,,,,,,,left,1,0.8192,,,,,,physical,2,7,2 | 7,5,0.065,0.05,incongruent,left,0,0,0,41,1,,,,,,,,,,,,,,,,,,,,,,,,,,,,,,,,,,,,,,,,,,,,,,,,,,,,,,,,,,,,,,,,,,,,,,,,,,,,,,,,,,,
,822385097411,BAC,22/07/2003,001,2023-11-22_24h15.29.547,OS3_Mult_verification,2022.2.4,Win32,59.93048064,,,,,,,,,,,,,,,,,,,,,,,,,,,,,,,,,,,,,,,,,,,,,,,,,,,,,,,,,,,,,,,,,,,,,,right,1,0.5835,,,,,,physical,7,7,7 | 7,0,0.05,0.065,neutral,right,0,1,1,59,1,,,,,,,,,,,,,,,,,,,,,,,,,,,,,,,,,,,,,,,,,,,,,,,,,,,,,,,,,,,,,,,,,,,,,,,,,,,,,,,,,,,
,822385097411,BAC,22/07/2003,001,2023-11-22_24h15.29.547,OS3_Mult_verification,2022.2.4,Win32,59.93048064,,,,,,,,,,,,,,,,,,,,,,,,,,,,,,,,,,,,,,,,,,,,,,,,,,,,,,,,,,,,,,,,,,,,,,right,1,0.5398,,,,,,physical,6,1,6 | 1,5,0.05,0.065,incongruent,right,0,2,2,44,1,,,,,,,,,,,,,,,,,,,,,,,,,,,,,,,,,,,,,,,,,,,,,,,,,,,,,,,,,,,,,,,,,,,,,,,,,,,,,,,,,,,
,822385097411,BAC,22/07/2003,001,2023-11-22_24h15.29.547,OS3_Mult_verification,2022.2.4,Win32,59.93048064,,,,,,,,,,,,,,,,,,,,,,,,,,,,,,,,,,,,,,,,,,,,,,,,,,,,,,,,,,,,,,,,,,,,,,right,1,0.4674,,,,,,physical,2,2,2 | 2,0,0.05,0.065,neutral,right,0,3,3,65,1,,,,,,,,,,,,,,,,,,,,,,,,,,,,,,,,,,,,,,,,,,,,,,,,,,,,,,,,,,,,,,,,,,,,,,,,,,,,,,,,,,,
,822385097411,BAC,22/07/2003,001,2023-11-22_24h15.29.547,OS3_Mult_verification,2022.2.4,Win32,59.93048064,,,,,,,,,,,,,,,,,,,,,,,,,,,,,,,,,,,,,,,,,,,,,,,,,,,,,,,,,,,,,,,,,,,,,,left,1,0.5004,,,,,,physical,2,1,2 | 1,1,0.065,0.05,congruent,left,0,4,4,4,1,,,,,,,,,,,,,,,,,,,,,,,,,,,,,,,,,,,,,,,,,,,,,,,,,,,,,,,,,,,,,,,,,,,,,,,,,,,,,,,,,,,
,822385097411,BAC,22/07/2003,001,2023-11-22_24h15.29.547,OS3_Mult_verification,2022.2.4,Win32,59.93048064,,,,,,,,,,,,,,,,,,,,,,,,,,,,,,,,,,,,,,,,,,,,,,,,,,,,,,,,,,,,,,,,,,,,,,right,1,0.409,,,,,,physical,9,9,9 | 9,0,0.05,0.065,neutral,right,0,5,5,63,1,,,,,,,,,,,,,,,,,,,,,,,,,,,,,,,,,,,,,,,,,,,,,,,,,,,,,,,,,,,,,,,,,,,,,,,,,,,,,,,,,,,
,822385097411,BAC,22/07/2003,001,2023-11-22_24h15.29.547,OS3_Mult_verification,2022.2.4,Win32,59.93048064,,,,,,,,,,,,,,,,,,,,,,,,,,,,,,,,,,,,,,,,,,,,,,,,,,,,,,,,,,,,,,,,,,,,,,left,1,0.5005,,,,,,physical,3,8,3 | 8,5,0.065,0.05,incongruent,left,0,6,6,42,1,,,,,,,,,,,,,,,,,,,,,,,,,,,,,,,,,,,,,,,,,,,,,,,,,,,,,,,,,,,,,,,,,,,,,,,,,,,,,,,,,,,
,822385097411,BAC,22/07/2003,001,2023-11-22_24h15.29.547,OS3_Mult_verification,2022.2.4,Win32,59.93048064,,,,,,,,,,,,,,,,,,,,,,,,,,,,,,,,,,,,,,,,,,,,,,,,,,,,,,,,,,,,,,,,,,,,,,left,1,0.5557,,,,,,physical,7,7,7 | 7,0,0.065,0.05,neutral,left,0,7,7,54,1,,,,,,,,,,,,,,,,,,,,,,,,,,,,,,,,,,,,,,,,,,,,,,,,,,,,,,,,,,,,,,,,,,,,,,,,,,,,,,,,,,,
,822385097411,BAC,22/07/2003,001,2023-11-22_24h15.29.547,OS3_Mult_verification,2022.2.4,Win32,59.93048064,,,,,,,,,,,,,,,,,,,,,,,,,,,,,,,,,,,,,,,,,,,,,,,,,,,,,,,,,,,,,,,,,,,,,,right,1,0.6293,,,,,,physical,4,2,4 | 2,2,0.05,0.065,incongruent,right,0,8,8,37,1,,,,,,,,,,,,,,,,,,,,,,,,,,,,,,,,,,,,,,,,,,,,,,,,,,,,,,,,,,,,,,,,,,,,,,,,,,,,,,,,,,,
,822385097411,BAC,22/07/2003,001,2023-11-22_24h15.29.547,OS3_Mult_verification,2022.2.4,Win32,59.93048064,,,,,,,,,,,,,,,,,,,,,,,,,,,,,,,,,,,,,,,,,,,,,,,,,,,,,,,,,,,,,,,,,,,,,,right,1,0.5512,,,,,,physical,3,3,3 | 3,0,0.05,0.065,neutral,right,0,9,9,60,1,,,,,,,,,,,,,,,,,,,,,,,,,,,,,,,,,,,,,,,,,,,,,,,,,,,,,,,,,,,,,,,,,,,,,,,,,,,,,,,,,,,
,822385097411,BAC,22/07/2003,001,2023-11-22_24h15.29.547,OS3_Mult_verification,2022.2.4,Win32,59.93048064,,,,,,,,,,,,,,,,,,,,,,,,,,,,,,,,,,,,,,,,,,,,,,,,,,,,,,,,,,,,,,,,,,,,,,left,1,0.5083,,,,,,physical,3,3,3 | 3,0,0.065,0.05,neutral,left,0,10,10,49,1,,,,,,,,,,,,,,,,,,,,,,,,,,,,,,,,,,,,,,,,,,,,,,,,,,,,,,,,,,,,,,,,,,,,,,,,,,,,,,,,,,,
,822385097411,BAC,22/07/2003,001,2023-11-22_24h15.29.547,OS3_Mult_verification,2022.2.4,Win32,59.93048064,,,,,,,,,,,,,,,,,,,,,,,,,,,,,,,,,,,,,,,,,,,,,,,,,,,,,,,,,,,,,,,,,,,,,,right,1,0.4519,,,,,,physical,2,2,2 | 2,0,0.05,0.065,neutral,right,0,11,11,57,1,,,,,,,,,,,,,,,,,,,,,,,,,,,,,,,,,,,,,,,,,,,,,,,,,,,,,,,,,,,,,,,,,,,,,,,,,,,,,,,,,,,
,822385097411,BAC,22/07/2003,001,2023-11-22_24h15.29.547,OS3_Mult_verification,2022.2.4,Win32,59.93048064,,,,,,,,,,,,,,,,,,,,,,,,,,,,,,,,,,,,,,,,,,,,,,,,,,,,,,,,,,,,,,,,,,,,,,right,1,0.6052,,,,,,physical,4,9,4 | 9,5,0.05,0.065,congruent,right,0,12,12,19,1,,,,,,,,,,,,,,,,,,,,,,,,,,,,,,,,,,,,,,,,,,,,,,,,,,,,,,,,,,,,,,,,,,,,,,,,,,,,,,,,,,,
,822385097411,BAC,22/07/2003,001,2023-11-22_24h15.29.547,OS3_Mult_verification,2022.2.4,Win32,59.93048064,,,,,,,,,,,,,,,,,,,,,,,,,,,,,,,,,,,,,,,,,,,,,,,,,,,,,,,,,,,,,,,,,,,,,,left,1,0.5027,,,,,,physical,1,3,1 | 3,2,0.065,0.05,incongruent,left,0,13,13,32,1,,,,,,,,,,,,,,,,,,,,,,,,,,,,,,,,,,,,,,,,,,,,,,,,,,,,,,,,,,,,,,,,,,,,,,,,,,,,,,,,,,,
,822385097411,BAC,22/07/2003,001,2023-11-22_24h15.29.547,OS3_Mult_verification,2022.2.4,Win32,59.93048064,,,,,,,,,,,,,,,,,,,,,,,,,,,,,,,,,,,,,,,,,,,,,,,,,,,,,,,,,,,,,,,,,,,,,,right,1,0.4508,,,,,,physical,1,2,1 | 2,1,0.05,0.065,congruent,right,0,14,14,0,1,,,,,,,,,,,,,,,,,,,,,,,,,,,,,,,,,,,,,,,,,,,,,,,,,,,,,,,,,,,,,,,,,,,,,,,,,,,,,,,,,,,
,822385097411,BAC,22/07/2003,001,2023-11-22_24h15.29.547,OS3_Mult_verification,2022.2.4,Win32,59.93048064,,,,,,,,,,,,,,,,,,,,,,,,,,,,,,,,,,,,,,,,,,,,,,,,,,,,,,,,,,,,,,,,,,,,,,left,1,0.48,,,,,,physical,9,9,9 | 9,0,0.065,0.05,neutral,left,0,15,15,55,1,,,,,,,,,,,,,,,,,,,,,,,,,,,,,,,,,,,,,,,,,,,,,,,,,,,,,,,,,,,,,,,,,,,,,,,,,,,,,,,,,,,
,822385097411,BAC,22/07/2003,001,2023-11-22_24h15.29.547,OS3_Mult_verification,2022.2.4,Win32,59.93048064,,,,,,,,,,,,,,,,,,,,,,,,,,,,,,,,,,,,,,,,,,,,,,,,,,,,,,,,,,,,,,,,,,,,,,right,1,0.4113,,,,,,physical,2,7,2 | 7,5,0.05,0.065,congruent,right,0,16,16,17,1,,,,,,,,,,,,,,,,,,,,,,,,,,,,,,,,,,,,,,,,,,,,,,,,,,,,,,,,,,,,,,,,,,,,,,,,,,,,,,,,,,,
,822385097411,BAC,22/07/2003,001,2023-11-22_24h15.29.547,OS3_Mult_verification,2022.2.4,Win32,59.93048064,,,,,,,,,,,,,,,,,,,,,,,,,,,,,,,,,,,,,,,,,,,,,,,,,,,,,,,,,,,,,,,,,,,,,,right,1,0.5177,,,,,,physical,3,1,3 | 1,2,0.05,0.065,incongruent,right,0,17,17,36,1,,,,,,,,,,,,,,,,,,,,,,,,,,,,,,,,,,,,,,,,,,,,,,,,,,,,,,,,,,,,,,,,,,,,,,,,,,,,,,,,,,,
,822385097411,BAC,22/07/2003,001,2023-11-22_24h15.29.547,OS3_Mult_verification,2022.2.4,Win32,59.93048064,,,,,,,,,,,,,,,,,,,,,,,,,,,,,,,,,,,,,,,,,,,,,,,,,,,,,,,,,,,,,,,,,,,,,,right,1,0.46,,,,,,physical,4,4,4 | 4,0,0.05,0.065,neutral,right,0,18,18,67,1,,,,,,,,,,,,,,,,,,,,,,,,,,,,,,,,,,,,,,,,,,,,,,,,,,,,,,,,,,,,,,,,,,,,,,,,,,,,,,,,,,,
,822385097411,BAC,22/07/2003,001,2023-11-22_24h15.29.547,OS3_Mult_verification,2022.2.4,Win32,59.93048064,,,,,,,,,,,,,,,,,,,,,,,,,,,,,,,,,,,,,,,,,,,,,,,,,,,,,,,,,,,,,,,,,,,,,,right,1,0.4247,,,,,,physical,6,7,6 | 7,1,0.05,0.065,congruent,right,0,19,19,2,1,,,,,,,,,,,,,,,,,,,,,,,,,,,,,,,,,,,,,,,,,,,,,,,,,,,,,,,,,,,,,,,,,,,,,,,,,,,,,,,,,,,
,822385097411,BAC,22/07/2003,001,2023-11-22_24h15.29.547,OS3_Mult_verification,2022.2.4,Win32,59.93048064,,,,,,,,,,,,,,,,,,,,,,,,,,,,,,,,,,,,,,,,,,,,,,,,,,,,,,,,,,,,,,,,,,,,,,right,1,0.8329,,,,,,physical,1,6,1 | 6,5,0.05,0.065,congruent,right,0,20,20,16,1,,,,,,,,,,,,,,,,,,,,,,,,,,,,,,,,,,,,,,,,,,,,,,,,,,,,,,,,,,,,,,,,,,,,,,,,,,,,,,,,,,,
,822385097411,BAC,22/07/2003,001,2023-11-22_24h15.29.547,OS3_Mult_verification,2022.2.4,Win32,59.93048064,,,,,,,,,,,,,,,,,,,,,,,,,,,,,,,,,,,,,,,,,,,,,,,,,,,,,,,,,,,,,,,,,,,,,,left,1,0.5675,,,,,,physical,2,4,2 | 4,2,0.065,0.05,incongruent,left,0,21,21,33,1,,,,,,,,,,,,,,,,,,,,,,,,,,,,,,,,,,,,,,,,,,,,,,,,,,,,,,,,,,,,,,,,,,,,,,,,,,,,,,,,,,,
,822385097411,BAC,22/07/2003,001,2023-11-22_24h15.29.547,OS3_Mult_verification,2022.2.4,Win32,59.93048064,,,,,,,,,,,,,,,,,,,,,,,,,,,,,,,,,,,,,,,,,,,,,,,,,,,,,,,,,,,,,,,,,,,,,,right,1,0.4561,,,,,,physical,8,6,8 | 6,2,0.05,0.065,incongruent,right,0,22,22,38,1,,,,,,,,,,,,,,,,,,,,,,,,,,,,,,,,,,,,,,,,,,,,,,,,,,,,,,,,,,,,,,,,,,,,,,,,,,,,,,,,,,,
,822385097411,BAC,22/07/2003,001,2023-11-22_24h15.29.547,OS3_Mult_verification,2022.2.4,Win32,59.93048064,,,,,,,,,,,,,,,,,,,,,,,,,,,,,,,,,,,,,,,,,,,,,,,,,,,,,,,,,,,,,,,,,,,,,,left,1,0.4884,,,,,,physical,4,2,4 | 2,2,0.065,0.05,congruent,left,0,23,23,13,1,,,,,,,,,,,,,,,,,,,,,,,,,,,,,,,,,,,,,,,,,,,,,,,,,,,,,,,,,,,,,,,,,,,,,,,,,,,,,,,,,,,
,822385097411,BAC,22/07/2003,001,2023-11-22_24h15.29.547,OS3_Mult_verification,2022.2.4,Win32,59.93048064,,,,,,,,,,,,,,,,,,,,,,,,,,,,,,,,,,,,,,,,,,,,,,,,,,,,,,,,,,,,,,,,,,,,,,left,1,0.5844,,,,,,physical,6,8,6 | 8,2,0.065,0.05,incongruent,left,0,24,24,34,1,,,,,,,,,,,,,,,,,,,,,,,,,,,,,,,,,,,,,,,,,,,,,,,,,,,,,,,,,,,,,,,,,,,,,,,,,,,,,,,,,,,
,822385097411,BAC,22/07/2003,001,2023-11-22_24h15.29.547,OS3_Mult_verification,2022.2.4,Win32,59.93048064,,,,,,,,,,,,,,,,,,,,,,,,,,,,,,,,,,,,,,,,,,,,,,,,,,,,,,,,,,,,,,,,,,,,,,left,1,0.4343,,,,,,physical,8,3,8 | 3,5,0.065,0.05,congruent,left,0,25,25,22,1,,,,,,,,,,,,,,,,,,,,,,,,,,,,,,,,,,,,,,,,,,,,,,,,,,,,,,,,,,,,,,,,,,,,,,,,,,,,,,,,,,,
,822385097411,BAC,22/07/2003,001,2023-11-22_24h15.29.547,OS3_Mult_verification,2022.2.4,Win32,59.93048064,,,,,,,,,,,,,,,,,,,,,,,,,,,,,,,,,,,,,,,,,,,,,,,,,,,,,,,,,,,,,,,,,,,,,,left,1,0.5837,,,,,,physical,8,8,8 | 8,0,0.065,0.05,neutral,left,0,26,26,51,1,,,,,,,,,,,,,,,,,,,,,,,,,,,,,,,,,,,,,,,,,,,,,,,,,,,,,,,,,,,,,,,,,,,,,,,,,,,,,,,,,,,
,822385097411,BAC,22/07/2003,001,2023-11-22_24h15.29.547,OS3_Mult_verification,2022.2.4,Win32,59.93048064,,,,,,,,,,,,,,,,,,,,,,,,,,,,,,,,,,,,,,,,,,,,,,,,,,,,,,,,,,,,,,,,,,,,,,right,1,0.484,,,,,,physical,4,4,4 | 4,0,0.05,0.065,neutral,right,0,27,27,61,1,,,,,,,,,,,,,,,,,,,,,,,,,,,,,,,,,,,,,,,,,,,,,,,,,,,,,,,,,,,,,,,,,,,,,,,,,,,,,,,,,,,
,822385097411,BAC,22/07/2003,001,2023-11-22_24h15.29.547,OS3_Mult_verification,2022.2.4,Win32,59.93048064,,,,,,,,,,,,,,,,,,,,,,,,,,,,,,,,,,,,,,,,,,,,,,,,,,,,,,,,,,,,,,,,,,,,,,right,1,0.5338,,,,,,physical,7,7,7 | 7,0,0.05,0.065,neutral,right,0,28,28,69,1,,,,,,,,,,,,,,,,,,,,,,,,,,,,,,,,,,,,,,,,,,,,,,,,,,,,,,,,,,,,,,,,,,,,,,,,,,,,,,,,,,,
,822385097411,BAC,22/07/2003,001,2023-11-22_24h15.29.547,OS3_Mult_verification,2022.2.4,Win32,59.93048064,,,,,,,,,,,,,,,,,,,,,,,,,,,,,,,,,,,,,,,,,,,,,,,,,,,,,,,,,,,,,,,,,,,,,,right,1,0.402,,,,,,physical,7,6,7 | 6,1,0.05,0.065,incongruent,right,0,29,29,30,1,,,,,,,,,,,,,,,,,,,,,,,,,,,,,,,,,,,,,,,,,,,,,,,,,,,,,,,,,,,,,,,,,,,,,,,,,,,,,,,,,,,
,822385097411,BAC,22/07/2003,001,2023-11-22_24h15.29.547,OS3_Mult_verification,2022.2.4,Win32,59.93048064,,,,,,,,,,,,,,,,,,,,,,,,,,,,,,,,,,,,,,,,,,,,,,,,,,,,,,,,,,,,,,,,,,,,,,left,1,0.5043,,,,,,physical,1,6,1 | 6,5,0.065,0.05,incongruent,left,0,30,30,40,1,,,,,,,,,,,,,,,,,,,,,,,,,,,,,,,,,,,,,,,,,,,,,,,,,,,,,,,,,,,,,,,,,,,,,,,,,,,,,,,,,,,
,822385097411,BAC,22/07/2003,001,2023-11-22_24h15.29.547,OS3_Mult_verification,2022.2.4,Win32,59.93048064,,,,,,,,,,,,,,,,,,,,,,,,,,,,,,,,,,,,,,,,,,,,,,,,,,,,,,,,,,,,,,,,,,,,,,right,1,0.6345,,,,,,physical,1,3,1 | 3,2,0.05,0.065,congruent,right,0,31,31,8,1,,,,,,,,,,,,,,,,,,,,,,,,,,,,,,,,,,,,,,,,,,,,,,,,,,,,,,,,,,,,,,,,,,,,,,,,,,,,,,,,,,,
,822385097411,BAC,22/07/2003,001,2023-11-22_24h15.29.547,OS3_Mult_verification,2022.2.4,Win32,59.93048064,,,,,,,,,,,,,,,,,,,,,,,,,,,,,,,,,,,,,,,,,,,,,,,,,,,,,,,,,,,,,,,,,,,,,,right,1,0.6175,,,,,,physical,4,3,4 | 3,1,0.05,0.065,incongruent,right,0,32,32,29,1,,,,,,,,,,,,,,,,,,,,,,,,,,,,,,,,,,,,,,,,,,,,,,,,,,,,,,,,,,,,,,,,,,,,,,,,,,,,,,,,,,,
,822385097411,BAC,22/07/2003,001,2023-11-22_24h15.29.547,OS3_Mult_verification,2022.2.4,Win32,59.93048064,,,,,,,,,,,,,,,,,,,,,,,,,,,,,,,,,,,,,,,,,,,,,,,,,,,,,,,,,,,,,,,,,,,,,,right,1,0.5272,,,,,,physical,3,8,3 | 8,5,0.05,0.065,congruent,right,0,33,33,18,1,,,,,,,,,,,,,,,,,,,,,,,,,,,,,,,,,,,,,,,,,,,,,,,,,,,,,,,,,,,,,,,,,,,,,,,,,,,,,,,,,,,
,822385097411,BAC,22/07/2003,001,2023-11-22_24h15.29.547,OS3_Mult_verification,2022.2.4,Win32,59.93048064,,,,,,,,,,,,,,,,,,,,,,,,,,,,,,,,,,,,,,,,,,,,,,,,,,,,,,,,,,,,,,,,,,,,,,left,1,0.521,,,,,,physical,7,6,7 | 6,1,0.065,0.05,congruent,left,0,34,34,6,1,,,,,,,,,,,,,,,,,,,,,,,,,,,,,,,,,,,,,,,,,,,,,,,,,,,,,,,,,,,,,,,,,,,,,,,,,,,,,,,,,,,
,822385097411,BAC,22/07/2003,001,2023-11-22_24h15.29.547,OS3_Mult_verification,2022.2.4,Win32,59.93048064,,,,,,,,,,,,,,,,,,,,,,,,,,,,,,,,,,,,,,,,,,,,,,,,,,,,,,,,,,,,,,,,,,,,,,left,1,0.4111,,,,,,physical,1,2,1 | 2,1,0.065,0.05,incongruent,left,0,35,35,24,1,,,,,,,,,,,,,,,,,,,,,,,,,,,,,,,,,,,,,,,,,,,,,,,,,,,,,,,,,,,,,,,,,,,,,,,,,,,,,,,,,,,
,822385097411,BAC,22/07/2003,001,2023-11-22_24h15.29.547,OS3_Mult_verification,2022.2.4,Win32,59.93048064,,,,,,,,,,,,,,,,,,,,,,,,,,,,,,,,,,,,,,,,,,,,,,,,,,,,,,,,,,,,,,,,,,,,,,left,1,0.4675,,,,,,physical,2,2,2 | 2,0,0.065,0.05,neutral,left,0,36,36,52,1,,,,,,,,,,,,,,,,,,,,,,,,,,,,,,,,,,,,,,,,,,,,,,,,,,,,,,,,,,,,,,,,,,,,,,,,,,,,,,,,,,,
,822385097411,BAC,22/07/2003,001,2023-11-22_24h15.29.547,OS3_Mult_verification,2022.2.4,Win32,59.93048064,,,,,,,,,,,,,,,,,,,,,,,,,,,,,,,,,,,,,,,,,,,,,,,,,,,,,,,,,,,,,,,,,,,,,,left,1,1.0493,,,,,,physical,3,1,3 | 1,2,0.065,0.05,congruent,left,0,37,37,12,1,,,,,,,,,,,,,,,,,,,,,,,,,,,,,,,,,,,,,,,,,,,,,,,,,,,,,,,,,,,,,,,,,,,,,,,,,,,,,,,,,,,
,822385097411,BAC,22/07/2003,001,2023-11-22_24h15.29.547,OS3_Mult_verification,2022.2.4,Win32,59.93048064,,,,,,,,,,,,,,,,,,,,,,,,,,,,,,,,,,,,,,,,,,,,,,,,,,,,,,,,,,,,,,,,,,,,,,right,1,0.4521,,,,,,physical,8,9,8 | 9,1,0.05,0.065,congruent,right,0,38,38,3,1,,,,,,,,,,,,,,,,,,,,,,,,,,,,,,,,,,,,,,,,,,,,,,,,,,,,,,,,,,,,,,,,,,,,,,,,,,,,,,,,,,,
,822385097411,BAC,22/07/2003,001,2023-11-22_24h15.29.547,OS3_Mult_verification,2022.2.4,Win32,59.93048064,,,,,,,,,,,,,,,,,,,,,,,,,,,,,,,,,,,,,,,,,,,,,,,,,,,,,,,,,,,,,,,,,,,,,,left,1,0.5169,,,,,,physical,4,9,4 | 9,5,0.065,0.05,incongruent,left,0,39,39,43,1,,,,,,,,,,,,,,,,,,,,,,,,,,,,,,,,,,,,,,,,,,,,,,,,,,,,,,,,,,,,,,,,,,,,,,,,,,,,,,,,,,,
,822385097411,BAC,22/07/2003,001,2023-11-22_24h15.29.547,OS3_Mult_verification,2022.2.4,Win32,59.93048064,,,,,,,,,,,,,,,,,,,,,,,,,,,,,,,,,,,,,,,,,,,,,,,,,,,,,,,,,,,,,,,,,,,,,,left,1,0.6372,,,,,,physical,6,6,6 | 6,0,0.065,0.05,neutral,left,0,40,40,50,1,,,,,,,,,,,,,,,,,,,,,,,,,,,,,,,,,,,,,,,,,,,,,,,,,,,,,,,,,,,,,,,,,,,,,,,,,,,,,,,,,,,
,822385097411,BAC,22/07/2003,001,2023-11-22_24h15.29.547,OS3_Mult_verification,2022.2.4,Win32,59.93048064,,,,,,,,,,,,,,,,,,,,,,,,,,,,,,,,,,,,,,,,,,,,,,,,,,,,,,,,,,,,,,,,,,,,,,left,1,0.5964,,,,,,physical,6,1,6 | 1,5,0.065,0.05,congruent,left,0,41,41,20,1,,,,,,,,,,,,,,,,,,,,,,,,,,,,,,,,,,,,,,,,,,,,,,,,,,,,,,,,,,,,,,,,,,,,,,,,,,,,,,,,,,,
,822385097411,BAC,22/07/2003,001,2023-11-22_24h15.29.547,OS3_Mult_verification,2022.2.4,Win32,59.93048064,,,,,,,,,,,,,,,,,,,,,,,,,,,,,,,,,,,,,,,,,,,,,,,,,,,,,,,,,,,,,,,,,,,,,,right,1,0.4571,,,,,,physical,1,1,1 | 1,0,0.05,0.065,neutral,right,0,42,42,56,1,,,,,,,,,,,,,,,,,,,,,,,,,,,,,,,,,,,,,,,,,,,,,,,,,,,,,,,,,,,,,,,,,,,,,,,,,,,,,,,,,,,
,822385097411,BAC,22/07/2003,001,2023-11-22_24h15.29.547,OS3_Mult_verification,2022.2.4,Win32,59.93048064,,,,,,,,,,,,,,,,,,,,,,,,,,,,,,,,,,,,,,,,,,,,,,,,,,,,,,,,,,,,,,,,,,,,,,left,1,0.4754,,,,,,physical,4,3,4 | 3,1,0.065,0.05,congruent,left,0,43,43,5,1,,,,,,,,,,,,,,,,,,,,,,,,,,,,,,,,,,,,,,,,,,,,,,,,,,,,,,,,,,,,,,,,,,,,,,,,,,,,,,,,,,,
,822385097411,BAC,22/07/2003,001,2023-11-22_24h15.29.547,OS3_Mult_verification,2022.2.4,Win32,59.93048064,,,,,,,,,,,,,,,,,,,,,,,,,,,,,,,,,,,,,,,,,,,,,,,,,,,,,,,,,,,,,,,,,,,,,,left,1,0.4682,,,,,,physical,6,7,6 | 7,1,0.065,0.05,incongruent,left,0,44,44,26,1,,,,,,,,,,,,,,,,,,,,,,,,,,,,,,,,,,,,,,,,,,,,,,,,,,,,,,,,,,,,,,,,,,,,,,,,,,,,,,,,,,,
,822385097411,BAC,22/07/2003,001,2023-11-22_24h15.29.547,OS3_Mult_verification,2022.2.4,Win32,59.93048064,,,,,,,,,,,,,,,,,,,,,,,,,,,,,,,,,,,,,,,,,,,,,,,,,,,,,,,,,,,,,,,,,,,,,,right,1,0.4692,,,,,,physical,8,3,8 | 3,5,0.05,0.065,incongruent,right,0,45,45,46,1,,,,,,,,,,,,,,,,,,,,,,,,,,,,,,,,,,,,,,,,,,,,,,,,,,,,,,,,,,,,,,,,,,,,,,,,,,,,,,,,,,,
,822385097411,BAC,22/07/2003,001,2023-11-22_24h15.29.547,OS3_Mult_verification,2022.2.4,Win32,59.93048064,,,,,,,,,,,,,,,,,,,,,,,,,,,,,,,,,,,,,,,,,,,,,,,,,,,,,,,,,,,,,,,,,,,,,,right,1,0.428,,,,,,physical,7,2,7 | 2,5,0.05,0.065,incongruent,right,0,46,46,45,1,,,,,,,,,,,,,,,,,,,,,,,,,,,,,,,,,,,,,,,,,,,,,,,,,,,,,,,,,,,,,,,,,,,,,,,,,,,,,,,,,,,
,822385097411,BAC,22/07/2003,001,2023-11-22_24h15.29.547,OS3_Mult_verification,2022.2.4,Win32,59.93048064,,,,,,,,,,,,,,,,,,,,,,,,,,,,,,,,,,,,,,,,,,,,,,,,,,,,,,,,,,,,,,,,,,,,,,left,1,0.4714,,,,,,physical,8,8,8 | 8,0,0.065,0.05,neutral,left,0,47,47,70,1,,,,,,,,,,,,,,,,,,,,,,,,,,,,,,,,,,,,,,,,,,,,,,,,,,,,,,,,,,,,,,,,,,,,,,,,,,,,,,,,,,,
,822385097411,BAC,22/07/2003,001,2023-11-22_24h15.29.547,OS3_Mult_verification,2022.2.4,Win32,59.93048064,,,,,,,,,,,,,,,,,,,,,,,,,,,,,,,,,,,,,,,,,,,,,,,,,,,,,,,,,,,,,,,,,,,,,,right,1,0.4868,,,,,,physical,6,6,6 | 6,0,0.05,0.065,neutral,right,0,48,48,58,1,,,,,,,,,,,,,,,,,,,,,,,,,,,,,,,,,,,,,,,,,,,,,,,,,,,,,,,,,,,,,,,,,,,,,,,,,,,,,,,,,,,
,822385097411,BAC,22/07/2003,001,2023-11-22_24h15.29.547,OS3_Mult_verification,2022.2.4,Win32,59.93048064,,,,,,,,,,,,,,,,,,,,,,,,,,,,,,,,,,,,,,,,,,,,,,,,,,,,,,,,,,,,,,,,,,,,,,right,1,0.5242,,,,,,physical,6,8,6 | 8,2,0.05,0.065,congruent,right,0,49,49,10,1,,,,,,,,,,,,,,,,,,,,,,,,,,,,,,,,,,,,,,,,,,,,,,,,,,,,,,,,,,,,,,,,,,,,,,,,,,,,,,,,,,,
,822385097411,BAC,22/07/2003,001,2023-11-22_24h15.29.547,OS3_Mult_verification,2022.2.4,Win32,59.93048064,,,,,,,,,,,,,,,,,,,,,,,,,,,,,,,,,,,,,,,,,,,,,,,,,,,,,,,,,,,,,,,,,,,,,,left,1,0.5285,,,,,,physical,7,2,7 | 2,5,0.065,0.05,congruent,left,0,50,50,21,1,,,,,,,,,,,,,,,,,,,,,,,,,,,,,,,,,,,,,,,,,,,,,,,,,,,,,,,,,,,,,,,,,,,,,,,,,,,,,,,,,,,
,822385097411,BAC,22/07/2003,001,2023-11-22_24h15.29.547,OS3_Mult_verification,2022.2.4,Win32,59.93048064,,,,,,,,,,,,,,,,,,,,,,,,,,,,,,,,,,,,,,,,,,,,,,,,,,,,,,,,,,,,,,,,,,,,,,left,1,0.4843,,,,,,physical,1,1,1 | 1,0,0.065,0.05,neutral,left,0,51,51,64,1,,,,,,,,,,,,,,,,,,,,,,,,,,,,,,,,,,,,,,,,,,,,,,,,,,,,,,,,,,,,,,,,,,,,,,,,,,,,,,,,,,,
,822385097411,BAC,22/07/2003,001,2023-11-22_24h15.29.547,OS3_Mult_verification,2022.2.4,Win32,59.93048064,,,,,,,,,,,,,,,,,,,,,,,,,,,,,,,,,,,,,,,,,,,,,,,,,,,,,,,,,,,,,,,,,,,,,,right,1,0.3951,,,,,,physical,3,4,3 | 4,1,0.05,0.065,congruent,right,0,52,52,1,1,,,,,,,,,,,,,,,,,,,,,,,,,,,,,,,,,,,,,,,,,,,,,,,,,,,,,,,,,,,,,,,,,,,,,,,,,,,,,,,,,,,
,822385097411,BAC,22/07/2003,001,2023-11-22_24h15.29.547,OS3_Mult_verification,2022.2.4,Win32,59.93048064,,,,,,,,,,,,,,,,,,,,,,,,,,,,,,,,,,,,,,,,,,,,,,,,,,,,,,,,,,,,,,,,,,,,,,left,1,0.4059,,,,,,physical,1,1,1 | 1,0,0.065,0.05,neutral,left,0,53,53,48,1,,,,,,,,,,,,,,,,,,,,,,,,,,,,,,,,,,,,,,,,,,,,,,,,,,,,,,,,,,,,,,,,,,,,,,,,,,,,,,,,,,,
,822385097411,BAC,22/07/2003,001,2023-11-22_24h15.29.547,OS3_Mult_verification,2022.2.4,Win32,59.93048064,,,,,,,,,,,,,,,,,,,,,,,,,,,,,,,,,,,,,,,,,,,,,,,,,,,,,,,,,,,,,,,,,,,,,,left,1,0.4444,,,,,,physical,9,8,9 | 8,1,0.065,0.05,congruent,left,0,54,54,7,1,,,,,,,,,,,,,,,,,,,,,,,,,,,,,,,,,,,,,,,,,,,,,,,,,,,,,,,,,,,,,,,,,,,,,,,,,,,,,,,,,,,
,822385097411,BAC,22/07/2003,001,2023-11-22_24h15.29.547,OS3_Mult_verification,2022.2.4,Win32,59.93048064,,,,,,,,,,,,,,,,,,,,,,,,,,,,,,,,,,,,,,,,,,,,,,,,,,,,,,,,,,,,,,,,,,,,,,right,1,0.4257,,,,,,physical,9,4,9 | 4,5,0.05,0.065,incongruent,right,0,55,55,47,1,,,,,,,,,,,,,,,,,,,,,,,,,,,,,,,,,,,,,,,,,,,,,,,,,,,,,,,,,,,,,,,,,,,,,,,,,,,,,,,,,,,
,822385097411,BAC,22/07/2003,001,2023-11-22_24h15.29.547,OS3_Mult_verification,2022.2.4,Win32,59.93048064,,,,,,,,,,,,,,,,,,,,,,,,,,,,,,,,,,,,,,,,,,,,,,,,,,,,,,,,,,,,,,,,,,,,,,left,1,0.6023,,,,,,physical,3,4,3 | 4,1,0.065,0.05,incongruent,left,0,56,56,25,1,,,,,,,,,,,,,,,,,,,,,,,,,,,,,,,,,,,,,,,,,,,,,,,,,,,,,,,,,,,,,,,,,,,,,,,,,,,,,,,,,,,
,822385097411,BAC,22/07/2003,001,2023-11-22_24h15.29.547,OS3_Mult_verification,2022.2.4,Win32,59.93048064,,,,,,,,,,,,,,,,,,,,,,,,,,,,,,,,,,,,,,,,,,,,,,,,,,,,,,,,,,,,,,,,,,,,,,right,1,0.4082,,,,,,physical,9,7,9 | 7,2,0.05,0.065,incongruent,right,0,57,57,39,1,,,,,,,,,,,,,,,,,,,,,,,,,,,,,,,,,,,,,,,,,,,,,,,,,,,,,,,,,,,,,,,,,,,,,,,,,,,,,,,,,,,
,822385097411,BAC,22/07/2003,001,2023-11-22_24h15.29.547,OS3_Mult_verification,2022.2.4,Win32,59.93048064,,,,,,,,,,,,,,,,,,,,,,,,,,,,,,,,,,,,,,,,,,,,,,,,,,,,,,,,,,,,,,,,,,,,,,left,1,0.5851,,,,,,physical,9,4,9 | 4,5,0.065,0.05,congruent,left,0,58,58,23,1,,,,,,,,,,,,,,,,,,,,,,,,,,,,,,,,,,,,,,,,,,,,,,,,,,,,,,,,,,,,,,,,,,,,,,,,,,,,,,,,,,,
,822385097411,BAC,22/07/2003,001,2023-11-22_24h15.29.547,OS3_Mult_verification,2022.2.4,Win32,59.93048064,,,,,,,,,,,,,,,,,,,,,,,,,,,,,,,,,,,,,,,,,,,,,,,,,,,,,,,,,,,,,,,,,,,,,,left,1,0.6182,,,,,,physical,7,9,7 | 9,2,0.065,0.05,incongruent,left,0,59,59,35,1,,,,,,,,,,,,,,,,,,,,,,,,,,,,,,,,,,,,,,,,,,,,,,,,,,,,,,,,,,,,,,,,,,,,,,,,,,,,,,,,,,,
,822385097411,BAC,22/07/2003,001,2023-11-22_24h15.29.547,OS3_Mult_verification,2022.2.4,Win32,59.93048064,,,,,,,,,,,,,,,,,,,,,,,,,,,,,,,,,,,,,,,,,,,,,,,,,,,,,,,,,,,,,,,,,,,,,,right,1,0.5046,,,,,,physical,8,8,8 | 8,0,0.05,0.065,neutral,right,0,60,60,62,1,,,,,,,,,,,,,,,,,,,,,,,,,,,,,,,,,,,,,,,,,,,,,,,,,,,,,,,,,,,,,,,,,,,,,,,,,,,,,,,,,,,
,822385097411,BAC,22/07/2003,001,2023-11-22_24h15.29.547,OS3_Mult_verification,2022.2.4,Win32,59.93048064,,,,,,,,,,,,,,,,,,,,,,,,,,,,,,,,,,,,,,,,,,,,,,,,,,,,,,,,,,,,,,,,,,,,,,left,1,0.5009,,,,,,physical,8,6,8 | 6,2,0.065,0.05,congruent,left,0,61,61,14,1,,,,,,,,,,,,,,,,,,,,,,,,,,,,,,,,,,,,,,,,,,,,,,,,,,,,,,,,,,,,,,,,,,,,,,,,,,,,,,,,,,,
,822385097411,BAC,22/07/2003,001,2023-11-22_24h15.29.547,OS3_Mult_verification,2022.2.4,Win32,59.93048064,,,,,,,,,,,,,,,,,,,,,,,,,,,,,,,,,,,,,,,,,,,,,,,,,,,,,,,,,,,,,,,,,,,,,,left,1,0.4545,,,,,,physical,9,7,9 | 7,2,0.065,0.05,congruent,left,0,62,62,15,1,,,,,,,,,,,,,,,,,,,,,,,,,,,,,,,,,,,,,,,,,,,,,,,,,,,,,,,,,,,,,,,,,,,,,,,,,,,,,,,,,,,
,822385097411,BAC,22/07/2003,001,2023-11-22_24h15.29.547,OS3_Mult_verification,2022.2.4,Win32,59.93048064,,,,,,,,,,,,,,,,,,,,,,,,,,,,,,,,,,,,,,,,,,,,,,,,,,,,,,,,,,,,,,,,,,,,,,left,1,0.4183,,,,,,physical,4,4,4 | 4,0,0.065,0.05,neutral,left,0,63,63,53,1,,,,,,,,,,,,,,,,,,,,,,,,,,,,,,,,,,,,,,,,,,,,,,,,,,,,,,,,,,,,,,,,,,,,,,,,,,,,,,,,,,,
,822385097411,BAC,22/07/2003,001,2023-11-22_24h15.29.547,OS3_Mult_verification,2022.2.4,Win32,59.93048064,,,,,,,,,,,,,,,,,,,,,,,,,,,,,,,,,,,,,,,,,,,,,,,,,,,,,,,,,,,,,,,,,,,,,,left,1,0.8344,,,,,,physical,6,6,6 | 6,0,0.065,0.05,neutral,left,0,64,64,68,1,,,,,,,,,,,,,,,,,,,,,,,,,,,,,,,,,,,,,,,,,,,,,,,,,,,,,,,,,,,,,,,,,,,,,,,,,,,,,,,,,,,
,822385097411,BAC,22/07/2003,001,2023-11-22_24h15.29.547,OS3_Mult_verification,2022.2.4,Win32,59.93048064,,,,,,,,,,,,,,,,,,,,,,,,,,,,,,,,,,,,,,,,,,,,,,,,,,,,,,,,,,,,,,,,,,,,,,left,1,0.4868,,,,,,physical,8,9,8 | 9,1,0.065,0.05,incongruent,left,0,65,65,27,1,,,,,,,,,,,,,,,,,,,,,,,,,,,,,,,,,,,,,,,,,,,,,,,,,,,,,,,,,,,,,,,,,,,,,,,,,,,,,,,,,,,
,822385097411,BAC,22/07/2003,001,2023-11-22_24h15.29.547,OS3_Mult_verification,2022.2.4,Win32,59.93048064,,,,,,,,,,,,,,,,,,,,,,,,,,,,,,,,,,,,,,,,,,,,,,,,,,,,,,,,,,,,,,,,,,,,,,right,1,0.5864,,,,,,physical,2,1,2 | 1,1,0.05,0.065,incongruent,right,0,66,66,28,1,,,,,,,,,,,,,,,,,,,,,,,,,,,,,,,,,,,,,,,,,,,,,,,,,,,,,,,,,,,,,,,,,,,,,,,,,,,,,,,,,,,
,822385097411,BAC,22/07/2003,001,2023-11-22_24h15.29.547,OS3_Mult_verification,2022.2.4,Win32,59.93048064,,,,,,,,,,,,,,,,,,,,,,,,,,,,,,,,,,,,,,,,,,,,,,,,,,,,,,,,,,,,,,,,,,,,,,right,1,0.4425,,,,,,physical,2,4,2 | 4,2,0.05,0.065,congruent,right,0,67,67,9,1,,,,,,,,,,,,,,,,,,,,,,,,,,,,,,,,,,,,,,,,,,,,,,,,,,,,,,,,,,,,,,,,,,,,,,,,,,,,,,,,,,,
,822385097411,BAC,22/07/2003,001,2023-11-22_24h15.29.547,OS3_Mult_verification,2022.2.4,Win32,59.93048064,,,,,,,,,,,,,,,,,,,,,,,,,,,,,,,,,,,,,,,,,,,,,,,,,,,,,,,,,,,,,,,,,,,,,,right,1,0.4344,,,,,,physical,7,9,7 | 9,2,0.05,0.065,congruent,right,0,68,68,11,1,,,,,,,,,,,,,,,,,,,,,,,,,,,,,,,,,,,,,,,,,,,,,,,,,,,,,,,,,,,,,,,,,,,,,,,,,,,,,,,,,,,
,822385097411,BAC,22/07/2003,001,2023-11-22_24h15.29.547,OS3_Mult_verification,2022.2.4,Win32,59.93048064,,,,,,,,,,,,,,,,,,,,,,,,,,,,,,,,,,,,,,,,,,,,,,,,,,,,,,,,,,,,,,,,,,,,,,right,1,0.4224,,,,,,physical,9,9,9 | 9,0,0.05,0.065,neutral,right,0,69,69,71,1,,,,,,,,,,,,,,,,,,,,,,,,,,,,,,,,,,,,,,,,,,,,,,,,,,,,,,,,,,,,,,,,,,,,,,,,,,,,,,,,,,,
,822385097411,BAC,22/07/2003,001,2023-11-22_24h15.29.547,OS3_Mult_verification,2022.2.4,Win32,59.93048064,,,,,,,,,,,,,,,,,,,,,,,,,,,,,,,,,,,,,,,,,,,,,,,,,,,,,,,,,,,,,,,,,,,,,,left,1,0.4844,,,,,,physical,3,3,3 | 3,0,0.065,0.05,neutral,left,0,70,70,66,1,,,,,,,,,,,,,,,,,,,,,,,,,,,,,,,,,,,,,,,,,,,,,,,,,,,,,,,,,,,,,,,,,,,,,,,,,,,,,,,,,,,
,822385097411,BAC,22/07/2003,001,2023-11-22_24h15.29.547,OS3_Mult_verification,2022.2.4,Win32,59.93048064,,,,,,,,,,,,,,,,,,,,,,,,,,,,,,,,,,,,,,,,,,,,,,,,,,,,,,,,,,,,,,,,,,,,,,right,1,0.4294,,,,,,physical,9,8,9 | 8,1,0.05,0.065,incongruent,right,0,71,71,31,1,,,,,,,,,,,,,,,,,,,,,,,,,,,,,,,,,,,,,,,,,,,,,,,,,,,,,,,,,,,,,,,,,,,,,,,,,,,,,,,,,,,
,822385097411,BAC,22/07/2003,001,2023-11-22_24h15.29.547,OS3_Mult_verification,2022.2.4,Win32,59.93048064,,,,,,,,,,,,,,,,,,,,,,,,,,,,,,,,,,,,,,,,,,,,,,,,,,,,,,,,,,,,,,,,,,,,,,,,,,,,,,,,,,,,,,,,,,,,0,0,0,1,1,stroop_stim/physical.xlsx,stroop_stim/prac_physical.xlsx,PHYSICALLY larger (larger font size).,images/physicallyLarger.png,,,,,,,,,,,,,,,,,,,,,,,,,,,,,,,,,,,,,,,,,,,,,,,,,,,,,,,,,,,,,,,,,,,,,,,,,,
,822385097411,BAC,22/07/2003,001,2023-11-22_24h15.29.547,OS3_Mult_verification,2022.2.4,Win32,59.93048064,,,,,,,,,,,,,,,,space,1.0681,,,,,,,,,,,,,,,,,,,,,,,,,,,,,,,,,,,,,,,,,,,,,,,,,,,,,right,1,0.6111,0,0,0,0,1,practice,1,2,1 | 2,1,0.05,0.065,congruent,right,,,,,,,,,,,,,,,,,,,,,,,,,,,,,,,,,,,,,,,,,,,,,,,,,,,,,,,,,,,,,,,,,,,,,,,,,,,,,,,,,,,,,,,,
,822385097411,BAC,22/07/2003,001,2023-11-22_24h15.29.547,OS3_Mult_verification,2022.2.4,Win32,59.93048064,,,,,,,,,,,,,,,,,,,,,,,,,,,,,,,,,,,,,,,,,,,,,,,,,,,,,,,,,,,,,,,,,,,,,,right,1,0.7771,0,1,1,2,1,practice,4,9,4 | 9,5,0.06,0.06,neutral,right,,,,,,,,,,,,,,,,,,,,,,,,,,,,,,,,,,,,,,,,,,,,,,,,,,,,,,,,,,,,,,,,,,,,,,,,,,,,,,,,,,,,,,,,
,822385097411,BAC,22/07/2003,001,2023-11-22_24h15.29.547,OS3_Mult_verification,2022.2.4,Win32,59.93048064,,,,,,,,,,,,,,,,,,,,,,,,,,,,,,,,,,,,,,,,,,,,,,,,,,,,,,,,,,,,,,,,,,,,,,right,1,0.7719,0,2,2,1,1,practice,7,8,7 | 8,1,0.065,0.05,incongruent,right,,,,,,,,,,,,,,,,,,,,,,,,,,,,,,,,,,,,,,,,,,,,,,,,,,,,,,,,,,,,,,,,,,,,,,,,,,,,,,,,,,,,,,,,
,822385097411,BAC,22/07/2003,001,2023-11-22_24h15.29.547,OS3_Mult_verification,2022.2.4,Win32,59.93048064,,,,,,,,,,,,,,,,,,,,,,,,,,,,,,,,,,,,,,,,,,,,,,,,,,,,,,,,,,,,,,,,,,,,,,right,1,0.8855,,,,,,magnitude,2,4,2 | 4,2,0.065,0.05,incongruent,right,0,0,0,33,1,,,,,,,,,,,,,,,,,,,,,,,,,,,,,,,,,,,,,,,,,,,,,,,,,,,,,,,,,,,,,,,,,,,,,,,,,,,,,,,,,,,
,822385097411,BAC,22/07/2003,001,2023-11-22_24h15.29.547,OS3_Mult_verification,2022.2.4,Win32,59.93048064,,,,,,,,,,,,,,,,,,,,,,,,,,,,,,,,,,,,,,,,,,,,,,,,,,,,,,,,,,,,,,,,,,,,,,right,1,0.6012,,,,,,magnitude,4,9,4 | 9,5,0.06,0.06,neutral,right,0,1,1,67,1,,,,,,,,,,,,,,,,,,,,,,,,,,,,,,,,,,,,,,,,,,,,,,,,,,,,,,,,,,,,,,,,,,,,,,,,,,,,,,,,,,,
,822385097411,BAC,22/07/2003,001,2023-11-22_24h15.29.547,OS3_Mult_verification,2022.2.4,Win32,59.93048064,,,,,,,,,,,,,,,,,,,,,,,,,,,,,,,,,,,,,,,,,,,,,,,,,,,,,,,,,,,,,,,,,,,,,,right,1,0.5115,,,,,,magnitude,2,7,2 | 7,5,0.06,0.06,neutral,right,0,2,2,65,1,,,,,,,,,,,,,,,,,,,,,,,,,,,,,,,,,,,,,,,,,,,,,,,,,,,,,,,,,,,,,,,,,,,,,,,,,,,,,,,,,,,
,822385097411,BAC,22/07/2003,001,2023-11-22_24h15.29.547,OS3_Mult_verification,2022.2.4,Win32,59.93048064,,,,,,,,,,,,,,,,,,,,,,,,,,,,,,,,,,,,,,,,,,,,,,,,,,,,,,,,,,,,,,,,,,,,,,left,1,0.694,,,,,,magnitude,3,1,3 | 1,2,0.05,0.065,incongruent,left,0,3,3,36,1,,,,,,,,,,,,,,,,,,,,,,,,,,,,,,,,,,,,,,,,,,,,,,,,,,,,,,,,,,,,,,,,,,,,,,,,,,,,,,,,,,,
,822385097411,BAC,22/07/2003,001,2023-11-22_24h15.29.547,OS3_Mult_verification,2022.2.4,Win32,59.93048064,,,,,,,,,,,,,,,,,,,,,,,,,,,,,,,,,,,,,,,,,,,,,,,,,,,,,,,,,,,,,,,,,,,,,,left,1,0.4697,,,,,,magnitude,2,1,2 | 1,1,0.06,0.06,neutral,left,0,4,4,52,1,,,,,,,,,,,,,,,,,,,,,,,,,,,,,,,,,,,,,,,,,,,,,,,,,,,,,,,,,,,,,,,,,,,,,,,,,,,,,,,,,,,
,822385097411,BAC,22/07/2003,001,2023-11-22_24h15.29.547,OS3_Mult_verification,2022.2.4,Win32,59.93048064,,,,,,,,,,,,,,,,,,,,,,,,,,,,,,,,,,,,,,,,,,,,,,,,,,,,,,,,,,,,,,,,,,,,,,right,1,0.577,,,,,,magnitude,6,8,6 | 8,2,0.06,0.06,neutral,right,0,5,5,58,1,,,,,,,,,,,,,,,,,,,,,,,,,,,,,,,,,,,,,,,,,,,,,,,,,,,,,,,,,,,,,,,,,,,,,,,,,,,,,,,,,,,
,822385097411,BAC,22/07/2003,001,2023-11-22_24h15.29.547,OS3_Mult_verification,2022.2.4,Win32,59.93048064,,,,,,,,,,,,,,,,,,,,,,,,,,,,,,,,,,,,,,,,,,,,,,,,,,,,,,,,,,,,,,,,,,,,,,left,1,0.5552,,,,,,magnitude,7,6,7 | 6,1,0.06,0.06,neutral,left,0,6,6,54,1,,,,,,,,,,,,,,,,,,,,,,,,,,,,,,,,,,,,,,,,,,,,,,,,,,,,,,,,,,,,,,,,,,,,,,,,,,,,,,,,,,,
,822385097411,BAC,22/07/2003,001,2023-11-22_24h15.29.547,OS3_Mult_verification,2022.2.4,Win32,59.93048064,,,,,,,,,,,,,,,,,,,,,,,,,,,,,,,,,,,,,,,,,,,,,,,,,,,,,,,,,,,,,,,,,,,,,,left,1,0.6073,,,,,,magnitude,6,1,6 | 1,5,0.06,0.06,neutral,left,0,7,7,68,1,,,,,,,,,,,,,,,,,,,,,,,,,,,,,,,,,,,,,,,,,,,,,,,,,,,,,,,,,,,,,,,,,,,,,,,,,,,,,,,,,,,
,822385097411,BAC,22/07/2003,001,2023-11-22_24h15.29.547,OS3_Mult_verification,2022.2.4,Win32,59.93048064,,,,,,,,,,,,,,,,,,,,,,,,,,,,,,,,,,,,,,,,,,,,,,,,,,,,,,,,,,,,,,,,,,,,,,right,1,0.5339,,,,,,magnitude,7,9,7 | 9,2,0.065,0.05,incongruent,right,0,8,8,35,1,,,,,,,,,,,,,,,,,,,,,,,,,,,,,,,,,,,,,,,,,,,,,,,,,,,,,,,,,,,,,,,,,,,,,,,,,,,,,,,,,,,
,822385097411,BAC,22/07/2003,001,2023-11-22_24h15.29.547,OS3_Mult_verification,2022.2.4,Win32,59.93048064,,,,,,,,,,,,,,,,,,,,,,,,,,,,,,,,,,,,,,,,,,,,,,,,,,,,,,,,,,,,,,,,,,,,,,left,1,0.6525,,,,,,magnitude,9,7,9 | 7,2,0.06,0.06,neutral,left,0,9,9,63,1,,,,,,,,,,,,,,,,,,,,,,,,,,,,,,,,,,,,,,,,,,,,,,,,,,,,,,,,,,,,,,,,,,,,,,,,,,,,,,,,,,,
,822385097411,BAC,22/07/2003,001,2023-11-22_24h15.29.547,OS3_Mult_verification,2022.2.4,Win32,59.93048064,,,,,,,,,,,,,,,,,,,,,,,,,,,,,,,,,,,,,,,,,,,,,,,,,,,,,,,,,,,,,,,,,,,,,,right,1,0.476,,,,,,magnitude,3,8,3 | 8,5,0.05,0.065,congruent,right,0,10,10,18,1,,,,,,,,,,,,,,,,,,,,,,,,,,,,,,,,,,,,,,,,,,,,,,,,,,,,,,,,,,,,,,,,,,,,,,,,,,,,,,,,,,,
,822385097411,BAC,22/07/2003,001,2023-11-22_24h15.29.547,OS3_Mult_verification,2022.2.4,Win32,59.93048064,,,,,,,,,,,,,,,,,,,,,,,,,,,,,,,,,,,,,,,,,,,,,,,,,,,,,,,,,,,,,,,,,,,,,,right,1,0.7232,,,,,,magnitude,6,7,6 | 7,1,0.065,0.05,incongruent,right,0,11,11,26,1,,,,,,,,,,,,,,,,,,,,,,,,,,,,,,,,,,,,,,,,,,,,,,,,,,,,,,,,,,,,,,,,,,,,,,,,,,,,,,,,,,,
,822385097411,BAC,22/07/2003,001,2023-11-22_24h15.29.547,OS3_Mult_verification,2022.2.4,Win32,59.93048064,,,,,,,,,,,,,,,,,,,,,,,,,,,,,,,,,,,,,,,,,,,,,,,,,,,,,,,,,,,,,,,,,,,,,,left,1,0.4936,,,,,,magnitude,3,1,3 | 1,2,0.06,0.06,neutral,left,0,12,12,60,1,,,,,,,,,,,,,,,,,,,,,,,,,,,,,,,,,,,,,,,,,,,,,,,,,,,,,,,,,,,,,,,,,,,,,,,,,,,,,,,,,,,
,822385097411,BAC,22/07/2003,001,2023-11-22_24h15.29.547,OS3_Mult_verification,2022.2.4,Win32,59.93048064,,,,,,,,,,,,,,,,,,,,,,,,,,,,,,,,,,,,,,,,,,,,,,,,,,,,,,,,,,,,,,,,,,,,,,right,1,0.5783,,,,,,magnitude,3,4,3 | 4,1,0.065,0.05,incongruent,right,0,13,13,25,1,,,,,,,,,,,,,,,,,,,,,,,,,,,,,,,,,,,,,,,,,,,,,,,,,,,,,,,,,,,,,,,,,,,,,,,,,,,,,,,,,,,
,822385097411,BAC,22/07/2003,001,2023-11-22_24h15.29.547,OS3_Mult_verification,2022.2.4,Win32,59.93048064,,,,,,,,,,,,,,,,,,,,,,,,,,,,,,,,,,,,,,,,,,,,,,,,,,,,,,,,,,,,,,,,,,,,,,right,1,0.439,,,,,,magnitude,1,3,1 | 3,2,0.05,0.065,congruent,right,0,14,14,8,1,,,,,,,,,,,,,,,,,,,,,,,,,,,,,,,,,,,,,,,,,,,,,,,,,,,,,,,,,,,,,,,,,,,,,,,,,,,,,,,,,,,
,822385097411,BAC,22/07/2003,001,2023-11-22_24h15.29.547,OS3_Mult_verification,2022.2.4,Win32,59.93048064,,,,,,,,,,,,,,,,,,,,,,,,,,,,,,,,,,,,,,,,,,,,,,,,,,,,,,,,,,,,,,,,,,,,,,left,1,0.4262,,,,,,magnitude,3,1,3 | 1,2,0.065,0.05,congruent,left,0,15,15,12,1,,,,,,,,,,,,,,,,,,,,,,,,,,,,,,,,,,,,,,,,,,,,,,,,,,,,,,,,,,,,,,,,,,,,,,,,,,,,,,,,,,,
,822385097411,BAC,22/07/2003,001,2023-11-22_24h15.29.547,OS3_Mult_verification,2022.2.4,Win32,59.93048064,,,,,,,,,,,,,,,,,,,,,,,,,,,,,,,,,,,,,,,,,,,,,,,,,,,,,,,,,,,,,,,,,,,,,,left,1,0.4859,,,,,,magnitude,7,2,7 | 2,5,0.06,0.06,neutral,left,0,16,16,69,1,,,,,,,,,,,,,,,,,,,,,,,,,,,,,,,,,,,,,,,,,,,,,,,,,,,,,,,,,,,,,,,,,,,,,,,,,,,,,,,,,,,
,822385097411,BAC,22/07/2003,001,2023-11-22_24h15.29.547,OS3_Mult_verification,2022.2.4,Win32,59.93048064,,,,,,,,,,,,,,,,,,,,,,,,,,,,,,,,,,,,,,,,,,,,,,,,,,,,,,,,,,,,,,,,,,,,,,left,1,0.4682,,,,,,magnitude,9,8,9 | 8,1,0.06,0.06,neutral,left,0,17,17,55,1,,,,,,,,,,,,,,,,,,,,,,,,,,,,,,,,,,,,,,,,,,,,,,,,,,,,,,,,,,,,,,,,,,,,,,,,,,,,,,,,,,,
,822385097411,BAC,22/07/2003,001,2023-11-22_24h15.29.547,OS3_Mult_verification,2022.2.4,Win32,59.93048064,,,,,,,,,,,,,,,,,,,,,,,,,,,,,,,,,,,,,,,,,,,,,,,,,,,,,,,,,,,,,,,,,,,,,,left,1,0.3862,,,,,,magnitude,4,2,4 | 2,2,0.065,0.05,congruent,left,0,18,18,13,1,,,,,,,,,,,,,,,,,,,,,,,,,,,,,,,,,,,,,,,,,,,,,,,,,,,,,,,,,,,,,,,,,,,,,,,,,,,,,,,,,,,
,822385097411,BAC,22/07/2003,001,2023-11-22_24h15.29.547,OS3_Mult_verification,2022.2.4,Win32,59.93048064,,,,,,,,,,,,,,,,,,,,,,,,,,,,,,,,,,,,,,,,,,,,,,,,,,,,,,,,,,,,,,,,,,,,,,left,1,0.3947,,,,,,magnitude,4,2,4 | 2,2,0.06,0.06,neutral,left,0,19,19,61,1,,,,,,,,,,,,,,,,,,,,,,,,,,,,,,,,,,,,,,,,,,,,,,,,,,,,,,,,,,,,,,,,,,,,,,,,,,,,,,,,,,,
,822385097411,BAC,22/07/2003,001,2023-11-22_24h15.29.547,OS3_Mult_verification,2022.2.4,Win32,59.93048064,,,,,,,,,,,,,,,,,,,,,,,,,,,,,,,,,,,,,,,,,,,,,,,,,,,,,,,,,,,,,,,,,,,,,,right,1,0.4528,,,,,,magnitude,6,7,6 | 7,1,0.05,0.065,congruent,right,0,20,20,2,1,,,,,,,,,,,,,,,,,,,,,,,,,,,,,,,,,,,,,,,,,,,,,,,,,,,,,,,,,,,,,,,,,,,,,,,,,,,,,,,,,,,
,822385097411,BAC,22/07/2003,001,2023-11-22_24h15.29.547,OS3_Mult_verification,2022.2.4,Win32,59.93048064,,,,,,,,,,,,,,,,,,,,,,,,,,,,,,,,,,,,,,,,,,,,,,,,,,,,,,,,,,,,,,,,,,,,,,right,1,0.5193,,,,,,magnitude,3,4,3 | 4,1,0.06,0.06,neutral,right,0,21,21,49,1,,,,,,,,,,,,,,,,,,,,,,,,,,,,,,,,,,,,,,,,,,,,,,,,,,,,,,,,,,,,,,,,,,,,,,,,,,,,,,,,,,,
,822385097411,BAC,22/07/2003,001,2023-11-22_24h15.29.547,OS3_Mult_verification,2022.2.4,Win32,59.93048064,,,,,,,,,,,,,,,,,,,,,,,,,,,,,,,,,,,,,,,,,,,,,,,,,,,,,,,,,,,,,,,,,,,,,,right,1,0.0012,,,,,,magnitude,8,9,8 | 9,1,0.05,0.065,congruent,right,0,22,22,3,1,,,,,,,,,,,,,,,,,,,,,,,,,,,,,,,,,,,,,,,,,,,,,,,,,,,,,,,,,,,,,,,,,,,,,,,,,,,,,,,,,,,
,822385097411,BAC,22/07/2003,001,2023-11-22_24h15.29.547,OS3_Mult_verification,2022.2.4,Win32,59.93048064,,,,,,,,,,,,,,,,,,,,,,,,,,,,,,,,,,,,,,,,,,,,,,,,,,,,,,,,,,,,,,,,,,,,,,right,1,1.2065,,,,,,magnitude,7,9,7 | 9,2,0.05,0.065,congruent,right,0,23,23,11,1,,,,,,,,,,,,,,,,,,,,,,,,,,,,,,,,,,,,,,,,,,,,,,,,,,,,,,,,,,,,,,,,,,,,,,,,,,,,,,,,,,,
,822385097411,BAC,22/07/2003,001,2023-11-22_24h15.29.547,OS3_Mult_verification,2022.2.4,Win32,59.93048064,,,,,,,,,,,,,,,,,,,,,,,,,,,,,,,,,,,,,,,,,,,,,,,,,,,,,,,,,,,,,,,,,,,,,,right,1,0.5225,,,,,,magnitude,1,2,1 | 2,1,0.05,0.065,congruent,right,0,24,24,0,1,,,,,,,,,,,,,,,,,,,,,,,,,,,,,,,,,,,,,,,,,,,,,,,,,,,,,,,,,,,,,,,,,,,,,,,,,,,,,,,,,,,
,822385097411,BAC,22/07/2003,001,2023-11-22_24h15.29.547,OS3_Mult_verification,2022.2.4,Win32,59.93048064,,,,,,,,,,,,,,,,,,,,,,,,,,,,,,,,,,,,,,,,,,,,,,,,,,,,,,,,,,,,,,,,,,,,,,left,1,0.5229,,,,,,magnitude,2,1,2 | 1,1,0.065,0.05,congruent,left,0,25,25,4,1,,,,,,,,,,,,,,,,,,,,,,,,,,,,,,,,,,,,,,,,,,,,,,,,,,,,,,,,,,,,,,,,,,,,,,,,,,,,,,,,,,,
,822385097411,BAC,22/07/2003,001,2023-11-22_24h15.29.547,OS3_Mult_verification,2022.2.4,Win32,59.93048064,,,,,,,,,,,,,,,,,,,,,,,,,,,,,,,,,,,,,,,,,,,,,,,,,,,,,,,,,,,,,,,,,,,,,,right,1,0.4455,,,,,,magnitude,8,9,8 | 9,1,0.06,0.06,neutral,right,0,26,26,51,1,,,,,,,,,,,,,,,,,,,,,,,,,,,,,,,,,,,,,,,,,,,,,,,,,,,,,,,,,,,,,,,,,,,,,,,,,,,,,,,,,,,
,822385097411,BAC,22/07/2003,001,2023-11-22_24h15.29.547,OS3_Mult_verification,2022.2.4,Win32,59.93048064,,,,,,,,,,,,,,,,,,,,,,,,,,,,,,,,,,,,,,,,,,,,,,,,,,,,,,,,,,,,,,,,,,,,,,right,1,0.503,,,,,,magnitude,2,4,2 | 4,2,0.05,0.065,congruent,right,0,27,27,9,1,,,,,,,,,,,,,,,,,,,,,,,,,,,,,,,,,,,,,,,,,,,,,,,,,,,,,,,,,,,,,,,,,,,,,,,,,,,,,,,,,,,
