windowSize,participant,group,DOB (DD/MM/YEAR),session,date,expName,psychopyVersion,OS,frameRate,typing_instr_resp.keys,typing_instr_resp.rt,typing_response,typing_rt,typing_score,typingSpeed_input_resp.keys,typingSpeed_input_resp.rt,typing_speed_trials.thisRepN,typing_speed_trials.thisTrialN,typing_speed_trials.thisN,typing_speed_trials.thisIndex,typing_speed_trials.ran,typing_speed_stim,typing_report_resp.keys,typing_report_resp.rt,vpt_trial_resp1.keys,vpt_trial_resp1.rt,typedResponse,fluency_rt,fluency_score,fluencyInputResp.keys,fluencyInputResp.rt,fluencyPracLoop.thisRepN,fluencyPracLoop.thisTrialN,fluencyPracLoop.thisN,fluencyPracLoop.thisIndex,fluencyPracLoop.ran,problem,answers,fluencyLoop.thisRepN,fluencyLoop.thisTrialN,fluencyLoop.thisN,fluencyLoop.thisIndex,fluencyLoop.ran,stroopResp.keys,stroopResp.corr,stroopResp.rt,stroopPracLoop.thisRepN,stroopPracLoop.thisTrialN,stroopPracLoop.thisN,stroopPracLoop.thisIndex,stroopPracLoop.ran,stroopCond,leftNo,rightNo,displayProblem,numDistance,leftNo_size,rightNo_size,Dims,keyAnswer,stroopLoop.thisRepN,stroopLoop.thisTrialN,stroopLoop.thisN,stroopLoop.thisIndex,stroopLoop.ran,stroopBlocks.thisRepN,stroopBlocks.thisTrialN,stroopBlocks.thisN,stroopBlocks.thisIndex,stroopBlocks.ran,stroop_condition,stroop_pracFile,ActionInst,instrImage,TASK_A.thisRepN,TASK_A.thisTrialN,TASK_A.thisN,TASK_A.thisIndex,TASK_A.ran,controlTaskOrder.thisRepN,controlTaskOrder.thisTrialN,controlTaskOrder.thisN,controlTaskOrder.thisIndex,controlTaskOrder.ran,nRepsTask1,nRepsTask2,nRepsTask3,vptCorrect,vpt_rt,respMouse.x,respMouse.y,respMouse.leftButton,respMouse.midButton,respMouse.rightButton,vptPracticeLoop.thisRepN,vptPracticeLoop.thisTrialN,vptPracticeLoop.thisN,vptPracticeLoop.thisIndex,vptPracticeLoop.ran,trialType,tiles,rows,cols,vptTrialLoop.thisRepN,vptTrialLoop.thisTrialN,vptTrialLoop.thisN,vptTrialLoop.thisIndex,vptTrialLoop.ran,noOfBlocks,TASK_B.thisRepN,TASK_B.thisTrialN,TASK_B.thisN,TASK_B.thisIndex,TASK_B.ran,sampleAudio_resp.keys,sampleAudio_resp.rt,subjResponse,audio_rt,DS_score,inputResp.keys,inputResp.rt,audioPracticeLoop.thisRepN,audioPracticeLoop.thisTrialN,audioPracticeLoop.thisN,audioPracticeLoop.thisIndex,audioPracticeLoop.ran,digitSpan,digits_audioStim,soundsFile,typeDS,audioTrials_Loop.thisRepN,audioTrials_Loop.thisTrialN,audioTrials_Loop.thisN,audioTrials_Loop.thisIndex,audioTrials_Loop.ran,audioBlocks_loop.thisRepN,audioBlocks_loop.thisTrialN,audioBlocks_loop.thisN,audioBlocks_loop.thisIndex,audioBlocks_loop.ran,ConditionFile,digitSpanTask_loop.thisRepN,digitSpanTask_loop.thisTrialN,digitSpanTask_loop.thisN,digitSpanTask_loop.thisIndex,digitSpanTask_loop.ran,dsFile,TASK_C.thisRepN,TASK_C.thisTrialN,TASK_C.thisN,TASK_C.thisIndex,TASK_C.ran,veriStim_resp.keys,veriStim_resp.corr,veriStim_resp.rt,verificationPracLoop.thisRepN,verificationPracLoop.thisTrialN,verificationPracLoop.thisN,verificationPracLoop.thisIndex,verificationPracLoop.ran,mult_problem,mult_answer,mult_type,error_distance,interferenceScore,problemType,interferenceLevel,problemSize,img_leftButton,img_rightButton,veriLoop.thisRepN,veriLoop.thisTrialN,veriLoop.thisN,veriLoop.thisIndex,veriLoop.ran,veriBlock.thisRepN,veriBlock.thisTrialN,veriBlock.thisN,veriBlock.thisIndex,veriBlock.ran,verificationFiles,end_resp.keys,end_resp.rt
"[1280,595]",8533,ABC,08/01/2003,001,2023-12-13_14h15.55.153,OS3_Mult_verification,2022.2.4,Win32,59.88023952,,,,,,,,,,,,,,,,,,,,,,,,,,,,,,,,,,,,,,,,,,,,,,,,,,,,,,,,,,,,,,,,,,,,,,,,,,,,,,,,,,,,,,,,,,,,,,,,,,,,,,,,,,,,,,,,,,,,,,,,,,,,,,,,,,,,,,,,,,,,,,,,,,,,,,,,,,,,,,,,,,,,,,,,,,,,,,
,8533,ABC,08/01/2003,001,2023-12-13_14h15.55.153,OS3_Mult_verification,2022.2.4,Win32,59.88023952,,,,,,,,,,,,,,,,,,,,,,,,,,,,,,,,,,,,,,,,,,,,,,,,,,,,,,,,,,,,,,,,,,,,,,,,,,,,,,,,,,,,,,,,,,,,,,,,,,,,,,,,,,,,,,,,,,,,,,,,,,,,,,,,,,,,,,,,,,,,,,,,,,,,,,,,,,,,,,,,,,,,,,,,,,,,,,
,8533,ABC,08/01/2003,001,2023-12-13_14h15.55.153,OS3_Mult_verification,2022.2.4,Win32,59.88023952,space,41.18,,,,,,,,,,,,,,,,,,,,,,,,,,,,,,,,,,,,,,,,,,,,,,,,,,,,,,,,,,,,,,,,,,,,,,,,,,,,,,,,,,,,,,,,,,,,,,,,,,,,,,,,,,,,,,,,,,,,,,,,,,,,,,,,,,,,,,,,,,,,,,,,,,,,,,,,,,,,,,,,,,,,,,,,,,,,
,8533,ABC,08/01/2003,001,2023-12-13_14h15.55.153,OS3_Mult_verification,2022.2.4,Win32,59.88023952,,,18,2.9133,1,"[""1"",""8"",""return""]","[1.2607999997138961,1.5060000000000002,2.8541999998092678]",0,0,0,9,1,18,,,,,,,,,,,,,,,,,,,,,,,,,,,,,,,,,,,,,,,,,,,,,,,,,,,,,,,,,,,,,,,,,,,,,,,,,,,,,,,,,,,,,,,,,,,,,,,,,,,,,,,,,,,,,,,,,,,,,,,,,,,,,,,,,,,,,,,,,,,,,,,,,,,,,,,,,,,,,,,,,
,8533,ABC,08/01/2003,001,2023-12-13_14h15.55.153,OS3_Mult_verification,2022.2.4,Win32,59.88023952,,,81,1.6649,1,"[""8"",""1"",""return""]","[1.185699999809259,1.3374000000953572,1.6225999999046223]",0,1,1,30,1,81,,,,,,,,,,,,,,,,,,,,,,,,,,,,,,,,,,,,,,,,,,,,,,,,,,,,,,,,,,,,,,,,,,,,,,,,,,,,,,,,,,,,,,,,,,,,,,,,,,,,,,,,,,,,,,,,,,,,,,,,,,,,,,,,,,,,,,,,,,,,,,,,,,,,,,,,,,,,,,,,,
,8533,ABC,08/01/2003,001,2023-12-13_14h15.55.153,OS3_Mult_verification,2022.2.4,Win32,59.88023952,,,63,1.9632,1,"[""6"",""3"",""return""]","[1.1875,1.566999999999993,1.914900000095372]",0,2,2,27,1,63,,,,,,,,,,,,,,,,,,,,,,,,,,,,,,,,,,,,,,,,,,,,,,,,,,,,,,,,,,,,,,,,,,,,,,,,,,,,,,,,,,,,,,,,,,,,,,,,,,,,,,,,,,,,,,,,,,,,,,,,,,,,,,,,,,,,,,,,,,,,,,,,,,,,,,,,,,,,,,,,,
,8533,ABC,08/01/2003,001,2023-12-13_14h15.55.153,OS3_Mult_verification,2022.2.4,Win32,59.88023952,,,30,1.5323,1,"[""3"",""0"",""return""]","[0.9886999998092705,1.1718000001907427,1.486300000190738]",0,3,3,16,1,30,,,,,,,,,,,,,,,,,,,,,,,,,,,,,,,,,,,,,,,,,,,,,,,,,,,,,,,,,,,,,,,,,,,,,,,,,,,,,,,,,,,,,,,,,,,,,,,,,,,,,,,,,,,,,,,,,,,,,,,,,,,,,,,,,,,,,,,,,,,,,,,,,,,,,,,,,,,,,,,,,
,8533,ABC,08/01/2003,001,2023-12-13_14h15.55.153,OS3_Mult_verification,2022.2.4,Win32,59.88023952,,,36,1.5643,1,"[""3"",""6"",""return""]","[0.8359999999999985,1.2749000000953714,1.5234000000953642]",0,4,4,19,1,36,,,,,,,,,,,,,,,,,,,,,,,,,,,,,,,,,,,,,,,,,,,,,,,,,,,,,,,,,,,,,,,,,,,,,,,,,,,,,,,,,,,,,,,,,,,,,,,,,,,,,,,,,,,,,,,,,,,,,,,,,,,,,,,,,,,,,,,,,,,,,,,,,,,,,,,,,,,,,,,,,
,8533,ABC,08/01/2003,001,2023-12-13_14h15.55.153,OS3_Mult_verification,2022.2.4,Win32,59.88023952,,,56,1.4658,1,"[""5"",""6"",""return""]","[1.0826999998092646,1.2849999999999966,1.4165999999046335]",0,5,5,26,1,56,,,,,,,,,,,,,,,,,,,,,,,,,,,,,,,,,,,,,,,,,,,,,,,,,,,,,,,,,,,,,,,,,,,,,,,,,,,,,,,,,,,,,,,,,,,,,,,,,,,,,,,,,,,,,,,,,,,,,,,,,,,,,,,,,,,,,,,,,,,,,,,,,,,,,,,,,,,,,,,,,
,8533,ABC,08/01/2003,001,2023-12-13_14h15.55.153,OS3_Mult_verification,2022.2.4,Win32,59.88023952,,,21,1.2148,1,"[""2"",""1"",""return""]","[0.9390999999046414,1.0884999999999962,1.1717999997138975]",0,6,6,11,1,21,,,,,,,,,,,,,,,,,,,,,,,,,,,,,,,,,,,,,,,,,,,,,,,,,,,,,,,,,,,,,,,,,,,,,,,,,,,,,,,,,,,,,,,,,,,,,,,,,,,,,,,,,,,,,,,,,,,,,,,,,,,,,,,,,,,,,,,,,,,,,,,,,,,,,,,,,,,,,,,,,
,8533,ABC,08/01/2003,001,2023-12-13_14h15.55.153,OS3_Mult_verification,2022.2.4,Win32,59.88023952,,,28,1.6317,1,"[""2"",""8"",""return""]","[0.7887000002860987,1.1424999999999983,1.5868000001907347]",0,7,7,15,1,28,,,,,,,,,,,,,,,,,,,,,,,,,,,,,,,,,,,,,,,,,,,,,,,,,,,,,,,,,,,,,,,,,,,,,,,,,,,,,,,,,,,,,,,,,,,,,,,,,,,,,,,,,,,,,,,,,,,,,,,,,,,,,,,,,,,,,,,,,,,,,,,,,,,,,,,,,,,,,,,,,
,8533,ABC,08/01/2003,001,2023-12-13_14h15.55.153,OS3_Mult_verification,2022.2.4,Win32,59.88023952,,,14,1.1317,1,"[""1"",""4"",""return""]","[0.7007999997138938,0.9895000000000067,1.0905000000000058]",0,8,8,6,1,14,,,,,,,,,,,,,,,,,,,,,,,,,,,,,,,,,,,,,,,,,,,,,,,,,,,,,,,,,,,,,,,,,,,,,,,,,,,,,,,,,,,,,,,,,,,,,,,,,,,,,,,,,,,,,,,,,,,,,,,,,,,,,,,,,,,,,,,,,,,,,,,,,,,,,,,,,,,,,,,,,
,8533,ABC,08/01/2003,001,2023-12-13_14h15.55.153,OS3_Mult_verification,2022.2.4,Win32,59.88023952,,,16,1.0882,1,"[""1"",""6"",""return""]","[0.5231999998092647,0.9374000000953799,1.0504999999999995]",0,9,9,8,1,16,,,,,,,,,,,,,,,,,,,,,,,,,,,,,,,,,,,,,,,,,,,,,,,,,,,,,,,,,,,,,,,,,,,,,,,,,,,,,,,,,,,,,,,,,,,,,,,,,,,,,,,,,,,,,,,,,,,,,,,,,,,,,,,,,,,,,,,,,,,,,,,,,,,,,,,,,,,,,,,,,
,8533,ABC,08/01/2003,001,2023-12-13_14h15.55.153,OS3_Mult_verification,2022.2.4,Win32,59.88023952,,,42,1.2869,1,"[""4"",""2"",""return""]","[0.8541999998092678,1.1259000000953563,1.2479000000953562]",0,10,10,21,1,42,,,,,,,,,,,,,,,,,,,,,,,,,,,,,,,,,,,,,,,,,,,,,,,,,,,,,,,,,,,,,,,,,,,,,,,,,,,,,,,,,,,,,,,,,,,,,,,,,,,,,,,,,,,,,,,,,,,,,,,,,,,,,,,,,,,,,,,,,,,,,,,,,,,,,,,,,,,,,,,,,
,8533,ABC,08/01/2003,001,2023-12-13_14h15.55.153,OS3_Mult_verification,2022.2.4,Win32,59.88023952,,,10,1.227,1,"[""1"",""0"",""return""]","[0.5741999998092524,1.043699999809263,1.1796999998092588]",0,11,11,4,1,10,,,,,,,,,,,,,,,,,,,,,,,,,,,,,,,,,,,,,,,,,,,,,,,,,,,,,,,,,,,,,,,,,,,,,,,,,,,,,,,,,,,,,,,,,,,,,,,,,,,,,,,,,,,,,,,,,,,,,,,,,,,,,,,,,,,,,,,,,,,,,,,,,,,,,,,,,,,,,,,,,
,8533,ABC,08/01/2003,001,2023-12-13_14h15.55.153,OS3_Mult_verification,2022.2.4,Win32,59.88023952,,,4,1.032,1,"[""4"",""return""]","[0.9018000001907467,0.9915999999046505]",0,12,12,0,1,4,,,,,,,,,,,,,,,,,,,,,,,,,,,,,,,,,,,,,,,,,,,,,,,,,,,,,,,,,,,,,,,,,,,,,,,,,,,,,,,,,,,,,,,,,,,,,,,,,,,,,,,,,,,,,,,,,,,,,,,,,,,,,,,,,,,,,,,,,,,,,,,,,,,,,,,,,,,,,,,,,
,8533,ABC,08/01/2003,001,2023-12-13_14h15.55.153,OS3_Mult_verification,2022.2.4,Win32,59.88023952,,,48,1.4643,1,"[""4"",""8"",""return""]","[0.7892999997138759,1.3222999997138913,1.4250999999046314]",0,13,13,23,1,48,,,,,,,,,,,,,,,,,,,,,,,,,,,,,,,,,,,,,,,,,,,,,,,,,,,,,,,,,,,,,,,,,,,,,,,,,,,,,,,,,,,,,,,,,,,,,,,,,,,,,,,,,,,,,,,,,,,,,,,,,,,,,,,,,,,,,,,,,,,,,,,,,,,,,,,,,,,,,,,,,
,8533,ABC,08/01/2003,001,2023-12-13_14h15.55.153,OS3_Mult_verification,2022.2.4,Win32,59.88023952,,,49,1.5481,1,"[""4"",""9"",""return""]","[1.0702000002860927,1.4088000001907233,1.50009999990462]",0,14,14,24,1,49,,,,,,,,,,,,,,,,,,,,,,,,,,,,,,,,,,,,,,,,,,,,,,,,,,,,,,,,,,,,,,,,,,,,,,,,,,,,,,,,,,,,,,,,,,,,,,,,,,,,,,,,,,,,,,,,,,,,,,,,,,,,,,,,,,,,,,,,,,,,,,,,,,,,,,,,,,,,,,,,,
,8533,ABC,08/01/2003,001,2023-12-13_14h15.55.153,OS3_Mult_verification,2022.2.4,Win32,59.88023952,,,8,1.1647,1,"[""8"",""return""]","[1.0063000001907199,1.1234999999999786]",0,15,15,2,1,8,,,,,,,,,,,,,,,,,,,,,,,,,,,,,,,,,,,,,,,,,,,,,,,,,,,,,,,,,,,,,,,,,,,,,,,,,,,,,,,,,,,,,,,,,,,,,,,,,,,,,,,,,,,,,,,,,,,,,,,,,,,,,,,,,,,,,,,,,,,,,,,,,,,,,,,,,,,,,,,,,
,8533,ABC,08/01/2003,001,2023-12-13_14h15.55.153,OS3_Mult_verification,2022.2.4,Win32,59.88023952,,,9,0.8313,1,"[""9"",""return""]","[0.7078000001907867,0.790400000095417]",0,16,16,3,1,9,,,,,,,,,,,,,,,,,,,,,,,,,,,,,,,,,,,,,,,,,,,,,,,,,,,,,,,,,,,,,,,,,,,,,,,,,,,,,,,,,,,,,,,,,,,,,,,,,,,,,,,,,,,,,,,,,,,,,,,,,,,,,,,,,,,,,,,,,,,,,,,,,,,,,,,,,,,,,,,,,
,8533,ABC,08/01/2003,001,2023-12-13_14h15.55.153,OS3_Mult_verification,2022.2.4,Win32,59.88023952,,,32,1.4482,1,"[""3"",""2"",""return""]","[1.0210999999046066,1.204499999999996,1.4021999998092838]",0,17,17,17,1,32,,,,,,,,,,,,,,,,,,,,,,,,,,,,,,,,,,,,,,,,,,,,,,,,,,,,,,,,,,,,,,,,,,,,,,,,,,,,,,,,,,,,,,,,,,,,,,,,,,,,,,,,,,,,,,,,,,,,,,,,,,,,,,,,,,,,,,,,,,,,,,,,,,,,,,,,,,,,,,,,,
,8533,ABC,08/01/2003,001,2023-12-13_14h15.55.153,OS3_Mult_verification,2022.2.4,Win32,59.88023952,,,25,1.0653,1,"[""2"",""5"",""return""]","[0.6412000002860623,0.9244999999999663,1.0207000002860696]",0,18,18,13,1,25,,,,,,,,,,,,,,,,,,,,,,,,,,,,,,,,,,,,,,,,,,,,,,,,,,,,,,,,,,,,,,,,,,,,,,,,,,,,,,,,,,,,,,,,,,,,,,,,,,,,,,,,,,,,,,,,,,,,,,,,,,,,,,,,,,,,,,,,,,,,,,,,,,,,,,,,,,,,,,,,,
,8533,ABC,08/01/2003,001,2023-12-13_14h15.55.153,OS3_Mult_verification,2022.2.4,Win32,59.88023952,,,45,1.1481,1,"[""4"",""5"",""return""]","[0.8097999997139027,0.9933999996185321,1.1096999998092656]",0,19,19,22,1,45,,,,,,,,,,,,,,,,,,,,,,,,,,,,,,,,,,,,,,,,,,,,,,,,,,,,,,,,,,,,,,,,,,,,,,,,,,,,,,,,,,,,,,,,,,,,,,,,,,,,,,,,,,,,,,,,,,,,,,,,,,,,,,,,,,,,,,,,,,,,,,,,,,,,,,,,,,,,,,,,,
,8533,ABC,08/01/2003,001,2023-12-13_14h15.55.153,OS3_Mult_verification,2022.2.4,Win32,59.88023952,,,64,3.5476,1,"[""6"",""2"",""backspace"",""5"",""backspace"",""4"",""return""]","[0.727400000095372,1.1076999998093129,1.6760000000000446,2.0600999999046508,2.9108000001907612,3.275900000095419,3.506099999904677]",0,20,20,28,1,64,,,,,,,,,,,,,,,,,,,,,,,,,,,,,,,,,,,,,,,,,,,,,,,,,,,,,,,,,,,,,,,,,,,,,,,,,,,,,,,,,,,,,,,,,,,,,,,,,,,,,,,,,,,,,,,,,,,,,,,,,,,,,,,,,,,,,,,,,,,,,,,,,,,,,,,,,,,,,,,,,
,8533,ABC,08/01/2003,001,2023-12-13_14h15.55.153,OS3_Mult_verification,2022.2.4,Win32,59.88023952,,,12,1.6305,1,"[""1"",""2"",""return""]","[0.7584000000953779,1.2069000000953451,1.5874999999999773]",0,21,21,5,1,12,,,,,,,,,,,,,,,,,,,,,,,,,,,,,,,,,,,,,,,,,,,,,,,,,,,,,,,,,,,,,,,,,,,,,,,,,,,,,,,,,,,,,,,,,,,,,,,,,,,,,,,,,,,,,,,,,,,,,,,,,,,,,,,,,,,,,,,,,,,,,,,,,,,,,,,,,,,,,,,,,
,8533,ABC,08/01/2003,001,2023-12-13_14h15.55.153,OS3_Mult_verification,2022.2.4,Win32,59.88023952,,,27,1.4149,1,"[""2"",""7"",""return""]","[0.7544000000953588,1.2357999997138904,1.366099999904634]",0,22,22,14,1,27,,,,,,,,,,,,,,,,,,,,,,,,,,,,,,,,,,,,,,,,,,,,,,,,,,,,,,,,,,,,,,,,,,,,,,,,,,,,,,,,,,,,,,,,,,,,,,,,,,,,,,,,,,,,,,,,,,,,,,,,,,,,,,,,,,,,,,,,,,,,,,,,,,,,,,,,,,,,,,,,,
,8533,ABC,08/01/2003,001,2023-12-13_14h15.55.153,OS3_Mult_verification,2022.2.4,Win32,59.88023952,,,6,1.2315,1,"[""6"",""return""]","[1.057400000095356,1.192900000095392]",0,23,23,1,1,6,,,,,,,,,,,,,,,,,,,,,,,,,,,,,,,,,,,,,,,,,,,,,,,,,,,,,,,,,,,,,,,,,,,,,,,,,,,,,,,,,,,,,,,,,,,,,,,,,,,,,,,,,,,,,,,,,,,,,,,,,,,,,,,,,,,,,,,,,,,,,,,,,,,,,,,,,,,,,,,,,
,8533,ABC,08/01/2003,001,2023-12-13_14h15.55.153,OS3_Mult_verification,2022.2.4,Win32,59.88023952,,,40,1.8985,1,"[""4"",""0"",""return""]","[1.1922000002861068,1.4582000002860696,1.855700000286106]",0,24,24,20,1,40,,,,,,,,,,,,,,,,,,,,,,,,,,,,,,,,,,,,,,,,,,,,,,,,,,,,,,,,,,,,,,,,,,,,,,,,,,,,,,,,,,,,,,,,,,,,,,,,,,,,,,,,,,,,,,,,,,,,,,,,,,,,,,,,,,,,,,,,,,,,,,,,,,,,,,,,,,,,,,,,,
,8533,ABC,08/01/2003,001,2023-12-13_14h15.55.153,OS3_Mult_verification,2022.2.4,Win32,59.88023952,,,35,1.5983,1,"[""3"",""5"",""return""]","[1.0420999999046217,1.2930000000000064,1.555399999618544]",0,25,25,18,1,35,,,,,,,,,,,,,,,,,,,,,,,,,,,,,,,,,,,,,,,,,,,,,,,,,,,,,,,,,,,,,,,,,,,,,,,,,,,,,,,,,,,,,,,,,,,,,,,,,,,,,,,,,,,,,,,,,,,,,,,,,,,,,,,,,,,,,,,,,,,,,,,,,,,,,,,,,,,,,,,,,
,8533,ABC,08/01/2003,001,2023-12-13_14h15.55.153,OS3_Mult_verification,2022.2.4,Win32,59.88023952,,,72,2.0317,1,"[""7"",""2"",""return""]","[1.0054000000953351,1.7716000003814543,1.9869999999999663]",0,26,26,29,1,72,,,,,,,,,,,,,,,,,,,,,,,,,,,,,,,,,,,,,,,,,,,,,,,,,,,,,,,,,,,,,,,,,,,,,,,,,,,,,,,,,,,,,,,,,,,,,,,,,,,,,,,,,,,,,,,,,,,,,,,,,,,,,,,,,,,,,,,,,,,,,,,,,,,,,,,,,,,,,,,,,
,8533,ABC,08/01/2003,001,2023-12-13_14h15.55.153,OS3_Mult_verification,2022.2.4,Win32,59.88023952,,,20,1.5362,1,"[""2"",""0"",""return""]","[0.8227999997138795,1.0610999999046271,1.496699999809266]",0,27,27,10,1,20,,,,,,,,,,,,,,,,,,,,,,,,,,,,,,,,,,,,,,,,,,,,,,,,,,,,,,,,,,,,,,,,,,,,,,,,,,,,,,,,,,,,,,,,,,,,,,,,,,,,,,,,,,,,,,,,,,,,,,,,,,,,,,,,,,,,,,,,,,,,,,,,,,,,,,,,,,,,,,,,,
,8533,ABC,08/01/2003,001,2023-12-13_14h15.55.153,OS3_Mult_verification,2022.2.4,Win32,59.88023952,,,24,1.1047,1,"[""2"",""4"",""return""]","[0.6823000001907644,0.9169000000953815,1.0788000001907108]",0,28,28,12,1,24,,,,,,,,,,,,,,,,,,,,,,,,,,,,,,,,,,,,,,,,,,,,,,,,,,,,,,,,,,,,,,,,,,,,,,,,,,,,,,,,,,,,,,,,,,,,,,,,,,,,,,,,,,,,,,,,,,,,,,,,,,,,,,,,,,,,,,,,,,,,,,,,,,,,,,,,,,,,,,,,,
,8533,ABC,08/01/2003,001,2023-12-13_14h15.55.153,OS3_Mult_verification,2022.2.4,Win32,59.88023952,,,54,1.332,1,"[""5"",""4"",""return""]","[0.9039000000953479,1.105700000286106,1.2819000000953338]",0,29,29,25,1,54,,,,,,,,,,,,,,,,,,,,,,,,,,,,,,,,,,,,,,,,,,,,,,,,,,,,,,,,,,,,,,,,,,,,,,,,,,,,,,,,,,,,,,,,,,,,,,,,,,,,,,,,,,,,,,,,,,,,,,,,,,,,,,,,,,,,,,,,,,,,,,,,,,,,,,,,,,,,,,,,,
,8533,ABC,08/01/2003,001,2023-12-13_14h15.55.153,OS3_Mult_verification,2022.2.4,Win32,59.88023952,,,15,1.2156,1,"[""1"",""5"",""return""]","[0.7206999998092556,1.0349999999999682,1.175599999904648]",0,30,30,7,1,15,,,,,,,,,,,,,,,,,,,,,,,,,,,,,,,,,,,,,,,,,,,,,,,,,,,,,,,,,,,,,,,,,,,,,,,,,,,,,,,,,,,,,,,,,,,,,,,,,,,,,,,,,,,,,,,,,,,,,,,,,,,,,,,,,,,,,,,,,,,,,,,,,,,,,,,,,,,,,,,,,
,8533,ABC,08/01/2003,001,2023-12-13_14h15.55.153,OS3_Mult_verification,2022.2.4,Win32,59.88023952,,,15,1.1081,1,"[""1"",""5"",""return""]","[0.6365000000000123,0.9681999998092579,1.0679000000953351]",1,0,31,7,1,15,,,,,,,,,,,,,,,,,,,,,,,,,,,,,,,,,,,,,,,,,,,,,,,,,,,,,,,,,,,,,,,,,,,,,,,,,,,,,,,,,,,,,,,,,,,,,,,,,,,,,,,,,,,,,,,,,,,,,,,,,,,,,,,,,,,,,,,,,,,,,,,,,,,,,,,,,,,,,,,,,
,8533,ABC,08/01/2003,001,2023-12-13_14h15.55.153,OS3_Mult_verification,2022.2.4,Win32,59.88023952,,,36,1.4313,1,"[""3"",""6"",""return""]","[0.8679000000954034,1.2760000000000105,1.3830999999046298]",1,1,32,19,1,36,,,,,,,,,,,,,,,,,,,,,,,,,,,,,,,,,,,,,,,,,,,,,,,,,,,,,,,,,,,,,,,,,,,,,,,,,,,,,,,,,,,,,,,,,,,,,,,,,,,,,,,,,,,,,,,,,,,,,,,,,,,,,,,,,,,,,,,,,,,,,,,,,,,,,,,,,,,,,,,,,
,8533,ABC,08/01/2003,001,2023-12-13_14h15.55.153,OS3_Mult_verification,2022.2.4,Win32,59.88023952,,,12,1.0645,1,"[""1"",""2"",""return""]","[0.66129999971389,0.8787999997138627,1.0209999999999582]",1,2,33,5,1,12,,,,,,,,,,,,,,,,,,,,,,,,,,,,,,,,,,,,,,,,,,,,,,,,,,,,,,,,,,,,,,,,,,,,,,,,,,,,,,,,,,,,,,,,,,,,,,,,,,,,,,,,,,,,,,,,,,,,,,,,,,,,,,,,,,,,,,,,,,,,,,,,,,,,,,,,,,,,,,,,,
,8533,ABC,08/01/2003,001,2023-12-13_14h15.55.153,OS3_Mult_verification,2022.2.4,Win32,59.88023952,,,10,1.2809,1,"[""1"",""0"",""return""]","[0.6128000001907594,1.0969000000953884,1.2358000001907499]",1,3,34,4,1,10,,,,,,,,,,,,,,,,,,,,,,,,,,,,,,,,,,,,,,,,,,,,,,,,,,,,,,,,,,,,,,,,,,,,,,,,,,,,,,,,,,,,,,,,,,,,,,,,,,,,,,,,,,,,,,,,,,,,,,,,,,,,,,,,,,,,,,,,,,,,,,,,,,,,,,,,,,,,,,,,,
,8533,ABC,08/01/2003,001,2023-12-13_14h15.55.153,OS3_Mult_verification,2022.2.4,Win32,59.88023952,,,6,1.1818,1,"[""6"",""return""]","[0.9933999996185321,1.1395999999046467]",1,4,35,1,1,6,,,,,,,,,,,,,,,,,,,,,,,,,,,,,,,,,,,,,,,,,,,,,,,,,,,,,,,,,,,,,,,,,,,,,,,,,,,,,,,,,,,,,,,,,,,,,,,,,,,,,,,,,,,,,,,,,,,,,,,,,,,,,,,,,,,,,,,,,,,,,,,,,,,,,,,,,,,,,,,,,
,8533,ABC,08/01/2003,001,2023-12-13_14h15.55.153,OS3_Mult_verification,2022.2.4,Win32,59.88023952,,,45,1.182,1,"[""4"",""5"",""return""]","[0.7679999999999723,0.970400000095367,1.1360999999046157]",1,5,36,22,1,45,,,,,,,,,,,,,,,,,,,,,,,,,,,,,,,,,,,,,,,,,,,,,,,,,,,,,,,,,,,,,,,,,,,,,,,,,,,,,,,,,,,,,,,,,,,,,,,,,,,,,,,,,,,,,,,,,,,,,,,,,,,,,,,,,,,,,,,,,,,,,,,,,,,,,,,,,,,,,,,,,
,8533,ABC,08/01/2003,001,2023-12-13_14h15.55.153,OS3_Mult_verification,2022.2.4,Win32,59.88023952,,,56,1.2483,1,"[""5"",""6"",""return""]","[0.8450000000000273,1.0561999998092801,1.2008000001907817]",1,6,37,26,1,56,,,,,,,,,,,,,,,,,,,,,,,,,,,,,,,,,,,,,,,,,,,,,,,,,,,,,,,,,,,,,,,,,,,,,,,,,,,,,,,,,,,,,,,,,,,,,,,,,,,,,,,,,,,,,,,,,,,,,,,,,,,,,,,,,,,,,,,,,,,,,,,,,,,,,,,,,,,,,,,,,
,8533,ABC,08/01/2003,001,2023-12-13_14h15.55.153,OS3_Mult_verification,2022.2.4,Win32,59.88023952,,,28,1.5315,1,"[""2"",""8"",""return""]","[0.9886000003814388,1.3554000000953579,1.4848000001907167]",1,7,38,15,1,28,,,,,,,,,,,,,,,,,,,,,,,,,,,,,,,,,,,,,,,,,,,,,,,,,,,,,,,,,,,,,,,,,,,,,,,,,,,,,,,,,,,,,,,,,,,,,,,,,,,,,,,,,,,,,,,,,,,,,,,,,,,,,,,,,,,,,,,,,,,,,,,,,,,,,,,,,,,,,,,,,
,8533,ABC,08/01/2003,001,2023-12-13_14h15.55.153,OS3_Mult_verification,2022.2.4,Win32,59.88023952,,,9,1.0144,1,"[""9"",""return""]","[0.845900000095412,0.9727999997139136]",1,8,39,3,1,9,,,,,,,,,,,,,,,,,,,,,,,,,,,,,,,,,,,,,,,,,,,,,,,,,,,,,,,,,,,,,,,,,,,,,,,,,,,,,,,,,,,,,,,,,,,,,,,,,,,,,,,,,,,,,,,,,,,,,,,,,,,,,,,,,,,,,,,,,,,,,,,,,,,,,,,,,,,,,,,,,
,8533,ABC,08/01/2003,001,2023-12-13_14h15.55.153,OS3_Mult_verification,2022.2.4,Win32,59.88023952,,,35,1.3653,1,"[""3"",""5"",""return""]","[0.9450999999046417,1.1927000002861519,1.323300000190784]",1,9,40,18,1,35,,,,,,,,,,,,,,,,,,,,,,,,,,,,,,,,,,,,,,,,,,,,,,,,,,,,,,,,,,,,,,,,,,,,,,,,,,,,,,,,,,,,,,,,,,,,,,,,,,,,,,,,,,,,,,,,,,,,,,,,,,,,,,,,,,,,,,,,,,,,,,,,,,,,,,,,,,,,,,,,,
,8533,ABC,08/01/2003,001,2023-12-13_14h15.55.153,OS3_Mult_verification,2022.2.4,Win32,59.88023952,,,40,1.3813,1,"[""4"",""0"",""return""]","[0.7904000000953602,1.1912000002861305,1.3388000001907585]",1,10,41,20,1,40,,,,,,,,,,,,,,,,,,,,,,,,,,,,,,,,,,,,,,,,,,,,,,,,,,,,,,,,,,,,,,,,,,,,,,,,,,,,,,,,,,,,,,,,,,,,,,,,,,,,,,,,,,,,,,,,,,,,,,,,,,,,,,,,,,,,,,,,,,,,,,,,,,,,,,,,,,,,,,,,,
,8533,ABC,08/01/2003,001,2023-12-13_14h15.55.153,OS3_Mult_verification,2022.2.4,Win32,59.88023952,,,4,1.0318,1,"[""4"",""return""]","[0.8388000001907017,0.9881999998092397]",1,11,42,0,1,4,,,,,,,,,,,,,,,,,,,,,,,,,,,,,,,,,,,,,,,,,,,,,,,,,,,,,,,,,,,,,,,,,,,,,,,,,,,,,,,,,,,,,,,,,,,,,,,,,,,,,,,,,,,,,,,,,,,,,,,,,,,,,,,,,,,,,,,,,,,,,,,,,,,,,,,,,,,,,,,,,
,8533,ABC,08/01/2003,001,2023-12-13_14h15.55.153,OS3_Mult_verification,2022.2.4,Win32,59.88023952,,,25,1.4313,1,"[""2"",""5"",""return""]","[1.0592999997139145,1.295500000000004,1.399699999809286]",1,12,43,13,1,25,,,,,,,,,,,,,,,,,,,,,,,,,,,,,,,,,,,,,,,,,,,,,,,,,,,,,,,,,,,,,,,,,,,,,,,,,,,,,,,,,,,,,,,,,,,,,,,,,,,,,,,,,,,,,,,,,,,,,,,,,,,,,,,,,,,,,,,,,,,,,,,,,,,,,,,,,,,,,,,,,
,8533,ABC,08/01/2003,001,2023-12-13_14h15.55.153,OS3_Mult_verification,2022.2.4,Win32,59.88023952,,,16,1.4976,1,"[""1"",""6"",""return""]","[0.7904000000953602,1.3230999999046276,1.460200000286079]",1,13,44,8,1,16,,,,,,,,,,,,,,,,,,,,,,,,,,,,,,,,,,,,,,,,,,,,,,,,,,,,,,,,,,,,,,,,,,,,,,,,,,,,,,,,,,,,,,,,,,,,,,,,,,,,,,,,,,,,,,,,,,,,,,,,,,,,,,,,,,,,,,,,,,,,,,,,,,,,,,,,,,,,,,,,,
,8533,ABC,08/01/2003,001,2023-12-13_14h15.55.153,OS3_Mult_verification,2022.2.4,Win32,59.88023952,,,27,1.1993,1,"[""2"",""7"",""return""]","[0.6593000001907399,1.0424999999999613,1.1584000000953552]",1,14,45,14,1,27,,,,,,,,,,,,,,,,,,,,,,,,,,,,,,,,,,,,,,,,,,,,,,,,,,,,,,,,,,,,,,,,,,,,,,,,,,,,,,,,,,,,,,,,,,,,,,,,,,,,,,,,,,,,,,,,,,,,,,,,,,,,,,,,,,,,,,,,,,,,,,,,,,,,,,,,,,,,,,,,,
,8533,ABC,08/01/2003,001,2023-12-13_14h15.55.153,OS3_Mult_verification,2022.2.4,Win32,59.88023952,,,30,1.5162,1,"[""3"",""0"",""return""]","[0.8004000000953511,1.2821000003814333,1.4805000000000064]",1,15,46,16,1,30,,,,,,,,,,,,,,,,,,,,,,,,,,,,,,,,,,,,,,,,,,,,,,,,,,,,,,,,,,,,,,,,,,,,,,,,,,,,,,,,,,,,,,,,,,,,,,,,,,,,,,,,,,,,,,,,,,,,,,,,,,,,,,,,,,,,,,,,,,,,,,,,,,,,,,,,,,,,,,,,,
,8533,ABC,08/01/2003,001,2023-12-13_14h15.55.153,OS3_Mult_verification,2022.2.4,Win32,59.88023952,,,81,1.7479,1,"[""8"",""1"",""return""]","[1.1576000003814784,1.4093000001907399,1.709700000286091]",1,16,47,30,1,81,,,,,,,,,,,,,,,,,,,,,,,,,,,,,,,,,,,,,,,,,,,,,,,,,,,,,,,,,,,,,,,,,,,,,,,,,,,,,,,,,,,,,,,,,,,,,,,,,,,,,,,,,,,,,,,,,,,,,,,,,,,,,,,,,,,,,,,,,,,,,,,,,,,,,,,,,,,,,,,,,
,8533,ABC,08/01/2003,001,2023-12-13_14h15.55.153,OS3_Mult_verification,2022.2.4,Win32,59.88023952,,,63,1.7811,1,"[""6"",""3"",""return""]","[1.1289000000953706,1.5245999999046376,1.7460999999046294]",1,17,48,27,1,63,,,,,,,,,,,,,,,,,,,,,,,,,,,,,,,,,,,,,,,,,,,,,,,,,,,,,,,,,,,,,,,,,,,,,,,,,,,,,,,,,,,,,,,,,,,,,,,,,,,,,,,,,,,,,,,,,,,,,,,,,,,,,,,,,,,,,,,,,,,,,,,,,,,,,,,,,,,,,,,,,
,8533,ABC,08/01/2003,001,2023-12-13_14h15.55.153,OS3_Mult_verification,2022.2.4,Win32,59.88023952,,,20,1.4985,1,"[""2"",""0"",""return""]","[0.7895000000000323,0.9558000001907772,1.458800000190763]",1,18,49,10,1,20,,,,,,,,,,,,,,,,,,,,,,,,,,,,,,,,,,,,,,,,,,,,,,,,,,,,,,,,,,,,,,,,,,,,,,,,,,,,,,,,,,,,,,,,,,,,,,,,,,,,,,,,,,,,,,,,,,,,,,,,,,,,,,,,,,,,,,,,,,,,,,,,,,,,,,,,,,,,,,,,,
,8533,ABC,08/01/2003,001,2023-12-13_14h15.55.153,OS3_Mult_verification,2022.2.4,Win32,59.88023952,,,64,1.6664,1,"[""6"",""4"",""return""]","[1.029900000095381,1.3011000003814388,1.6278000001907458]",1,19,50,28,1,64,,,,,,,,,,,,,,,,,,,,,,,,,,,,,,,,,,,,,,,,,,,,,,,,,,,,,,,,,,,,,,,,,,,,,,,,,,,,,,,,,,,,,,,,,,,,,,,,,,,,,,,,,,,,,,,,,,,,,,,,,,,,,,,,,,,,,,,,,,,,,,,,,,,,,,,,,,,,,,,,,
,8533,ABC,08/01/2003,001,2023-12-13_14h15.55.153,OS3_Mult_verification,2022.2.4,Win32,59.88023952,,,54,1.3155,1,"[""5"",""4"",""return""]","[0.7919000000953815,1.111199999809287,1.2764999999999986]",1,20,51,25,1,54,,,,,,,,,,,,,,,,,,,,,,,,,,,,,,,,,,,,,,,,,,,,,,,,,,,,,,,,,,,,,,,,,,,,,,,,,,,,,,,,,,,,,,,,,,,,,,,,,,,,,,,,,,,,,,,,,,,,,,,,,,,,,,,,,,,,,,,,,,,,,,,,,,,,,,,,,,,,,,,,,
,8533,ABC,08/01/2003,001,2023-12-13_14h15.55.153,OS3_Mult_verification,2022.2.4,Win32,59.88023952,,,14,1.1149,1,"[""1"",""4"",""return""]","[0.6746999998092633,0.9424999999999955,1.0731999998092192]",1,21,52,6,1,14,,,,,,,,,,,,,,,,,,,,,,,,,,,,,,,,,,,,,,,,,,,,,,,,,,,,,,,,,,,,,,,,,,,,,,,,,,,,,,,,,,,,,,,,,,,,,,,,,,,,,,,,,,,,,,,,,,,,,,,,,,,,,,,,,,,,,,,,,,,,,,,,,,,,,,,,,,,,,,,,,
,8533,ABC,08/01/2003,001,2023-12-13_14h15.55.153,OS3_Mult_verification,2022.2.4,Win32,59.88023952,,,18,1.1815,1,"[""1"",""8"",""return""]","[0.5509000000953961,0.9937000002861396,1.1413000001907676]",1,22,53,9,1,18,,,,,,,,,,,,,,,,,,,,,,,,,,,,,,,,,,,,,,,,,,,,,,,,,,,,,,,,,,,,,,,,,,,,,,,,,,,,,,,,,,,,,,,,,,,,,,,,,,,,,,,,,,,,,,,,,,,,,,,,,,,,,,,,,,,,,,,,,,,,,,,,,,,,,,,,,,,,,,,,,
,8533,ABC,08/01/2003,001,2023-12-13_14h15.55.153,OS3_Mult_verification,2022.2.4,Win32,59.88023952,,,48,2.4977,1,"[""3"",""backspace"",""4"",""8"",""return""]","[0.7269999999999754,1.575999999999965,1.8669999999999618,2.292900000095358,2.4580999999046185]",1,23,54,23,1,48,,,,,,,,,,,,,,,,,,,,,,,,,,,,,,,,,,,,,,,,,,,,,,,,,,,,,,,,,,,,,,,,,,,,,,,,,,,,,,,,,,,,,,,,,,,,,,,,,,,,,,,,,,,,,,,,,,,,,,,,,,,,,,,,,,,,,,,,,,,,,,,,,,,,,,,,,,,,,,,,,
,8533,ABC,08/01/2003,001,2023-12-13_14h15.55.153,OS3_Mult_verification,2022.2.4,Win32,59.88023952,,,8,1.1476,1,"[""8"",""return""]","[0.9577000002860814,1.1034999999999968]",1,24,55,2,1,8,,,,,,,,,,,,,,,,,,,,,,,,,,,,,,,,,,,,,,,,,,,,,,,,,,,,,,,,,,,,,,,,,,,,,,,,,,,,,,,,,,,,,,,,,,,,,,,,,,,,,,,,,,,,,,,,,,,,,,,,,,,,,,,,,,,,,,,,,,,,,,,,,,,,,,,,,,,,,,,,,
,8533,ABC,08/01/2003,001,2023-12-13_14h15.55.153,OS3_Mult_verification,2022.2.4,Win32,59.88023952,,,72,1.7796,1,"[""7"",""2"",""return""]","[1.0054999999999836,1.586500000000001,1.7399000000953606]",1,25,56,29,1,72,,,,,,,,,,,,,,,,,,,,,,,,,,,,,,,,,,,,,,,,,,,,,,,,,,,,,,,,,,,,,,,,,,,,,,,,,,,,,,,,,,,,,,,,,,,,,,,,,,,,,,,,,,,,,,,,,,,,,,,,,,,,,,,,,,,,,,,,,,,,,,,,,,,,,,,,,,,,,,,,,
,8533,ABC,08/01/2003,001,2023-12-13_14h15.55.153,OS3_Mult_verification,2022.2.4,Win32,59.88023952,,,42,1.315,1,"[""4"",""2"",""return""]","[0.9090999999046403,1.1725000000000136,1.2764999999999986]",1,26,57,21,1,42,,,,,,,,,,,,,,,,,,,,,,,,,,,,,,,,,,,,,,,,,,,,,,,,,,,,,,,,,,,,,,,,,,,,,,,,,,,,,,,,,,,,,,,,,,,,,,,,,,,,,,,,,,,,,,,,,,,,,,,,,,,,,,,,,,,,,,,,,,,,,,,,,,,,,,,,,,,,,,,,,
,8533,ABC,08/01/2003,001,2023-12-13_14h15.55.153,OS3_Mult_verification,2022.2.4,Win32,59.88023952,,,21,1.2149,1,"[""2"",""1"",""return""]","[0.7574999999999932,0.8925999999046326,1.1727999997139023]",1,27,58,11,1,21,,,,,,,,,,,,,,,,,,,,,,,,,,,,,,,,,,,,,,,,,,,,,,,,,,,,,,,,,,,,,,,,,,,,,,,,,,,,,,,,,,,,,,,,,,,,,,,,,,,,,,,,,,,,,,,,,,,,,,,,,,,,,,,,,,,,,,,,,,,,,,,,,,,,,,,,,,,,,,,,,
,8533,ABC,08/01/2003,001,2023-12-13_14h15.55.153,OS3_Mult_verification,2022.2.4,Win32,59.88023952,,,24,1.0319,1,"[""2"",""4"",""return""]","[0.6470999999046398,0.8969000000953997,0.9900999999046576]",1,28,59,12,1,24,,,,,,,,,,,,,,,,,,,,,,,,,,,,,,,,,,,,,,,,,,,,,,,,,,,,,,,,,,,,,,,,,,,,,,,,,,,,,,,,,,,,,,,,,,,,,,,,,,,,,,,,,,,,,,,,,,,,,,,,,,,,,,,,,,,,,,,,,,,,,,,,,,,,,,,,,,,,,,,,,
,8533,ABC,08/01/2003,001,2023-12-13_14h15.55.153,OS3_Mult_verification,2022.2.4,Win32,59.88023952,,,32,1.2315,1,"[""3"",""2"",""return""]","[0.7285999999045885,0.9085999999045953,1.1899000000953492]",1,29,60,17,1,32,,,,,,,,,,,,,,,,,,,,,,,,,,,,,,,,,,,,,,,,,,,,,,,,,,,,,,,,,,,,,,,,,,,,,,,,,,,,,,,,,,,,,,,,,,,,,,,,,,,,,,,,,,,,,,,,,,,,,,,,,,,,,,,,,,,,,,,,,,,,,,,,,,,,,,,,,,,,,,,,,
,8533,ABC,08/01/2003,001,2023-12-13_14h15.55.153,OS3_Mult_verification,2022.2.4,Win32,59.88023952,,,49,2.0979,1,"[""2"",""backspace"",""4"",""9"",""return""]","[0.6468000001907512,1.225600000381462,1.6101000003814647,1.9600000000000364,2.0625]",1,30,61,24,1,49,,,,,,,,,,,,,,,,,,,,,,,,,,,,,,,,,,,,,,,,,,,,,,,,,,,,,,,,,,,,,,,,,,,,,,,,,,,,,,,,,,,,,,,,,,,,,,,,,,,,,,,,,,,,,,,,,,,,,,,,,,,,,,,,,,,,,,,,,,,,,,,,,,,,,,,,,,,,,,,,,
,8533,ABC,08/01/2003,001,2023-12-13_14h15.55.153,OS3_Mult_verification,2022.2.4,Win32,59.88023952,,,,,,,,,,,,,,space,17.3764,,,,,,,,,,,,,,,,,,,,,,,,,,,,,,,,,,,,,,,,,,,,,,,,,,,,,,,,,,,,,,,,,,,,,,,,,,,,,,,,,,,,,,,,,,,,,,,,,,,,,,,,,,,,,,,,,,,,,,,,,,,,,,,,,,,,,,,,,,,,,,,,,,,,,,,,,,,,,,,
,8533,ABC,08/01/2003,001,2023-12-13_14h15.55.153,OS3_Mult_verification,2022.2.4,Win32,59.88023952,,,,,,,,,,,,,,,,,,,,,,,,,,,,,,,,,,,,,,,,,,,,,,,,,,,,,,,,,,,,,,,,,,,,,,,,,,,,,,,,,,,,,,,,,,,,,,,,,,,,,,,,,,,,,,,,,,,,,,,,,,,,,,,,,,,,,,,,,,,,,,,,,,,,,,,,,,,,,,,,,,,,,,,,,,,,,,
,8533,ABC,08/01/2003,001,2023-12-13_14h15.55.153,OS3_Mult_verification,2022.2.4,Win32,59.88023952,,,,,,,,,,,,,,,,space,2.6827,,,,,,,,,,,,,,,,,,,,,,,,,,,,,,,,,,,,,,,,,,,,,,,,,,,,,,,,,,,,,,,,,,,,,,,,,,,,,,,,,,,,,,,,,,,,,,,,,,,,,,,,,,,,,,,,,,,,,,,,,,,,,,,,,,,,,,,,,,,,,,,,,,,,,,,,,,,,,
,8533,ABC,08/01/2003,001,2023-12-13_14h15.55.153,OS3_Mult_verification,2022.2.4,Win32,59.88023952,,,,,,,,,,,,,,,,,,7,2.1305,1,"[""7"",""return""]","[1.6958000001907294,1.814900000095406]",0,0,0,0,1,1 × 7 =,7,,,,,,,,,,,,,,,,,,,,,,,,,,,,,,,,,,,,,,,,,,,,,,,,,,,,,,,,,,,,,,,,,,,,,,,,,,,,,,,,,,,,,,,,,,,,,,,,,,,,,,,,,,,,,,,,,,,,,,,,,,,,,,,,,,,,,,,,,,,,,,,,,
,8533,ABC,08/01/2003,001,2023-12-13_14h15.55.153,OS3_Mult_verification,2022.2.4,Win32,59.88023952,,,,,,,,,,,,,,,,,,22,1.8128,1,"[""2"",""2"",""return""]","[1.3092000002861255,1.458600000381466,1.5088000001907744]",0,1,1,2,1,2 × 11 =,22,,,,,,,,,,,,,,,,,,,,,,,,,,,,,,,,,,,,,,,,,,,,,,,,,,,,,,,,,,,,,,,,,,,,,,,,,,,,,,,,,,,,,,,,,,,,,,,,,,,,,,,,,,,,,,,,,,,,,,,,,,,,,,,,,,,,,,,,,,,,,,,,,
,8533,ABC,08/01/2003,001,2023-12-13_14h15.55.153,OS3_Mult_verification,2022.2.4,Win32,59.88023952,,,,,,,,,,,,,,,,,,20,1.7729,1,"[""2"",""0"",""return""]","[1.0145999999046467,1.3763000001907812,1.4725999999046735]",0,2,2,1,1,2 × 10 =,20,,,,,,,,,,,,,,,,,,,,,,,,,,,,,,,,,,,,,,,,,,,,,,,,,,,,,,,,,,,,,,,,,,,,,,,,,,,,,,,,,,,,,,,,,,,,,,,,,,,,,,,,,,,,,,,,,,,,,,,,,,,,,,,,,,,,,,,,,,,,,,,,,
,8533,ABC,08/01/2003,001,2023-12-13_14h15.55.153,OS3_Mult_verification,2022.2.4,Win32,59.88023952,,,,,,,,,,,,,,,,,,,,,,,,,,,,,,,,,,,,,,,,,,,,,,,,,,,,,,,,,,,,,,,,,,,,,,,,,,,,,,,,,,,,,,,,,,,,,,,,,,,,,,,,,,,,,,,,,,,,,,,,,,,,,,,,,,,,,,,,,,,,,,,,,,,,,,,,,,,,,,,,,,,,,,,,,,,,,,
,8533,ABC,08/01/2003,001,2023-12-13_14h15.55.153,OS3_Mult_verification,2022.2.4,Win32,59.88023952,,,,,,,,,,,,,,,,,,,,,,,,,,,,,,,,,,,,,,,,,,,,,,,,,,,,,,,,,,,,,,,,,,,,,,,,,,,,,,,,,,,,,,,,,,,,,,,,,,,,,,,,,,,,,,,,,,,,,,,,,,,,,,,,,,,,,,,,,,,,,,,,,,,,,,,,,,,,,,,,,,,,,,,,,,,,,,
,8533,ABC,08/01/2003,001,2023-12-13_14h15.55.153,OS3_Mult_verification,2022.2.4,Win32,59.88023952,,,,,,,,,,,,,,,,,,6,1.4694,1,"[""6"",""return""]","[1.090300000190723,1.176999999999964]",,,,,,2 × 3 =,6,0,0,0,0,1,,,,,,,,,,,,,,,,,,,,,,,,,,,,,,,,,,,,,,,,,,,,,,,,,,,,,,,,,,,,,,,,,,,,,,,,,,,,,,,,,,,,,,,,,,,,,,,,,,,,,,,,,,,,,,,,,,,,,,,,,,,,,,,,,,,,,,,,,,,,
,8533,ABC,08/01/2003,001,2023-12-13_14h15.55.153,OS3_Mult_verification,2022.2.4,Win32,59.88023952,,,,,,,,,,,,,,,,,,40,2.5483,1,"[""4"",""0"",""return""]","[1.524000000000001,2.1404999999999745,2.255700000286083]",,,,,,5 × 8 =,40,0,1,1,1,1,,,,,,,,,,,,,,,,,,,,,,,,,,,,,,,,,,,,,,,,,,,,,,,,,,,,,,,,,,,,,,,,,,,,,,,,,,,,,,,,,,,,,,,,,,,,,,,,,,,,,,,,,,,,,,,,,,,,,,,,,,,,,,,,,,,,,,,,,,,,
,8533,ABC,08/01/2003,001,2023-12-13_14h15.55.153,OS3_Mult_verification,2022.2.4,Win32,59.88023952,,,,,,,,,,,,,,,,,,12,1.4982,1,"[""1"",""2"",""return""]","[0.9244000000953747,1.1242000002861232,1.2073000001907417]",,,,,,3 × 4 =,12,0,2,2,2,1,,,,,,,,,,,,,,,,,,,,,,,,,,,,,,,,,,,,,,,,,,,,,,,,,,,,,,,,,,,,,,,,,,,,,,,,,,,,,,,,,,,,,,,,,,,,,,,,,,,,,,,,,,,,,,,,,,,,,,,,,,,,,,,,,,,,,,,,,,,,
,8533,ABC,08/01/2003,001,2023-12-13_14h15.55.153,OS3_Mult_verification,2022.2.4,Win32,59.88023952,,,,,,,,,,,,,,,,,,15,1.7486,1,"[""1"",""5"",""return""]","[0.8790000000000191,1.359299999713869,1.4458999996185185]",,,,,,5 × 3 =,15,0,3,3,3,1,,,,,,,,,,,,,,,,,,,,,,,,,,,,,,,,,,,,,,,,,,,,,,,,,,,,,,,,,,,,,,,,,,,,,,,,,,,,,,,,,,,,,,,,,,,,,,,,,,,,,,,,,,,,,,,,,,,,,,,,,,,,,,,,,,,,,,,,,,,,
,8533,ABC,08/01/2003,001,2023-12-13_14h15.55.153,OS3_Mult_verification,2022.2.4,Win32,59.88023952,,,,,,,,,,,,,,,,,,8,1.9318,1,"[""8"",""return""]","[1.5035999999046794,1.6233000001907385]",,,,,,2 × 4 =,8,0,4,4,4,1,,,,,,,,,,,,,,,,,,,,,,,,,,,,,,,,,,,,,,,,,,,,,,,,,,,,,,,,,,,,,,,,,,,,,,,,,,,,,,,,,,,,,,,,,,,,,,,,,,,,,,,,,,,,,,,,,,,,,,,,,,,,,,,,,,,,,,,,,,,,
,8533,ABC,08/01/2003,001,2023-12-13_14h15.55.153,OS3_Mult_verification,2022.2.4,Win32,59.88023952,,,,,,,,,,,,,,,,,,4,1.316,1,"[""4"",""return""]","[0.8930000000000291,1.0275000000000318]",,,,,,2 × 2 =,4,0,5,5,5,1,,,,,,,,,,,,,,,,,,,,,,,,,,,,,,,,,,,,,,,,,,,,,,,,,,,,,,,,,,,,,,,,,,,,,,,,,,,,,,,,,,,,,,,,,,,,,,,,,,,,,,,,,,,,,,,,,,,,,,,,,,,,,,,,,,,,,,,,,,,,
,8533,ABC,08/01/2003,001,2023-12-13_14h15.55.153,OS3_Mult_verification,2022.2.4,Win32,59.88023952,,,,,,,,,,,,,,,,,,20,3.2982,1,"[""2"",""0"",""return""]","[2.470599999904664,2.8719000000953656,2.9855999999046503]",,,,,,4 × 5 =,20,0,6,6,6,1,,,,,,,,,,,,,,,,,,,,,,,,,,,,,,,,,,,,,,,,,,,,,,,,,,,,,,,,,,,,,,,,,,,,,,,,,,,,,,,,,,,,,,,,,,,,,,,,,,,,,,,,,,,,,,,,,,,,,,,,,,,,,,,,,,,,,,,,,,,,
,8533,ABC,08/01/2003,001,2023-12-13_14h15.55.153,OS3_Mult_verification,2022.2.4,Win32,59.88023952,,,,,,,,,,,,,,,,,,9,1.6952,1,"[""9"",""return""]","[1.258599999904618,1.3939999999999486]",,,,,,3 × 3 =,9,0,7,7,7,1,,,,,,,,,,,,,,,,,,,,,,,,,,,,,,,,,,,,,,,,,,,,,,,,,,,,,,,,,,,,,,,,,,,,,,,,,,,,,,,,,,,,,,,,,,,,,,,,,,,,,,,,,,,,,,,,,,,,,,,,,,,,,,,,,,,,,,,,,,,,
,8533,ABC,08/01/2003,001,2023-12-13_14h15.55.153,OS3_Mult_verification,2022.2.4,Win32,59.88023952,,,,,,,,,,,,,,,,,,10,1.6489,1,"[""1"",""0"",""return""]","[0.8507999997138995,1.2439000000953797,1.3486999998092415]",,,,,,5 × 2 =,10,0,8,8,8,1,,,,,,,,,,,,,,,,,,,,,,,,,,,,,,,,,,,,,,,,,,,,,,,,,,,,,,,,,,,,,,,,,,,,,,,,,,,,,,,,,,,,,,,,,,,,,,,,,,,,,,,,,,,,,,,,,,,,,,,,,,,,,,,,,,,,,,,,,,,,
,8533,ABC,08/01/2003,001,2023-12-13_14h15.55.153,OS3_Mult_verification,2022.2.4,Win32,59.88023952,,,,,,,,,,,,,,,,,,16,2.2319,1,"[""1"",""6"",""return""]","[1.4184999999999945,1.7956999998092442,1.9229000000953533]",,,,,,4 × 4 =,16,0,9,9,9,1,,,,,,,,,,,,,,,,,,,,,,,,,,,,,,,,,,,,,,,,,,,,,,,,,,,,,,,,,,,,,,,,,,,,,,,,,,,,,,,,,,,,,,,,,,,,,,,,,,,,,,,,,,,,,,,,,,,,,,,,,,,,,,,,,,,,,,,,,,,,
,8533,ABC,08/01/2003,001,2023-12-13_14h15.55.153,OS3_Mult_verification,2022.2.4,Win32,59.88023952,,,,,,,,,,,,,,,,,,24,1.8154,1,"[""2"",""4"",""return""]","[1.1914999999999623,1.409199999809232,1.522599999904628]",,,,,,8 × 3 =,24,0,10,10,10,1,,,,,,,,,,,,,,,,,,,,,,,,,,,,,,,,,,,,,,,,,,,,,,,,,,,,,,,,,,,,,,,,,,,,,,,,,,,,,,,,,,,,,,,,,,,,,,,,,,,,,,,,,,,,,,,,,,,,,,,,,,,,,,,,,,,,,,,,,,,,
,8533,ABC,08/01/2003,001,2023-12-13_14h15.55.153,OS3_Mult_verification,2022.2.4,Win32,59.88023952,,,,,,,,,,,,,,,,,,30,2.0161,1,"[""3"",""0"",""return""]","[1.1810999999046317,1.610899999618539,1.7232999997139018]",,,,,,6 × 5 =,30,0,11,11,11,1,,,,,,,,,,,,,,,,,,,,,,,,,,,,,,,,,,,,,,,,,,,,,,,,,,,,,,,,,,,,,,,,,,,,,,,,,,,,,,,,,,,,,,,,,,,,,,,,,,,,,,,,,,,,,,,,,,,,,,,,,,,,,,,,,,,,,,,,,,,,
,8533,ABC,08/01/2003,001,2023-12-13_14h15.55.153,OS3_Mult_verification,2022.2.4,Win32,59.88023952,,,,,,,,,,,,,,,,,,14,2.3203,1,"[""1"",""4"",""return""]","[1.476500000000044,1.906499999999994,2.0194999999999936]",,,,,,7 × 2 =,14,0,12,12,12,1,,,,,,,,,,,,,,,,,,,,,,,,,,,,,,,,,,,,,,,,,,,,,,,,,,,,,,,,,,,,,,,,,,,,,,,,,,,,,,,,,,,,,,,,,,,,,,,,,,,,,,,,,,,,,,,,,,,,,,,,,,,,,,,,,,,,,,,,,,,,
,8533,ABC,08/01/2003,001,2023-12-13_14h15.55.153,OS3_Mult_verification,2022.2.4,Win32,59.88023952,,,,,,,,,,,,,,,,,,27,2.7265,1,"[""3"",""backspace"",""2"",""7"",""return""]","[1.1020999999046808,1.835599999904673,1.9350000000000023,2.2515000000000214,2.418400000095403]",,,,,,3 × 9 =,27,0,13,13,13,1,,,,,,,,,,,,,,,,,,,,,,,,,,,,,,,,,,,,,,,,,,,,,,,,,,,,,,,,,,,,,,,,,,,,,,,,,,,,,,,,,,,,,,,,,,,,,,,,,,,,,,,,,,,,,,,,,,,,,,,,,,,,,,,,,,,,,,,,,,,,
,8533,ABC,08/01/2003,001,2023-12-13_14h15.55.153,OS3_Mult_verification,2022.2.4,Win32,59.88023952,,,,,,,,,,,,,,,,,,16,1.9141,1,"[""1"",""6"",""return""]","[0.9213999996185294,1.5101999998092879,1.6034999999999968]",,,,,,2 × 8 =,16,0,14,14,14,1,,,,,,,,,,,,,,,,,,,,,,,,,,,,,,,,,,,,,,,,,,,,,,,,,,,,,,,,,,,,,,,,,,,,,,,,,,,,,,,,,,,,,,,,,,,,,,,,,,,,,,,,,,,,,,,,,,,,,,,,,,,,,,,,,,,,,,,,,,,,
,8533,ABC,08/01/2003,001,2023-12-13_14h15.55.153,OS3_Mult_verification,2022.2.4,Win32,59.88023952,,,,,,,,,,,,,,,,,,24,2.2154,1,"[""2"",""4"",""return""]","[1.5486999998092301,1.8100999999046508,1.9259999999999877]",,,,,,4 × 6 =,24,0,15,15,15,1,,,,,,,,,,,,,,,,,,,,,,,,,,,,,,,,,,,,,,,,,,,,,,,,,,,,,,,,,,,,,,,,,,,,,,,,,,,,,,,,,,,,,,,,,,,,,,,,,,,,,,,,,,,,,,,,,,,,,,,,,,,,,,,,,,,,,,,,,,,,
,8533,ABC,08/01/2003,001,2023-12-13_14h15.55.153,OS3_Mult_verification,2022.2.4,Win32,59.88023952,,,,,,,,,,,,,,,,,,21,1.4651,1,"[""2"",""1"",""return""]","[0.9269999999999641,1.1091999998092206,1.164900000095372]",,,,,,7 × 3 =,21,0,16,16,16,1,,,,,,,,,,,,,,,,,,,,,,,,,,,,,,,,,,,,,,,,,,,,,,,,,,,,,,,,,,,,,,,,,,,,,,,,,,,,,,,,,,,,,,,,,,,,,,,,,,,,,,,,,,,,,,,,,,,,,,,,,,,,,,,,,,,,,,,,,,,,
,8533,ABC,08/01/2003,001,2023-12-13_14h15.55.153,OS3_Mult_verification,2022.2.4,Win32,59.88023952,,,,,,,,,,,,,,,,,,27,2.0985,1,"[""2"",""7"",""return""]","[1.3584999999999923,1.7163000001906994,1.8125]",,,,,,9 × 3 =,27,0,17,17,17,1,,,,,,,,,,,,,,,,,,,,,,,,,,,,,,,,,,,,,,,,,,,,,,,,,,,,,,,,,,,,,,,,,,,,,,,,,,,,,,,,,,,,,,,,,,,,,,,,,,,,,,,,,,,,,,,,,,,,,,,,,,,,,,,,,,,,,,,,,,,,
,8533,ABC,08/01/2003,001,2023-12-13_14h15.55.153,OS3_Mult_verification,2022.2.4,Win32,59.88023952,,,,,,,,,,,,,,,,,,28,2.2152,1,"[""2"",""8"",""return""]","[1.4406999998092829,1.8087999997139264,1.9263999996185248]",,,,,,4 × 7 =,28,0,18,18,18,1,,,,,,,,,,,,,,,,,,,,,,,,,,,,,,,,,,,,,,,,,,,,,,,,,,,,,,,,,,,,,,,,,,,,,,,,,,,,,,,,,,,,,,,,,,,,,,,,,,,,,,,,,,,,,,,,,,,,,,,,,,,,,,,,,,,,,,,,,,,,
,8533,ABC,08/01/2003,001,2023-12-13_14h15.55.153,OS3_Mult_verification,2022.2.4,Win32,59.88023952,,,,,,,,,,,,,,,,,,18,2.2065,1,"[""1"",""8"",""return""]","[1.4419000000953588,1.84050000000002,1.9288000001907335]",,,,,,2 × 9 =,18,0,19,19,19,1,,,,,,,,,,,,,,,,,,,,,,,,,,,,,,,,,,,,,,,,,,,,,,,,,,,,,,,,,,,,,,,,,,,,,,,,,,,,,,,,,,,,,,,,,,,,,,,,,,,,,,,,,,,,,,,,,,,,,,,,,,,,,,,,,,,,,,,,,,,,
,8533,ABC,08/01/2003,001,2023-12-13_14h15.55.153,OS3_Mult_verification,2022.2.4,Win32,59.88023952,,,,,,,,,,,,,,,,,,72,3.2242,1,"[""7"",""2"",""return""]","[1.8132999997139336,2.8127999997139455,2.924199999809275]",,,,,,9 × 8 =,72,0,20,20,20,1,,,,,,,,,,,,,,,,,,,,,,,,,,,,,,,,,,,,,,,,,,,,,,,,,,,,,,,,,,,,,,,,,,,,,,,,,,,,,,,,,,,,,,,,,,,,,,,,,,,,,,,,,,,,,,,,,,,,,,,,,,,,,,,,,,,,,,,,,,,,
,8533,ABC,08/01/2003,001,2023-12-13_14h15.55.153,OS3_Mult_verification,2022.2.4,Win32,59.88023952,,,,,,,,,,,,,,,,,,42,2.8775,1,"[""4"",""2"",""return""]","[2.2110000000000127,2.4614000000953524,2.5802000002860837]",,,,,,7 × 6 =,42,0,21,21,21,1,,,,,,,,,,,,,,,,,,,,,,,,,,,,,,,,,,,,,,,,,,,,,,,,,,,,,,,,,,,,,,,,,,,,,,,,,,,,,,,,,,,,,,,,,,,,,,,,,,,,,,,,,,,,,,,,,,,,,,,,,,,,,,,,,,,,,,,,,,,,
,8533,ABC,08/01/2003,001,2023-12-13_14h15.55.153,OS3_Mult_verification,2022.2.4,Win32,59.88023952,,,,,,,,,,,,,,,,,,54,2.6652,1,"[""5"",""4"",""return""]","[2.094199999809291,2.291199999809294,2.3715999999046744]",,,,,,6 × 9 =,54,0,22,22,22,1,,,,,,,,,,,,,,,,,,,,,,,,,,,,,,,,,,,,,,,,,,,,,,,,,,,,,,,,,,,,,,,,,,,,,,,,,,,,,,,,,,,,,,,,,,,,,,,,,,,,,,,,,,,,,,,,,,,,,,,,,,,,,,,,,,,,,,,,,,,,
,8533,ABC,08/01/2003,001,2023-12-13_14h15.55.153,OS3_Mult_verification,2022.2.4,Win32,59.88023952,,,,,,,,,,,,,,,,,,45,2.7769,1,"[""4"",""5"",""return""]","[2.1767000002861323,2.3763000001907244,2.4768000001907353]",,,,,,9 × 5 =,45,0,23,23,23,1,,,,,,,,,,,,,,,,,,,,,,,,,,,,,,,,,,,,,,,,,,,,,,,,,,,,,,,,,,,,,,,,,,,,,,,,,,,,,,,,,,,,,,,,,,,,,,,,,,,,,,,,,,,,,,,,,,,,,,,,,,,,,,,,,,,,,,,,,,,,
,8533,ABC,08/01/2003,001,2023-12-13_14h15.55.153,OS3_Mult_verification,2022.2.4,Win32,59.88023952,,,,,,,,,,,,,,,,,,56,2.6487,1,"[""5"",""6"",""return""]","[2.0065999999046085,2.2115999999046494,2.340199999809272]",,,,,,8 × 7 =,56,0,24,24,24,1,,,,,,,,,,,,,,,,,,,,,,,,,,,,,,,,,,,,,,,,,,,,,,,,,,,,,,,,,,,,,,,,,,,,,,,,,,,,,,,,,,,,,,,,,,,,,,,,,,,,,,,,,,,,,,,,,,,,,,,,,,,,,,,,,,,,,,,,,,,,
,8533,ABC,08/01/2003,001,2023-12-13_14h15.55.153,OS3_Mult_verification,2022.2.4,Win32,59.88023952,,,,,,,,,,,,,,,,,,36,1.9755,1,"[""3"",""6"",""return""]","[1.0430000000000064,1.5755999999046253,1.6784999999999854]",,,,,,6 × 6 =,36,0,25,25,25,1,,,,,,,,,,,,,,,,,,,,,,,,,,,,,,,,,,,,,,,,,,,,,,,,,,,,,,,,,,,,,,,,,,,,,,,,,,,,,,,,,,,,,,,,,,,,,,,,,,,,,,,,,,,,,,,,,,,,,,,,,,,,,,,,,,,,,,,,,,,,
,8533,ABC,08/01/2003,001,2023-12-13_14h15.55.153,OS3_Mult_verification,2022.2.4,Win32,59.88023952,,,,,,,,,,,,,,,,,,35,1.7153,1,"[""3"",""5"",""return""]","[1.0765999999046585,1.3414999999999964,1.4235999999046385]",,,,,,5 × 7 =,35,0,26,26,26,1,,,,,,,,,,,,,,,,,,,,,,,,,,,,,,,,,,,,,,,,,,,,,,,,,,,,,,,,,,,,,,,,,,,,,,,,,,,,,,,,,,,,,,,,,,,,,,,,,,,,,,,,,,,,,,,,,,,,,,,,,,,,,,,,,,,,,,,,,,,,
,8533,ABC,08/01/2003,001,2023-12-13_14h15.55.153,OS3_Mult_verification,2022.2.4,Win32,59.88023952,,,,,,,,,,,,,,,,,,36,2.1653,1,"[""3"",""6"",""return""]","[1.4428000001907435,1.7912000002860964,1.853600000381448]",,,,,,4 × 9 =,36,0,27,27,27,1,,,,,,,,,,,,,,,,,,,,,,,,,,,,,,,,,,,,,,,,,,,,,,,,,,,,,,,,,,,,,,,,,,,,,,,,,,,,,,,,,,,,,,,,,,,,,,,,,,,,,,,,,,,,,,,,,,,,,,,,,,,,,,,,,,,,,,,,,,,,
,8533,ABC,08/01/2003,001,2023-12-13_14h15.55.153,OS3_Mult_verification,2022.2.4,Win32,59.88023952,,,,,,,,,,,,,,,,,,48,2.3816,1,"[""4"",""8"",""return""]","[1.6095000000000255,1.992899999618544,2.0965000000000487]",,,,,,8 × 6 =,48,0,28,28,28,1,,,,,,,,,,,,,,,,,,,,,,,,,,,,,,,,,,,,,,,,,,,,,,,,,,,,,,,,,,,,,,,,,,,,,,,,,,,,,,,,,,,,,,,,,,,,,,,,,,,,,,,,,,,,,,,,,,,,,,,,,,,,,,,,,,,,,,,,,,,,
,8533,ABC,08/01/2003,001,2023-12-13_14h15.55.153,OS3_Mult_verification,2022.2.4,Win32,59.88023952,,,,,,,,,,,,,,,,,,63,2.2541,1,"[""6"",""3"",""return""]","[1.5442000002860823,1.8753000001906912,1.95620000028606]",,,,,,9 × 7 =,63,0,29,29,29,1,,,,,,,,,,,,,,,,,,,,,,,,,,,,,,,,,,,,,,,,,,,,,,,,,,,,,,,,,,,,,,,,,,,,,,,,,,,,,,,,,,,,,,,,,,,,,,,,,,,,,,,,,,,,,,,,,,,,,,,,,,,,,,,,,,,,,,,,,,,,
,8533,ABC,08/01/2003,001,2023-12-13_14h15.55.153,OS3_Mult_verification,2022.2.4,Win32,59.88023952,,,,,,,,,,,,,,,,,,12,1.4821,1,"[""1"",""2"",""return""]","[0.8925000000000409,1.0586000003814888,1.1920000000000073]",,,,,,4 × 3 =,12,0,30,30,30,1,,,,,,,,,,,,,,,,,,,,,,,,,,,,,,,,,,,,,,,,,,,,,,,,,,,,,,,,,,,,,,,,,,,,,,,,,,,,,,,,,,,,,,,,,,,,,,,,,,,,,,,,,,,,,,,,,,,,,,,,,,,,,,,,,,,,,,,,,,,,
,8533,ABC,08/01/2003,001,2023-12-13_14h15.55.153,OS3_Mult_verification,2022.2.4,Win32,59.88023952,,,,,,,,,,,,,,,,,,25,1.4823,1,"[""2"",""5"",""return""]","[0.8253000001907367,1.0994999999999777,1.1909000000953824]",,,,,,5 × 5 =,25,0,31,31,31,1,,,,,,,,,,,,,,,,,,,,,,,,,,,,,,,,,,,,,,,,,,,,,,,,,,,,,,,,,,,,,,,,,,,,,,,,,,,,,,,,,,,,,,,,,,,,,,,,,,,,,,,,,,,,,,,,,,,,,,,,,,,,,,,,,,,,,,,,,,,,
,8533,ABC,08/01/2003,001,2023-12-13_14h15.55.153,OS3_Mult_verification,2022.2.4,Win32,59.88023952,,,,,,,,,,,,,,,,,,6,2.3652,1,"[""6"",""return""]","[1.9971999998092542,2.0632999997139336]",,,,,,3 × 2 =,6,0,32,32,32,1,,,,,,,,,,,,,,,,,,,,,,,,,,,,,,,,,,,,,,,,,,,,,,,,,,,,,,,,,,,,,,,,,,,,,,,,,,,,,,,,,,,,,,,,,,,,,,,,,,,,,,,,,,,,,,,,,,,,,,,,,,,,,,,,,,,,,,,,,,,,
,8533,ABC,08/01/2003,001,2023-12-13_14h15.55.153,OS3_Mult_verification,2022.2.4,Win32,59.88023952,,,,,,,,,,,,,,,,,,20,1.6654,1,"[""2"",""0"",""return""]","[0.8509999999999991,1.2754000000953738,1.3571000003814788]",,,,,,5 × 4 =,20,0,33,33,33,1,,,,,,,,,,,,,,,,,,,,,,,,,,,,,,,,,,,,,,,,,,,,,,,,,,,,,,,,,,,,,,,,,,,,,,,,,,,,,,,,,,,,,,,,,,,,,,,,,,,,,,,,,,,,,,,,,,,,,,,,,,,,,,,,,,,,,,,,,,,,
,8533,ABC,08/01/2003,001,2023-12-13_14h15.55.153,OS3_Mult_verification,2022.2.4,Win32,59.88023952,,,,,,,,,,,,,,,,,,8,1.3154,1,"[""8"",""return""]","[0.9118000001907376,1.0267000002860982]",,,,,,4 × 2 =,8,0,34,34,34,1,,,,,,,,,,,,,,,,,,,,,,,,,,,,,,,,,,,,,,,,,,,,,,,,,,,,,,,,,,,,,,,,,,,,,,,,,,,,,,,,,,,,,,,,,,,,,,,,,,,,,,,,,,,,,,,,,,,,,,,,,,,,,,,,,,,,,,,,,,,,
,8533,ABC,08/01/2003,001,2023-12-13_14h15.55.153,OS3_Mult_verification,2022.2.4,Win32,59.88023952,,,,,,,,,,,,,,,,,,12,1.3654,1,"[""1"",""2"",""return""]","[0.7685999999046089,0.9636999998092506,1.0602999997138909]",,,,,,2 × 6 =,12,0,35,35,35,1,,,,,,,,,,,,,,,,,,,,,,,,,,,,,,,,,,,,,,,,,,,,,,,,,,,,,,,,,,,,,,,,,,,,,,,,,,,,,,,,,,,,,,,,,,,,,,,,,,,,,,,,,,,,,,,,,,,,,,,,,,,,,,,,,,,,,,,,,,,,
,8533,ABC,08/01/2003,001,2023-12-13_14h15.55.153,OS3_Mult_verification,2022.2.4,Win32,59.88023952,,,,,,,,,,,,,,,,,,15,1.4492,1,"[""1"",""5"",""return""]","[0.7600999999046394,1.0635999999046248,1.1624000000953743]",,,,,,3 × 5 =,15,0,36,36,36,1,,,,,,,,,,,,,,,,,,,,,,,,,,,,,,,,,,,,,,,,,,,,,,,,,,,,,,,,,,,,,,,,,,,,,,,,,,,,,,,,,,,,,,,,,,,,,,,,,,,,,,,,,,,,,,,,,,,,,,,,,,,,,,,,,,,,,,,,,,,,
,8533,ABC,08/01/2003,001,2023-12-13_14h15.55.153,OS3_Mult_verification,2022.2.4,Win32,59.88023952,,,,,,,,,,,,,,,,,,18,2.2484,1,"[""1"",""8"",""return""]","[1.3778000001907458,1.8438000001906971,1.947999999999979]",,,,,,6 × 3 =,18,0,37,37,37,1,,,,,,,,,,,,,,,,,,,,,,,,,,,,,,,,,,,,,,,,,,,,,,,,,,,,,,,,,,,,,,,,,,,,,,,,,,,,,,,,,,,,,,,,,,,,,,,,,,,,,,,,,,,,,,,,,,,,,,,,,,,,,,,,,,,,,,,,,,,,
,8533,ABC,08/01/2003,001,2023-12-13_14h15.55.153,OS3_Mult_verification,2022.2.4,Win32,59.88023952,,,,,,,,,,,,,,,,,,10,2.0816,1,"[""1"",""0"",""return""]","[1.2788000001906994,1.7109000000953642,1.7909000000953483]",,,,,,2 × 5 =,10,0,38,38,38,1,,,,,,,,,,,,,,,,,,,,,,,,,,,,,,,,,,,,,,,,,,,,,,,,,,,,,,,,,,,,,,,,,,,,,,,,,,,,,,,,,,,,,,,,,,,,,,,,,,,,,,,,,,,,,,,,,,,,,,,,,,,,,,,,,,,,,,,,,,,,
,8533,ABC,08/01/2003,001,2023-12-13_14h15.55.153,OS3_Mult_verification,2022.2.4,Win32,59.88023952,,,,,,,,,,,,,,,,,,32,3.2319,1,"[""3"",""2"",""return""]","[1.9883999996185366,2.7882999997138995,2.93339999961853]",,,,,,4 × 8 =,32,0,39,39,39,1,,,,,,,,,,,,,,,,,,,,,,,,,,,,,,,,,,,,,,,,,,,,,,,,,,,,,,,,,,,,,,,,,,,,,,,,,,,,,,,,,,,,,,,,,,,,,,,,,,,,,,,,,,,,,,,,,,,,,,,,,,,,,,,,,,,,,,,,,,,,
,8533,ABC,08/01/2003,001,2023-12-13_14h15.55.153,OS3_Mult_verification,2022.2.4,Win32,59.88023952,,,,,,,,,,,,,,,,,,24,2.3612,1,"[""2"",""4"",""return""]","[1.6782999997138859,1.9799000000953697,2.067799999713884]",,,,,,3 × 8 =,24,0,40,40,40,1,,,,,,,,,,,,,,,,,,,,,,,,,,,,,,,,,,,,,,,,,,,,,,,,,,,,,,,,,,,,,,,,,,,,,,,,,,,,,,,,,,,,,,,,,,,,,,,,,,,,,,,,,,,,,,,,,,,,,,,,,,,,,,,,,,,,,,,,,,,,
,8533,ABC,08/01/2003,001,2023-12-13_14h15.55.153,OS3_Mult_verification,2022.2.4,Win32,59.88023952,,,,,,,,,,,,,,,,,,30,2.4704,1,"[""3"",""0"",""return""]","[1.6034000000954052,2.042500000000018,2.173500000000047]",,,,,,5 × 6 =,30,0,41,41,41,1,,,,,,,,,,,,,,,,,,,,,,,,,,,,,,,,,,,,,,,,,,,,,,,,,,,,,,,,,,,,,,,,,,,,,,,,,,,,,,,,,,,,,,,,,,,,,,,,,,,,,,,,,,,,,,,,,,,,,,,,,,,,,,,,,,,,,,,,,,,,
,8533,ABC,08/01/2003,001,2023-12-13_14h15.55.153,OS3_Mult_verification,2022.2.4,Win32,59.88023952,,,,,,,,,,,,,,,,,,,1.2617,0,,,,,,,,2 × 7 =,14,0,42,42,42,1,,,,,,,,,,,,,,,,,,,,,,,,,,,,,,,,,,,,,,,,,,,,,,,,,,,,,,,,,,,,,,,,,,,,,,,,,,,,,,,,,,,,,,,,,,,,,,,,,,,,,,,,,,,,,,,,,,,,,,,,,,,,,,,,,,,,,,,,,,,,
,8533,ABC,08/01/2003,001,2023-12-13_14h15.55.153,OS3_Mult_verification,2022.2.4,Win32,59.88023952,,,,,,,,,,,,,,,,space,1.5362,,,,,,,,,,,,,,,,,,right,1,1.0323,0,0,0,1,1,practice,4,3,4 | 3,1,0.05,0.065,incongruent,right,,,,,,,,,,,,,,,,,,,,,,,,,,,,,,,,,,,,,,,,,,,,,,,,,,,,,,,,,,,,,,,,,,,,,,,,,,,,,,,,,,,,,,,,,,,,,,,,,,,,,,,,,,,,,,,,,,,,,,,,,,,
,8533,ABC,08/01/2003,001,2023-12-13_14h15.55.153,OS3_Mult_verification,2022.2.4,Win32,59.88023952,,,,,,,,,,,,,,,,,,,,,,,,,,,,,,,,,,,right,1,0.4912,0,1,1,2,1,practice,9,9,9 | 9,0,0.05,0.065,neutral,right,,,,,,,,,,,,,,,,,,,,,,,,,,,,,,,,,,,,,,,,,,,,,,,,,,,,,,,,,,,,,,,,,,,,,,,,,,,,,,,,,,,,,,,,,,,,,,,,,,,,,,,,,,,,,,,,,,,,,,,,,,,
,8533,ABC,08/01/2003,001,2023-12-13_14h15.55.153,OS3_Mult_verification,2022.2.4,Win32,59.88023952,,,,,,,,,,,,,,,,,,,,,,,,,,,,,,,,,,,left,1,0.4239,0,2,2,0,1,practice,9,8,9 | 8,1,0.065,0.05,congruent,left,,,,,,,,,,,,,,,,,,,,,,,,,,,,,,,,,,,,,,,,,,,,,,,,,,,,,,,,,,,,,,,,,,,,,,,,,,,,,,,,,,,,,,,,,,,,,,,,,,,,,,,,,,,,,,,,,,,,,,,,,,,
,8533,ABC,08/01/2003,001,2023-12-13_14h15.55.153,OS3_Mult_verification,2022.2.4,Win32,59.88023952,,,,,,,,,,,,,,,,,,,,,,,,,,,,,,,,,,,right,1,0.5613,,,,,,physical,4,2,4 | 2,2,0.05,0.065,incongruent,right,0,0,0,37,1,,,,,,,,,,,,,,,,,,,,,,,,,,,,,,,,,,,,,,,,,,,,,,,,,,,,,,,,,,,,,,,,,,,,,,,,,,,,,,,,,,,,,,,,,,,,,,,,,,,,,,,,,,,,,,,,,,,,,,
,8533,ABC,08/01/2003,001,2023-12-13_14h15.55.153,OS3_Mult_verification,2022.2.4,Win32,59.88023952,,,,,,,,,,,,,,,,,,,,,,,,,,,,,,,,,,,right,1,0.5723,,,,,,physical,3,4,3 | 4,1,0.05,0.065,congruent,right,0,1,1,1,1,,,,,,,,,,,,,,,,,,,,,,,,,,,,,,,,,,,,,,,,,,,,,,,,,,,,,,,,,,,,,,,,,,,,,,,,,,,,,,,,,,,,,,,,,,,,,,,,,,,,,,,,,,,,,,,,,,,,,,
,8533,ABC,08/01/2003,001,2023-12-13_14h15.55.153,OS3_Mult_verification,2022.2.4,Win32,59.88023952,,,,,,,,,,,,,,,,,,,,,,,,,,,,,,,,,,,left,1,0.4711,,,,,,physical,8,9,8 | 9,1,0.065,0.05,incongruent,left,0,2,2,27,1,,,,,,,,,,,,,,,,,,,,,,,,,,,,,,,,,,,,,,,,,,,,,,,,,,,,,,,,,,,,,,,,,,,,,,,,,,,,,,,,,,,,,,,,,,,,,,,,,,,,,,,,,,,,,,,,,,,,,,
,8533,ABC,08/01/2003,001,2023-12-13_14h15.55.153,OS3_Mult_verification,2022.2.4,Win32,59.88023952,,,,,,,,,,,,,,,,,,,,,,,,,,,,,,,,,,,right,1,0.5464,,,,,,physical,2,4,2 | 4,2,0.05,0.065,congruent,right,0,3,3,9,1,,,,,,,,,,,,,,,,,,,,,,,,,,,,,,,,,,,,,,,,,,,,,,,,,,,,,,,,,,,,,,,,,,,,,,,,,,,,,,,,,,,,,,,,,,,,,,,,,,,,,,,,,,,,,,,,,,,,,,
,8533,ABC,08/01/2003,001,2023-12-13_14h15.55.153,OS3_Mult_verification,2022.2.4,Win32,59.88023952,,,,,,,,,,,,,,,,,,,,,,,,,,,,,,,,,,,left,1,0.4922,,,,,,physical,6,6,6 | 6,0,0.065,0.05,neutral,left,0,4,4,50,1,,,,,,,,,,,,,,,,,,,,,,,,,,,,,,,,,,,,,,,,,,,,,,,,,,,,,,,,,,,,,,,,,,,,,,,,,,,,,,,,,,,,,,,,,,,,,,,,,,,,,,,,,,,,,,,,,,,,,,
,8533,ABC,08/01/2003,001,2023-12-13_14h15.55.153,OS3_Mult_verification,2022.2.4,Win32,59.88023952,,,,,,,,,,,,,,,,,,,,,,,,,,,,,,,,,,,left,1,0.5545,,,,,,physical,1,1,1 | 1,0,0.065,0.05,neutral,left,0,5,5,64,1,,,,,,,,,,,,,,,,,,,,,,,,,,,,,,,,,,,,,,,,,,,,,,,,,,,,,,,,,,,,,,,,,,,,,,,,,,,,,,,,,,,,,,,,,,,,,,,,,,,,,,,,,,,,,,,,,,,,,,
,8533,ABC,08/01/2003,001,2023-12-13_14h15.55.153,OS3_Mult_verification,2022.2.4,Win32,59.88023952,,,,,,,,,,,,,,,,,,,,,,,,,,,,,,,,,,,right,1,0.4623,,,,,,physical,6,6,6 | 6,0,0.05,0.065,neutral,right,0,6,6,58,1,,,,,,,,,,,,,,,,,,,,,,,,,,,,,,,,,,,,,,,,,,,,,,,,,,,,,,,,,,,,,,,,,,,,,,,,,,,,,,,,,,,,,,,,,,,,,,,,,,,,,,,,,,,,,,,,,,,,,,
,8533,ABC,08/01/2003,001,2023-12-13_14h15.55.153,OS3_Mult_verification,2022.2.4,Win32,59.88023952,,,,,,,,,,,,,,,,,,,,,,,,,,,,,,,,,,,left,1,0.5132,,,,,,physical,3,1,3 | 1,2,0.065,0.05,congruent,left,0,7,7,12,1,,,,,,,,,,,,,,,,,,,,,,,,,,,,,,,,,,,,,,,,,,,,,,,,,,,,,,,,,,,,,,,,,,,,,,,,,,,,,,,,,,,,,,,,,,,,,,,,,,,,,,,,,,,,,,,,,,,,,,
,8533,ABC,08/01/2003,001,2023-12-13_14h15.55.153,OS3_Mult_verification,2022.2.4,Win32,59.88023952,,,,,,,,,,,,,,,,,,,,,,,,,,,,,,,,,,,right,1,0.5325,,,,,,physical,8,8,8 | 8,0,0.05,0.065,neutral,right,0,8,8,62,1,,,,,,,,,,,,,,,,,,,,,,,,,,,,,,,,,,,,,,,,,,,,,,,,,,,,,,,,,,,,,,,,,,,,,,,,,,,,,,,,,,,,,,,,,,,,,,,,,,,,,,,,,,,,,,,,,,,,,,
,8533,ABC,08/01/2003,001,2023-12-13_14h15.55.153,OS3_Mult_verification,2022.2.4,Win32,59.88023952,,,,,,,,,,,,,,,,,,,,,,,,,,,,,,,,,,,left,1,0.4306,,,,,,physical,4,2,4 | 2,2,0.065,0.05,congruent,left,0,9,9,13,1,,,,,,,,,,,,,,,,,,,,,,,,,,,,,,,,,,,,,,,,,,,,,,,,,,,,,,,,,,,,,,,,,,,,,,,,,,,,,,,,,,,,,,,,,,,,,,,,,,,,,,,,,,,,,,,,,,,,,,
,8533,ABC,08/01/2003,001,2023-12-13_14h15.55.153,OS3_Mult_verification,2022.2.4,Win32,59.88023952,,,,,,,,,,,,,,,,,,,,,,,,,,,,,,,,,,,right,1,0.5046,,,,,,physical,1,3,1 | 3,2,0.05,0.065,congruent,right,0,10,10,8,1,,,,,,,,,,,,,,,,,,,,,,,,,,,,,,,,,,,,,,,,,,,,,,,,,,,,,,,,,,,,,,,,,,,,,,,,,,,,,,,,,,,,,,,,,,,,,,,,,,,,,,,,,,,,,,,,,,,,,,
,8533,ABC,08/01/2003,001,2023-12-13_14h15.55.153,OS3_Mult_verification,2022.2.4,Win32,59.88023952,,,,,,,,,,,,,,,,,,,,,,,,,,,,,,,,,,,left,1,0.5122,,,,,,physical,8,3,8 | 3,5,0.065,0.05,congruent,left,0,11,11,22,1,,,,,,,,,,,,,,,,,,,,,,,,,,,,,,,,,,,,,,,,,,,,,,,,,,,,,,,,,,,,,,,,,,,,,,,,,,,,,,,,,,,,,,,,,,,,,,,,,,,,,,,,,,,,,,,,,,,,,,
,8533,ABC,08/01/2003,001,2023-12-13_14h15.55.153,OS3_Mult_verification,2022.2.4,Win32,59.88023952,,,,,,,,,,,,,,,,,,,,,,,,,,,,,,,,,,,left,1,0.4977,,,,,,physical,9,4,9 | 4,5,0.065,0.05,congruent,left,0,12,12,23,1,,,,,,,,,,,,,,,,,,,,,,,,,,,,,,,,,,,,,,,,,,,,,,,,,,,,,,,,,,,,,,,,,,,,,,,,,,,,,,,,,,,,,,,,,,,,,,,,,,,,,,,,,,,,,,,,,,,,,,
,8533,ABC,08/01/2003,001,2023-12-13_14h15.55.153,OS3_Mult_verification,2022.2.4,Win32,59.88023952,,,,,,,,,,,,,,,,,,,,,,,,,,,,,,,,,,,right,1,0.4311,,,,,,physical,7,6,7 | 6,1,0.05,0.065,incongruent,right,0,13,13,30,1,,,,,,,,,,,,,,,,,,,,,,,,,,,,,,,,,,,,,,,,,,,,,,,,,,,,,,,,,,,,,,,,,,,,,,,,,,,,,,,,,,,,,,,,,,,,,,,,,,,,,,,,,,,,,,,,,,,,,,
,8533,ABC,08/01/2003,001,2023-12-13_14h15.55.153,OS3_Mult_verification,2022.2.4,Win32,59.88023952,,,,,,,,,,,,,,,,,,,,,,,,,,,,,,,,,,,right,1,0.5294,,,,,,physical,9,9,9 | 9,0,0.05,0.065,neutral,right,0,14,14,63,1,,,,,,,,,,,,,,,,,,,,,,,,,,,,,,,,,,,,,,,,,,,,,,,,,,,,,,,,,,,,,,,,,,,,,,,,,,,,,,,,,,,,,,,,,,,,,,,,,,,,,,,,,,,,,,,,,,,,,,
,8533,ABC,08/01/2003,001,2023-12-13_14h15.55.153,OS3_Mult_verification,2022.2.4,Win32,59.88023952,,,,,,,,,,,,,,,,,,,,,,,,,,,,,,,,,,,right,1,0.606,,,,,,physical,9,8,9 | 8,1,0.05,0.065,incongruent,right,0,15,15,31,1,,,,,,,,,,,,,,,,,,,,,,,,,,,,,,,,,,,,,,,,,,,,,,,,,,,,,,,,,,,,,,,,,,,,,,,,,,,,,,,,,,,,,,,,,,,,,,,,,,,,,,,,,,,,,,,,,,,,,,
,8533,ABC,08/01/2003,001,2023-12-13_14h15.55.153,OS3_Mult_verification,2022.2.4,Win32,59.88023952,,,,,,,,,,,,,,,,,,,,,,,,,,,,,,,,,,,left,1,0.5162,,,,,,physical,6,6,6 | 6,0,0.065,0.05,neutral,left,0,16,16,68,1,,,,,,,,,,,,,,,,,,,,,,,,,,,,,,,,,,,,,,,,,,,,,,,,,,,,,,,,,,,,,,,,,,,,,,,,,,,,,,,,,,,,,,,,,,,,,,,,,,,,,,,,,,,,,,,,,,,,,,
,8533,ABC,08/01/2003,001,2023-12-13_14h15.55.153,OS3_Mult_verification,2022.2.4,Win32,59.88023952,,,,,,,,,,,,,,,,,,,,,,,,,,,,,,,,,,,left,1,0.5601,,,,,,physical,6,8,6 | 8,2,0.065,0.05,incongruent,left,0,17,17,34,1,,,,,,,,,,,,,,,,,,,,,,,,,,,,,,,,,,,,,,,,,,,,,,,,,,,,,,,,,,,,,,,,,,,,,,,,,,,,,,,,,,,,,,,,,,,,,,,,,,,,,,,,,,,,,,,,,,,,,,
,8533,ABC,08/01/2003,001,2023-12-13_14h15.55.153,OS3_Mult_verification,2022.2.4,Win32,59.88023952,,,,,,,,,,,,,,,,,,,,,,,,,,,,,,,,,,,right,1,0.4269,,,,,,physical,2,7,2 | 7,5,0.05,0.065,congruent,right,0,18,18,17,1,,,,,,,,,,,,,,,,,,,,,,,,,,,,,,,,,,,,,,,,,,,,,,,,,,,,,,,,,,,,,,,,,,,,,,,,,,,,,,,,,,,,,,,,,,,,,,,,,,,,,,,,,,,,,,,,,,,,,,
,8533,ABC,08/01/2003,001,2023-12-13_14h15.55.153,OS3_Mult_verification,2022.2.4,Win32,59.88023952,,,,,,,,,,,,,,,,,,,,,,,,,,,,,,,,,,,right,1,0.49,,,,,,physical,9,9,9 | 9,0,0.05,0.065,neutral,right,0,19,19,71,1,,,,,,,,,,,,,,,,,,,,,,,,,,,,,,,,,,,,,,,,,,,,,,,,,,,,,,,,,,,,,,,,,,,,,,,,,,,,,,,,,,,,,,,,,,,,,,,,,,,,,,,,,,,,,,,,,,,,,,
,8533,ABC,08/01/2003,001,2023-12-13_14h15.55.153,OS3_Mult_verification,2022.2.4,Win32,59.88023952,,,,,,,,,,,,,,,,,,,,,,,,,,,,,,,,,,,right,1,0.5404,,,,,,physical,7,9,7 | 9,2,0.05,0.065,congruent,right,0,20,20,11,1,,,,,,,,,,,,,,,,,,,,,,,,,,,,,,,,,,,,,,,,,,,,,,,,,,,,,,,,,,,,,,,,,,,,,,,,,,,,,,,,,,,,,,,,,,,,,,,,,,,,,,,,,,,,,,,,,,,,,,
,8533,ABC,08/01/2003,001,2023-12-13_14h15.55.153,OS3_Mult_verification,2022.2.4,Win32,59.88023952,,,,,,,,,,,,,,,,,,,,,,,,,,,,,,,,,,,left,1,0.4999,,,,,,physical,7,9,7 | 9,2,0.065,0.05,incongruent,left,0,21,21,35,1,,,,,,,,,,,,,,,,,,,,,,,,,,,,,,,,,,,,,,,,,,,,,,,,,,,,,,,,,,,,,,,,,,,,,,,,,,,,,,,,,,,,,,,,,,,,,,,,,,,,,,,,,,,,,,,,,,,,,,
,8533,ABC,08/01/2003,001,2023-12-13_14h15.55.153,OS3_Mult_verification,2022.2.4,Win32,59.88023952,,,,,,,,,,,,,,,,,,,,,,,,,,,,,,,,,,,left,1,0.5056,,,,,,physical,8,8,8 | 8,0,0.065,0.05,neutral,left,0,22,22,51,1,,,,,,,,,,,,,,,,,,,,,,,,,,,,,,,,,,,,,,,,,,,,,,,,,,,,,,,,,,,,,,,,,,,,,,,,,,,,,,,,,,,,,,,,,,,,,,,,,,,,,,,,,,,,,,,,,,,,,,
,8533,ABC,08/01/2003,001,2023-12-13_14h15.55.153,OS3_Mult_verification,2022.2.4,Win32,59.88023952,,,,,,,,,,,,,,,,,,,,,,,,,,,,,,,,,,,right,1,0.457,,,,,,physical,7,7,7 | 7,0,0.05,0.065,neutral,right,0,23,23,59,1,,,,,,,,,,,,,,,,,,,,,,,,,,,,,,,,,,,,,,,,,,,,,,,,,,,,,,,,,,,,,,,,,,,,,,,,,,,,,,,,,,,,,,,,,,,,,,,,,,,,,,,,,,,,,,,,,,,,,,
,8533,ABC,08/01/2003,001,2023-12-13_14h15.55.153,OS3_Mult_verification,2022.2.4,Win32,59.88023952,,,,,,,,,,,,,,,,,,,,,,,,,,,,,,,,,,,left,1,0.4699,,,,,,physical,7,2,7 | 2,5,0.065,0.05,congruent,left,0,24,24,21,1,,,,,,,,,,,,,,,,,,,,,,,,,,,,,,,,,,,,,,,,,,,,,,,,,,,,,,,,,,,,,,,,,,,,,,,,,,,,,,,,,,,,,,,,,,,,,,,,,,,,,,,,,,,,,,,,,,,,,,
,8533,ABC,08/01/2003,001,2023-12-13_14h15.55.153,OS3_Mult_verification,2022.2.4,Win32,59.88023952,,,,,,,,,,,,,,,,,,,,,,,,,,,,,,,,,,,left,1,0.4949,,,,,,physical,9,9,9 | 9,0,0.065,0.05,neutral,left,0,25,25,55,1,,,,,,,,,,,,,,,,,,,,,,,,,,,,,,,,,,,,,,,,,,,,,,,,,,,,,,,,,,,,,,,,,,,,,,,,,,,,,,,,,,,,,,,,,,,,,,,,,,,,,,,,,,,,,,,,,,,,,,
,8533,ABC,08/01/2003,001,2023-12-13_14h15.55.153,OS3_Mult_verification,2022.2.4,Win32,59.88023952,,,,,,,,,,,,,,,,,,,,,,,,,,,,,,,,,,,right,1,0.4381,,,,,,physical,2,2,2 | 2,0,0.05,0.065,neutral,right,0,26,26,65,1,,,,,,,,,,,,,,,,,,,,,,,,,,,,,,,,,,,,,,,,,,,,,,,,,,,,,,,,,,,,,,,,,,,,,,,,,,,,,,,,,,,,,,,,,,,,,,,,,,,,,,,,,,,,,,,,,,,,,,
,8533,ABC,08/01/2003,001,2023-12-13_14h15.55.153,OS3_Mult_verification,2022.2.4,Win32,59.88023952,,,,,,,,,,,,,,,,,,,,,,,,,,,,,,,,,,,left,1,0.3814,,,,,,physical,8,6,8 | 6,2,0.065,0.05,congruent,left,0,27,27,14,1,,,,,,,,,,,,,,,,,,,,,,,,,,,,,,,,,,,,,,,,,,,,,,,,,,,,,,,,,,,,,,,,,,,,,,,,,,,,,,,,,,,,,,,,,,,,,,,,,,,,,,,,,,,,,,,,,,,,,,
,8533,ABC,08/01/2003,001,2023-12-13_14h15.55.153,OS3_Mult_verification,2022.2.4,Win32,59.88023952,,,,,,,,,,,,,,,,,,,,,,,,,,,,,,,,,,,left,1,0.5262,,,,,,physical,7,6,7 | 6,1,0.065,0.05,congruent,left,0,28,28,6,1,,,,,,,,,,,,,,,,,,,,,,,,,,,,,,,,,,,,,,,,,,,,,,,,,,,,,,,,,,,,,,,,,,,,,,,,,,,,,,,,,,,,,,,,,,,,,,,,,,,,,,,,,,,,,,,,,,,,,,
,8533,ABC,08/01/2003,001,2023-12-13_14h15.55.153,OS3_Mult_verification,2022.2.4,Win32,59.88023952,,,,,,,,,,,,,,,,,,,,,,,,,,,,,,,,,,,right,1,0.5538,,,,,,physical,6,1,6 | 1,5,0.05,0.065,incongruent,right,0,29,29,44,1,,,,,,,,,,,,,,,,,,,,,,,,,,,,,,,,,,,,,,,,,,,,,,,,,,,,,,,,,,,,,,,,,,,,,,,,,,,,,,,,,,,,,,,,,,,,,,,,,,,,,,,,,,,,,,,,,,,,,,
,8533,ABC,08/01/2003,001,2023-12-13_14h15.55.153,OS3_Mult_verification,2022.2.4,Win32,59.88023952,,,,,,,,,,,,,,,,,,,,,,,,,,,,,,,,,,,right,1,0.498,,,,,,physical,3,8,3 | 8,5,0.05,0.065,congruent,right,0,30,30,18,1,,,,,,,,,,,,,,,,,,,,,,,,,,,,,,,,,,,,,,,,,,,,,,,,,,,,,,,,,,,,,,,,,,,,,,,,,,,,,,,,,,,,,,,,,,,,,,,,,,,,,,,,,,,,,,,,,,,,,,
,8533,ABC,08/01/2003,001,2023-12-13_14h15.55.153,OS3_Mult_verification,2022.2.4,Win32,59.88023952,,,,,,,,,,,,,,,,,,,,,,,,,,,,,,,,,,,left,1,0.4571,,,,,,physical,8,8,8 | 8,0,0.065,0.05,neutral,left,0,31,31,70,1,,,,,,,,,,,,,,,,,,,,,,,,,,,,,,,,,,,,,,,,,,,,,,,,,,,,,,,,,,,,,,,,,,,,,,,,,,,,,,,,,,,,,,,,,,,,,,,,,,,,,,,,,,,,,,,,,,,,,,
,8533,ABC,08/01/2003,001,2023-12-13_14h15.55.153,OS3_Mult_verification,2022.2.4,Win32,59.88023952,,,,,,,,,,,,,,,,,,,,,,,,,,,,,,,,,,,left,1,0.5353,,,,,,physical,3,3,3 | 3,0,0.065,0.05,neutral,left,0,32,32,49,1,,,,,,,,,,,,,,,,,,,,,,,,,,,,,,,,,,,,,,,,,,,,,,,,,,,,,,,,,,,,,,,,,,,,,,,,,,,,,,,,,,,,,,,,,,,,,,,,,,,,,,,,,,,,,,,,,,,,,,
,8533,ABC,08/01/2003,001,2023-12-13_14h15.55.153,OS3_Mult_verification,2022.2.4,Win32,59.88023952,,,,,,,,,,,,,,,,,,,,,,,,,,,,,,,,,,,right,1,0.4608,,,,,,physical,2,1,2 | 1,1,0.05,0.065,incongruent,right,0,33,33,28,1,,,,,,,,,,,,,,,,,,,,,,,,,,,,,,,,,,,,,,,,,,,,,,,,,,,,,,,,,,,,,,,,,,,,,,,,,,,,,,,,,,,,,,,,,,,,,,,,,,,,,,,,,,,,,,,,,,,,,,
,8533,ABC,08/01/2003,001,2023-12-13_14h15.55.153,OS3_Mult_verification,2022.2.4,Win32,59.88023952,,,,,,,,,,,,,,,,,,,,,,,,,,,,,,,,,,,left,1,0.5651,,,,,,physical,2,1,2 | 1,1,0.065,0.05,congruent,left,0,34,34,4,1,,,,,,,,,,,,,,,,,,,,,,,,,,,,,,,,,,,,,,,,,,,,,,,,,,,,,,,,,,,,,,,,,,,,,,,,,,,,,,,,,,,,,,,,,,,,,,,,,,,,,,,,,,,,,,,,,,,,,,
,8533,ABC,08/01/2003,001,2023-12-13_14h15.55.153,OS3_Mult_verification,2022.2.4,Win32,59.88023952,,,,,,,,,,,,,,,,,,,,,,,,,,,,,,,,,,,right,1,0.4404,,,,,,physical,4,9,4 | 9,5,0.05,0.065,congruent,right,0,35,35,19,1,,,,,,,,,,,,,,,,,,,,,,,,,,,,,,,,,,,,,,,,,,,,,,,,,,,,,,,,,,,,,,,,,,,,,,,,,,,,,,,,,,,,,,,,,,,,,,,,,,,,,,,,,,,,,,,,,,,,,,
,8533,ABC,08/01/2003,001,2023-12-13_14h15.55.153,OS3_Mult_verification,2022.2.4,Win32,59.88023952,,,,,,,,,,,,,,,,,,,,,,,,,,,,,,,,,,,left,1,0.5133,,,,,,physical,4,3,4 | 3,1,0.065,0.05,congruent,left,0,36,36,5,1,,,,,,,,,,,,,,,,,,,,,,,,,,,,,,,,,,,,,,,,,,,,,,,,,,,,,,,,,,,,,,,,,,,,,,,,,,,,,,,,,,,,,,,,,,,,,,,,,,,,,,,,,,,,,,,,,,,,,,
,8533,ABC,08/01/2003,001,2023-12-13_14h15.55.153,OS3_Mult_verification,2022.2.4,Win32,59.88023952,,,,,,,,,,,,,,,,,,,,,,,,,,,,,,,,,,,right,1,0.4986,,,,,,physical,2,2,2 | 2,0,0.05,0.065,neutral,right,0,37,37,57,1,,,,,,,,,,,,,,,,,,,,,,,,,,,,,,,,,,,,,,,,,,,,,,,,,,,,,,,,,,,,,,,,,,,,,,,,,,,,,,,,,,,,,,,,,,,,,,,,,,,,,,,,,,,,,,,,,,,,,,
,8533,ABC,08/01/2003,001,2023-12-13_14h15.55.153,OS3_Mult_verification,2022.2.4,Win32,59.88023952,,,,,,,,,,,,,,,,,,,,,,,,,,,,,,,,,,,left,1,0.4976,,,,,,physical,1,6,1 | 6,5,0.065,0.05,incongruent,left,0,38,38,40,1,,,,,,,,,,,,,,,,,,,,,,,,,,,,,,,,,,,,,,,,,,,,,,,,,,,,,,,,,,,,,,,,,,,,,,,,,,,,,,,,,,,,,,,,,,,,,,,,,,,,,,,,,,,,,,,,,,,,,,
,8533,ABC,08/01/2003,001,2023-12-13_14h15.55.153,OS3_Mult_verification,2022.2.4,Win32,59.88023952,,,,,,,,,,,,,,,,,,,,,,,,,,,,,,,,,,,right,1,0.4839,,,,,,physical,4,4,4 | 4,0,0.05,0.065,neutral,right,0,39,39,67,1,,,,,,,,,,,,,,,,,,,,,,,,,,,,,,,,,,,,,,,,,,,,,,,,,,,,,,,,,,,,,,,,,,,,,,,,,,,,,,,,,,,,,,,,,,,,,,,,,,,,,,,,,,,,,,,,,,,,,,
,8533,ABC,08/01/2003,001,2023-12-13_14h15.55.153,OS3_Mult_verification,2022.2.4,Win32,59.88023952,,,,,,,,,,,,,,,,,,,,,,,,,,,,,,,,,,,right,1,0.563,,,,,,physical,7,2,7 | 2,5,0.05,0.065,incongruent,right,0,40,40,45,1,,,,,,,,,,,,,,,,,,,,,,,,,,,,,,,,,,,,,,,,,,,,,,,,,,,,,,,,,,,,,,,,,,,,,,,,,,,,,,,,,,,,,,,,,,,,,,,,,,,,,,,,,,,,,,,,,,,,,,
,8533,ABC,08/01/2003,001,2023-12-13_14h15.55.153,OS3_Mult_verification,2022.2.4,Win32,59.88023952,,,,,,,,,,,,,,,,,,,,,,,,,,,,,,,,,,,left,1,0.4018,,,,,,physical,6,1,6 | 1,5,0.065,0.05,congruent,left,0,41,41,20,1,,,,,,,,,,,,,,,,,,,,,,,,,,,,,,,,,,,,,,,,,,,,,,,,,,,,,,,,,,,,,,,,,,,,,,,,,,,,,,,,,,,,,,,,,,,,,,,,,,,,,,,,,,,,,,,,,,,,,,
,8533,ABC,08/01/2003,001,2023-12-13_14h15.55.153,OS3_Mult_verification,2022.2.4,Win32,59.88023952,,,,,,,,,,,,,,,,,,,,,,,,,,,,,,,,,,,right,1,0.71,,,,,,physical,9,4,9 | 4,5,0.05,0.065,incongruent,right,0,42,42,47,1,,,,,,,,,,,,,,,,,,,,,,,,,,,,,,,,,,,,,,,,,,,,,,,,,,,,,,,,,,,,,,,,,,,,,,,,,,,,,,,,,,,,,,,,,,,,,,,,,,,,,,,,,,,,,,,,,,,,,,
,8533,ABC,08/01/2003,001,2023-12-13_14h15.55.153,OS3_Mult_verification,2022.2.4,Win32,59.88023952,,,,,,,,,,,,,,,,,,,,,,,,,,,,,,,,,,,right,1,0.7017,,,,,,physical,4,3,4 | 3,1,0.05,0.065,incongruent,right,0,43,43,29,1,,,,,,,,,,,,,,,,,,,,,,,,,,,,,,,,,,,,,,,,,,,,,,,,,,,,,,,,,,,,,,,,,,,,,,,,,,,,,,,,,,,,,,,,,,,,,,,,,,,,,,,,,,,,,,,,,,,,,,
,8533,ABC,08/01/2003,001,2023-12-13_14h15.55.153,OS3_Mult_verification,2022.2.4,Win32,59.88023952,,,,,,,,,,,,,,,,,,,,,,,,,,,,,,,,,,,left,1,0.4873,,,,,,physical,3,3,3 | 3,0,0.065,0.05,neutral,left,0,44,44,66,1,,,,,,,,,,,,,,,,,,,,,,,,,,,,,,,,,,,,,,,,,,,,,,,,,,,,,,,,,,,,,,,,,,,,,,,,,,,,,,,,,,,,,,,,,,,,,,,,,,,,,,,,,,,,,,,,,,,,,,
,8533,ABC,08/01/2003,001,2023-12-13_14h15.55.153,OS3_Mult_verification,2022.2.4,Win32,59.88023952,,,,,,,,,,,,,,,,,,,,,,,,,,,,,,,,,,,right,1,0.5443,,,,,,physical,8,6,8 | 6,2,0.05,0.065,incongruent,right,0,45,45,38,1,,,,,,,,,,,,,,,,,,,,,,,,,,,,,,,,,,,,,,,,,,,,,,,,,,,,,,,,,,,,,,,,,,,,,,,,,,,,,,,,,,,,,,,,,,,,,,,,,,,,,,,,,,,,,,,,,,,,,,
,8533,ABC,08/01/2003,001,2023-12-13_14h15.55.153,OS3_Mult_verification,2022.2.4,Win32,59.88023952,,,,,,,,,,,,,,,,,,,,,,,,,,,,,,,,,,,right,1,0.518,,,,,,physical,3,1,3 | 1,2,0.05,0.065,incongruent,right,0,46,46,36,1,,,,,,,,,,,,,,,,,,,,,,,,,,,,,,,,,,,,,,,,,,,,,,,,,,,,,,,,,,,,,,,,,,,,,,,,,,,,,,,,,,,,,,,,,,,,,,,,,,,,,,,,,,,,,,,,,,,,,,
,8533,ABC,08/01/2003,001,2023-12-13_14h15.55.153,OS3_Mult_verification,2022.2.4,Win32,59.88023952,,,,,,,,,,,,,,,,,,,,,,,,,,,,,,,,,,,right,1,0.494,,,,,,physical,8,9,8 | 9,1,0.05,0.065,congruent,right,0,47,47,3,1,,,,,,,,,,,,,,,,,,,,,,,,,,,,,,,,,,,,,,,,,,,,,,,,,,,,,,,,,,,,,,,,,,,,,,,,,,,,,,,,,,,,,,,,,,,,,,,,,,,,,,,,,,,,,,,,,,,,,,
,8533,ABC,08/01/2003,001,2023-12-13_14h15.55.153,OS3_Mult_verification,2022.2.4,Win32,59.88023952,,,,,,,,,,,,,,,,,,,,,,,,,,,,,,,,,,,left,1,0.4972,,,,,,physical,4,4,4 | 4,0,0.065,0.05,neutral,left,0,48,48,53,1,,,,,,,,,,,,,,,,,,,,,,,,,,,,,,,,,,,,,,,,,,,,,,,,,,,,,,,,,,,,,,,,,,,,,,,,,,,,,,,,,,,,,,,,,,,,,,,,,,,,,,,,,,,,,,,,,,,,,,
,8533,ABC,08/01/2003,001,2023-12-13_14h15.55.153,OS3_Mult_verification,2022.2.4,Win32,59.88023952,,,,,,,,,,,,,,,,,,,,,,,,,,,,,,,,,,,right,1,0.5155,,,,,,physical,7,7,7 | 7,0,0.05,0.065,neutral,right,0,49,49,69,1,,,,,,,,,,,,,,,,,,,,,,,,,,,,,,,,,,,,,,,,,,,,,,,,,,,,,,,,,,,,,,,,,,,,,,,,,,,,,,,,,,,,,,,,,,,,,,,,,,,,,,,,,,,,,,,,,,,,,,
,8533,ABC,08/01/2003,001,2023-12-13_14h15.55.153,OS3_Mult_verification,2022.2.4,Win32,59.88023952,,,,,,,,,,,,,,,,,,,,,,,,,,,,,,,,,,,left,1,0.5188,,,,,,physical,3,8,3 | 8,5,0.065,0.05,incongruent,left,0,50,50,42,1,,,,,,,,,,,,,,,,,,,,,,,,,,,,,,,,,,,,,,,,,,,,,,,,,,,,,,,,,,,,,,,,,,,,,,,,,,,,,,,,,,,,,,,,,,,,,,,,,,,,,,,,,,,,,,,,,,,,,,
,8533,ABC,08/01/2003,001,2023-12-13_14h15.55.153,OS3_Mult_verification,2022.2.4,Win32,59.88023952,,,,,,,,,,,,,,,,,,,,,,,,,,,,,,,,,,,left,1,0.6028,,,,,,physical,2,2,2 | 2,0,0.065,0.05,neutral,left,0,51,51,52,1,,,,,,,,,,,,,,,,,,,,,,,,,,,,,,,,,,,,,,,,,,,,,,,,,,,,,,,,,,,,,,,,,,,,,,,,,,,,,,,,,,,,,,,,,,,,,,,,,,,,,,,,,,,,,,,,,,,,,,
,8533,ABC,08/01/2003,001,2023-12-13_14h15.55.153,OS3_Mult_verification,2022.2.4,Win32,59.88023952,,,,,,,,,,,,,,,,,,,,,,,,,,,,,,,,,,,right,1,0.4813,,,,,,physical,3,3,3 | 3,0,0.05,0.065,neutral,right,0,52,52,60,1,,,,,,,,,,,,,,,,,,,,,,,,,,,,,,,,,,,,,,,,,,,,,,,,,,,,,,,,,,,,,,,,,,,,,,,,,,,,,,,,,,,,,,,,,,,,,,,,,,,,,,,,,,,,,,,,,,,,,,
,8533,ABC,08/01/2003,001,2023-12-13_14h15.55.153,OS3_Mult_verification,2022.2.4,Win32,59.88023952,,,,,,,,,,,,,,,,,,,,,,,,,,,,,,,,,,,right,1,0.4788,,,,,,physical,1,1,1 | 1,0,0.05,0.065,neutral,right,0,53,53,56,1,,,,,,,,,,,,,,,,,,,,,,,,,,,,,,,,,,,,,,,,,,,,,,,,,,,,,,,,,,,,,,,,,,,,,,,,,,,,,,,,,,,,,,,,,,,,,,,,,,,,,,,,,,,,,,,,,,,,,,
,8533,ABC,08/01/2003,001,2023-12-13_14h15.55.153,OS3_Mult_verification,2022.2.4,Win32,59.88023952,,,,,,,,,,,,,,,,,,,,,,,,,,,,,,,,,,,right,1,0.4668,,,,,,physical,4,4,4 | 4,0,0.05,0.065,neutral,right,0,54,54,61,1,,,,,,,,,,,,,,,,,,,,,,,,,,,,,,,,,,,,,,,,,,,,,,,,,,,,,,,,,,,,,,,,,,,,,,,,,,,,,,,,,,,,,,,,,,,,,,,,,,,,,,,,,,,,,,,,,,,,,,
,8533,ABC,08/01/2003,001,2023-12-13_14h15.55.153,OS3_Mult_verification,2022.2.4,Win32,59.88023952,,,,,,,,,,,,,,,,,,,,,,,,,,,,,,,,,,,left,1,0.5345,,,,,,physical,4,9,4 | 9,5,0.065,0.05,incongruent,left,0,55,55,43,1,,,,,,,,,,,,,,,,,,,,,,,,,,,,,,,,,,,,,,,,,,,,,,,,,,,,,,,,,,,,,,,,,,,,,,,,,,,,,,,,,,,,,,,,,,,,,,,,,,,,,,,,,,,,,,,,,,,,,,
,8533,ABC,08/01/2003,001,2023-12-13_14h15.55.153,OS3_Mult_verification,2022.2.4,Win32,59.88023952,,,,,,,,,,,,,,,,,,,,,,,,,,,,,,,,,,,left,1,0.5975,,,,,,physical,2,7,2 | 7,5,0.065,0.05,incongruent,left,0,56,56,41,1,,,,,,,,,,,,,,,,,,,,,,,,,,,,,,,,,,,,,,,,,,,,,,,,,,,,,,,,,,,,,,,,,,,,,,,,,,,,,,,,,,,,,,,,,,,,,,,,,,,,,,,,,,,,,,,,,,,,,,
,8533,ABC,08/01/2003,001,2023-12-13_14h15.55.153,OS3_Mult_verification,2022.2.4,Win32,59.88023952,,,,,,,,,,,,,,,,,,,,,,,,,,,,,,,,,,,left,1,0.5,,,,,,physical,1,3,1 | 3,2,0.065,0.05,incongruent,left,0,57,57,32,1,,,,,,,,,,,,,,,,,,,,,,,,,,,,,,,,,,,,,,,,,,,,,,,,,,,,,,,,,,,,,,,,,,,,,,,,,,,,,,,,,,,,,,,,,,,,,,,,,,,,,,,,,,,,,,,,,,,,,,
,8533,ABC,08/01/2003,001,2023-12-13_14h15.55.153,OS3_Mult_verification,2022.2.4,Win32,59.88023952,,,,,,,,,,,,,,,,,,,,,,,,,,,,,,,,,,,right,1,0.4324,,,,,,physical,1,6,1 | 6,5,0.05,0.065,congruent,right,0,58,58,16,1,,,,,,,,,,,,,,,,,,,,,,,,,,,,,,,,,,,,,,,,,,,,,,,,,,,,,,,,,,,,,,,,,,,,,,,,,,,,,,,,,,,,,,,,,,,,,,,,,,,,,,,,,,,,,,,,,,,,,,
,8533,ABC,08/01/2003,001,2023-12-13_14h15.55.153,OS3_Mult_verification,2022.2.4,Win32,59.88023952,,,,,,,,,,,,,,,,,,,,,,,,,,,,,,,,,,,right,1,0.4563,,,,,,physical,8,3,8 | 3,5,0.05,0.065,incongruent,right,0,59,59,46,1,,,,,,,,,,,,,,,,,,,,,,,,,,,,,,,,,,,,,,,,,,,,,,,,,,,,,,,,,,,,,,,,,,,,,,,,,,,,,,,,,,,,,,,,,,,,,,,,,,,,,,,,,,,,,,,,,,,,,,
,8533,ABC,08/01/2003,001,2023-12-13_14h15.55.153,OS3_Mult_verification,2022.2.4,Win32,59.88023952,,,,,,,,,,,,,,,,,,,,,,,,,,,,,,,,,,,right,1,0.5496,,,,,,physical,9,7,9 | 7,2,0.05,0.065,incongruent,right,0,60,60,39,1,,,,,,,,,,,,,,,,,,,,,,,,,,,,,,,,,,,,,,,,,,,,,,,,,,,,,,,,,,,,,,,,,,,,,,,,,,,,,,,,,,,,,,,,,,,,,,,,,,,,,,,,,,,,,,,,,,,,,,
,8533,ABC,08/01/2003,001,2023-12-13_14h15.55.153,OS3_Mult_verification,2022.2.4,Win32,59.88023952,,,,,,,,,,,,,,,,,,,,,,,,,,,,,,,,,,,left,1,0.5194,,,,,,physical,9,7,9 | 7,2,0.065,0.05,congruent,left,0,61,61,15,1,,,,,,,,,,,,,,,,,,,,,,,,,,,,,,,,,,,,,,,,,,,,,,,,,,,,,,,,,,,,,,,,,,,,,,,,,,,,,,,,,,,,,,,,,,,,,,,,,,,,,,,,,,,,,,,,,,,,,,
,8533,ABC,08/01/2003,001,2023-12-13_14h15.55.153,OS3_Mult_verification,2022.2.4,Win32,59.88023952,,,,,,,,,,,,,,,,,,,,,,,,,,,,,,,,,,,left,1,0.5117,,,,,,physical,7,7,7 | 7,0,0.065,0.05,neutral,left,0,62,62,54,1,,,,,,,,,,,,,,,,,,,,,,,,,,,,,,,,,,,,,,,,,,,,,,,,,,,,,,,,,,,,,,,,,,,,,,,,,,,,,,,,,,,,,,,,,,,,,,,,,,,,,,,,,,,,,,,,,,,,,,
,8533,ABC,08/01/2003,001,2023-12-13_14h15.55.153,OS3_Mult_verification,2022.2.4,Win32,59.88023952,,,,,,,,,,,,,,,,,,,,,,,,,,,,,,,,,,,left,1,0.5553,,,,,,physical,3,4,3 | 4,1,0.065,0.05,incongruent,left,0,63,63,25,1,,,,,,,,,,,,,,,,,,,,,,,,,,,,,,,,,,,,,,,,,,,,,,,,,,,,,,,,,,,,,,,,,,,,,,,,,,,,,,,,,,,,,,,,,,,,,,,,,,,,,,,,,,,,,,,,,,,,,,
,8533,ABC,08/01/2003,001,2023-12-13_14h15.55.153,OS3_Mult_verification,2022.2.4,Win32,59.88023952,,,,,,,,,,,,,,,,,,,,,,,,,,,,,,,,,,,left,1,0.4854,,,,,,physical,1,1,1 | 1,0,0.065,0.05,neutral,left,0,64,64,48,1,,,,,,,,,,,,,,,,,,,,,,,,,,,,,,,,,,,,,,,,,,,,,,,,,,,,,,,,,,,,,,,,,,,,,,,,,,,,,,,,,,,,,,,,,,,,,,,,,,,,,,,,,,,,,,,,,,,,,,
,8533,ABC,08/01/2003,001,2023-12-13_14h15.55.153,OS3_Mult_verification,2022.2.4,Win32,59.88023952,,,,,,,,,,,,,,,,,,,,,,,,,,,,,,,,,,,right,1,0.4721,,,,,,physical,1,2,1 | 2,1,0.05,0.065,congruent,right,0,65,65,0,1,,,,,,,,,,,,,,,,,,,,,,,,,,,,,,,,,,,,,,,,,,,,,,,,,,,,,,,,,,,,,,,,,,,,,,,,,,,,,,,,,,,,,,,,,,,,,,,,,,,,,,,,,,,,,,,,,,,,,,
,8533,ABC,08/01/2003,001,2023-12-13_14h15.55.153,OS3_Mult_verification,2022.2.4,Win32,59.88023952,,,,,,,,,,,,,,,,,,,,,,,,,,,,,,,,,,,left,1,0.4971,,,,,,physical,9,8,9 | 8,1,0.065,0.05,congruent,left,0,66,66,7,1,,,,,,,,,,,,,,,,,,,,,,,,,,,,,,,,,,,,,,,,,,,,,,,,,,,,,,,,,,,,,,,,,,,,,,,,,,,,,,,,,,,,,,,,,,,,,,,,,,,,,,,,,,,,,,,,,,,,,,
,8533,ABC,08/01/2003,001,2023-12-13_14h15.55.153,OS3_Mult_verification,2022.2.4,Win32,59.88023952,,,,,,,,,,,,,,,,,,,,,,,,,,,,,,,,,,,left,1,0.4979,,,,,,physical,1,2,1 | 2,1,0.065,0.05,incongruent,left,0,67,67,24,1,,,,,,,,,,,,,,,,,,,,,,,,,,,,,,,,,,,,,,,,,,,,,,,,,,,,,,,,,,,,,,,,,,,,,,,,,,,,,,,,,,,,,,,,,,,,,,,,,,,,,,,,,,,,,,,,,,,,,,
,8533,ABC,08/01/2003,001,2023-12-13_14h15.55.153,OS3_Mult_verification,2022.2.4,Win32,59.88023952,,,,,,,,,,,,,,,,,,,,,,,,,,,,,,,,,,,left,1,0.5823,,,,,,physical,2,4,2 | 4,2,0.065,0.05,incongruent,left,0,68,68,33,1,,,,,,,,,,,,,,,,,,,,,,,,,,,,,,,,,,,,,,,,,,,,,,,,,,,,,,,,,,,,,,,,,,,,,,,,,,,,,,,,,,,,,,,,,,,,,,,,,,,,,,,,,,,,,,,,,,,,,,
,8533,ABC,08/01/2003,001,2023-12-13_14h15.55.153,OS3_Mult_verification,2022.2.4,Win32,59.88023952,,,,,,,,,,,,,,,,,,,,,,,,,,,,,,,,,,,right,1,0.4288,,,,,,physical,6,7,6 | 7,1,0.05,0.065,congruent,right,0,69,69,2,1,,,,,,,,,,,,,,,,,,,,,,,,,,,,,,,,,,,,,,,,,,,,,,,,,,,,,,,,,,,,,,,,,,,,,,,,,,,,,,,,,,,,,,,,,,,,,,,,,,,,,,,,,,,,,,,,,,,,,,
,8533,ABC,08/01/2003,001,2023-12-13_14h15.55.153,OS3_Mult_verification,2022.2.4,Win32,59.88023952,,,,,,,,,,,,,,,,,,,,,,,,,,,,,,,,,,,right,1,0.5347,,,,,,physical,6,8,6 | 8,2,0.05,0.065,congruent,right,0,70,70,10,1,,,,,,,,,,,,,,,,,,,,,,,,,,,,,,,,,,,,,,,,,,,,,,,,,,,,,,,,,,,,,,,,,,,,,,,,,,,,,,,,,,,,,,,,,,,,,,,,,,,,,,,,,,,,,,,,,,,,,,
,8533,ABC,08/01/2003,001,2023-12-13_14h15.55.153,OS3_Mult_verification,2022.2.4,Win32,59.88023952,,,,,,,,,,,,,,,,,,,,,,,,,,,,,,,,,,,left,1,0.4412,,,,,,physical,6,7,6 | 7,1,0.065,0.05,incongruent,left,0,71,71,26,1,,,,,,,,,,,,,,,,,,,,,,,,,,,,,,,,,,,,,,,,,,,,,,,,,,,,,,,,,,,,,,,,,,,,,,,,,,,,,,,,,,,,,,,,,,,,,,,,,,,,,,,,,,,,,,,,,,,,,,
,8533,ABC,08/01/2003,001,2023-12-13_14h15.55.153,OS3_Mult_verification,2022.2.4,Win32,59.88023952,,,,,,,,,,,,,,,,,,,,,,,,,,,,,,,,,,,,,,,,,,,,,,,,,,,,,,,,,0,0,0,1,1,stroop_stim/physical.xlsx,stroop_stim/prac_physical.xlsx,PHYSICALLY larger (larger font size).,images/physicallyLarger.png,,,,,,,,,,,,,,,,,,,,,,,,,,,,,,,,,,,,,,,,,,,,,,,,,,,,,,,,,,,,,,,,,,,,,,,,,,,,,,,,,,,,,,,,,,,,,,,,,,,,,,,,,,,,,
,8533,ABC,08/01/2003,001,2023-12-13_14h15.55.153,OS3_Mult_verification,2022.2.4,Win32,59.88023952,,,,,,,,,,,,,,,,space,1.6678,,,,,,,,,,,,,,,,,,right,1,0.728,0,0,0,1,1,practice,7,8,7 | 8,1,0.065,0.05,incongruent,right,,,,,,,,,,,,,,,,,,,,,,,,,,,,,,,,,,,,,,,,,,,,,,,,,,,,,,,,,,,,,,,,,,,,,,,,,,,,,,,,,,,,,,,,,,,,,,,,,,,,,,,,,,,,,,,,,,,,,,,,,,,
,8533,ABC,08/01/2003,001,2023-12-13_14h15.55.153,OS3_Mult_verification,2022.2.4,Win32,59.88023952,,,,,,,,,,,,,,,,,,,,,,,,,,,,,,,,,,,right,1,0.4673,0,1,1,2,1,practice,4,9,4 | 9,5,0.06,0.06,neutral,right,,,,,,,,,,,,,,,,,,,,,,,,,,,,,,,,,,,,,,,,,,,,,,,,,,,,,,,,,,,,,,,,,,,,,,,,,,,,,,,,,,,,,,,,,,,,,,,,,,,,,,,,,,,,,,,,,,,,,,,,,,,
,8533,ABC,08/01/2003,001,2023-12-13_14h15.55.153,OS3_Mult_verification,2022.2.4,Win32,59.88023952,,,,,,,,,,,,,,,,,,,,,,,,,,,,,,,,,,,right,1,0.4406,0,2,2,0,1,practice,1,2,1 | 2,1,0.05,0.065,congruent,right,,,,,,,,,,,,,,,,,,,,,,,,,,,,,,,,,,,,,,,,,,,,,,,,,,,,,,,,,,,,,,,,,,,,,,,,,,,,,,,,,,,,,,,,,,,,,,,,,,,,,,,,,,,,,,,,,,,,,,,,,,,
,8533,ABC,08/01/2003,001,2023-12-13_14h15.55.153,OS3_Mult_verification,2022.2.4,Win32,59.88023952,,,,,,,,,,,,,,,,,,,,,,,,,,,,,,,,,,,right,1,0.4299,,,,,,magnitude,3,8,3 | 8,5,0.05,0.065,congruent,right,0,0,0,18,1,,,,,,,,,,,,,,,,,,,,,,,,,,,,,,,,,,,,,,,,,,,,,,,,,,,,,,,,,,,,,,,,,,,,,,,,,,,,,,,,,,,,,,,,,,,,,,,,,,,,,,,,,,,,,,,,,,,,,,
,8533,ABC,08/01/2003,001,2023-12-13_14h15.55.153,OS3_Mult_verification,2022.2.4,Win32,59.88023952,,,,,,,,,,,,,,,,,,,,,,,,,,,,,,,,,,,right,1,0.525,,,,,,magnitude,3,8,3 | 8,5,0.06,0.06,neutral,right,0,1,1,66,1,,,,,,,,,,,,,,,,,,,,,,,,,,,,,,,,,,,,,,,,,,,,,,,,,,,,,,,,,,,,,,,,,,,,,,,,,,,,,,,,,,,,,,,,,,,,,,,,,,,,,,,,,,,,,,,,,,,,,,
,8533,ABC,08/01/2003,001,2023-12-13_14h15.55.153,OS3_Mult_verification,2022.2.4,Win32,59.88023952,,,,,,,,,,,,,,,,,,,,,,,,,,,,,,,,,,,right,1,0.5045,,,,,,magnitude,1,6,1 | 6,5,0.05,0.065,congruent,right,0,2,2,16,1,,,,,,,,,,,,,,,,,,,,,,,,,,,,,,,,,,,,,,,,,,,,,,,,,,,,,,,,,,,,,,,,,,,,,,,,,,,,,,,,,,,,,,,,,,,,,,,,,,,,,,,,,,,,,,,,,,,,,,
,8533,ABC,08/01/2003,001,2023-12-13_14h15.55.153,OS3_Mult_verification,2022.2.4,Win32,59.88023952,,,,,,,,,,,,,,,,,,,,,,,,,,,,,,,,,,,right,1,1.2049,,,,,,magnitude,8,9,8 | 9,1,0.05,0.065,congruent,right,0,3,3,3,1,,,,,,,,,,,,,,,,,,,,,,,,,,,,,,,,,,,,,,,,,,,,,,,,,,,,,,,,,,,,,,,,,,,,,,,,,,,,,,,,,,,,,,,,,,,,,,,,,,,,,,,,,,,,,,,,,,,,,,
,8533,ABC,08/01/2003,001,2023-12-13_14h15.55.153,OS3_Mult_verification,2022.2.4,Win32,59.88023952,,,,,,,,,,,,,,,,,,,,,,,,,,,,,,,,,,,right,1,0.8359,,,,,,magnitude,1,3,1 | 3,2,0.06,0.06,neutral,right,0,4,4,56,1,,,,,,,,,,,,,,,,,,,,,,,,,,,,,,,,,,,,,,,,,,,,,,,,,,,,,,,,,,,,,,,,,,,,,,,,,,,,,,,,,,,,,,,,,,,,,,,,,,,,,,,,,,,,,,,,,,,,,,
,8533,ABC,08/01/2003,001,2023-12-13_14h15.55.153,OS3_Mult_verification,2022.2.4,Win32,59.88023952,,,,,,,,,,,,,,,,,,,,,,,,,,,,,,,,,,,right,1,0.8392,,,,,,magnitude,1,6,1 | 6,5,0.065,0.05,incongruent,right,0,5,5,40,1,,,,,,,,,,,,,,,,,,,,,,,,,,,,,,,,,,,,,,,,,,,,,,,,,,,,,,,,,,,,,,,,,,,,,,,,,,,,,,,,,,,,,,,,,,,,,,,,,,,,,,,,,,,,,,,,,,,,,,
,8533,ABC,08/01/2003,001,2023-12-13_14h15.55.153,OS3_Mult_verification,2022.2.4,Win32,59.88023952,,,,,,,,,,,,,,,,,,,,,,,,,,,,,,,,,,,right,1,0.8516,,,,,,magnitude,8,9,8 | 9,1,0.06,0.06,neutral,right,0,6,6,51,1,,,,,,,,,,,,,,,,,,,,,,,,,,,,,,,,,,,,,,,,,,,,,,,,,,,,,,,,,,,,,,,,,,,,,,,,,,,,,,,,,,,,,,,,,,,,,,,,,,,,,,,,,,,,,,,,,,,,,,
,8533,ABC,08/01/2003,001,2023-12-13_14h15.55.153,OS3_Mult_verification,2022.2.4,Win32,59.88023952,,,,,,,,,,,,,,,,,,,,,,,,,,,,,,,,,,,left,1,0.7201,,,,,,magnitude,7,6,7 | 6,1,0.06,0.06,neutral,left,0,7,7,54,1,,,,,,,,,,,,,,,,,,,,,,,,,,,,,,,,,,,,,,,,,,,,,,,,,,,,,,,,,,,,,,,,,,,,,,,,,,,,,,,,,,,,,,,,,,,,,,,,,,,,,,,,,,,,,,,,,,,,,,
,8533,ABC,08/01/2003,001,2023-12-13_14h15.55.153,OS3_Mult_verification,2022.2.4,Win32,59.88023952,,,,,,,,,,,,,,,,,,,,,,,,,,,,,,,,,,,right,1,0.733,,,,,,magnitude,2,7,2 | 7,5,0.05,0.065,congruent,right,0,8,8,17,1,,,,,,,,,,,,,,,,,,,,,,,,,,,,,,,,,,,,,,,,,,,,,,,,,,,,,,,,,,,,,,,,,,,,,,,,,,,,,,,,,,,,,,,,,,,,,,,,,,,,,,,,,,,,,,,,,,,,,,
,8533,ABC,08/01/2003,001,2023-12-13_14h15.55.153,OS3_Mult_verification,2022.2.4,Win32,59.88023952,,,,,,,,,,,,,,,,,,,,,,,,,,,,,,,,,,,left,1,0.6869,,,,,,magnitude,2,1,2 | 1,1,0.065,0.05,congruent,left,0,9,9,4,1,,,,,,,,,,,,,,,,,,,,,,,,,,,,,,,,,,,,,,,,,,,,,,,,,,,,,,,,,,,,,,,,,,,,,,,,,,,,,,,,,,,,,,,,,,,,,,,,,,,,,,,,,,,,,,,,,,,,,,
,8533,ABC,08/01/2003,001,2023-12-13_14h15.55.153,OS3_Mult_verification,2022.2.4,Win32,59.88023952,,,,,,,,,,,,,,,,,,,,,,,,,,,,,,,,,,,left,1,0.7462,,,,,,magnitude,6,1,6 | 1,5,0.05,0.065,incongruent,left,0,10,10,44,1,,,,,,,,,,,,,,,,,,,,,,,,,,,,,,,,,,,,,,,,,,,,,,,,,,,,,,,,,,,,,,,,,,,,,,,,,,,,,,,,,,,,,,,,,,,,,,,,,,,,,,,,,,,,,,,,,,,,,,
,8533,ABC,08/01/2003,001,2023-12-13_14h15.55.153,OS3_Mult_verification,2022.2.4,Win32,59.88023952,,,,,,,,,,,,,,,,,,,,,,,,,,,,,,,,,,,right,1,0.6315,,,,,,magnitude,4,9,4 | 9,5,0.05,0.065,congruent,right,0,11,11,19,1,,,,,,,,,,,,,,,,,,,,,,,,,,,,,,,,,,,,,,,,,,,,,,,,,,,,,,,,,,,,,,,,,,,,,,,,,,,,,,,,,,,,,,,,,,,,,,,,,,,,,,,,,,,,,,,,,,,,,,
,8533,ABC,08/01/2003,001,2023-12-13_14h15.55.153,OS3_Mult_verification,2022.2.4,Win32,59.88023952,,,,,,,,,,,,,,,,,,,,,,,,,,,,,,,,,,,right,1,0.7357,,,,,,magnitude,2,4,2 | 4,2,0.065,0.05,incongruent,right,0,12,12,33,1,,,,,,,,,,,,,,,,,,,,,,,,,,,,,,,,,,,,,,,,,,,,,,,,,,,,,,,,,,,,,,,,,,,,,,,,,,,,,,,,,,,,,,,,,,,,,,,,,,,,,,,,,,,,,,,,,,,,,,
,8533,ABC,08/01/2003,001,2023-12-13_14h15.55.153,OS3_Mult_verification,2022.2.4,Win32,59.88023952,,,,,,,,,,,,,,,,,,,,,,,,,,,,,,,,,,,left,0,0.6624,,,,,,magnitude,7,9,7 | 9,2,0.05,0.065,congruent,right,0,13,13,11,1,,,,,,,,,,,,,,,,,,,,,,,,,,,,,,,,,,,,,,,,,,,,,,,,,,,,,,,,,,,,,,,,,,,,,,,,,,,,,,,,,,,,,,,,,,,,,,,,,,,,,,,,,,,,,,,,,,,,,,
,8533,ABC,08/01/2003,001,2023-12-13_14h15.55.153,OS3_Mult_verification,2022.2.4,Win32,59.88023952,,,,,,,,,,,,,,,,,,,,,,,,,,,,,,,,,,,left,1,1.1149,,,,,,magnitude,9,7,9 | 7,2,0.065,0.05,congruent,left,0,14,14,15,1,,,,,,,,,,,,,,,,,,,,,,,,,,,,,,,,,,,,,,,,,,,,,,,,,,,,,,,,,,,,,,,,,,,,,,,,,,,,,,,,,,,,,,,,,,,,,,,,,,,,,,,,,,,,,,,,,,,,,,
,8533,ABC,08/01/2003,001,2023-12-13_14h15.55.153,OS3_Mult_verification,2022.2.4,Win32,59.88023952,,,,,,,,,,,,,,,,,,,,,,,,,,,,,,,,,,,left,1,1.0339,,,,,,magnitude,3,1,3 | 1,2,0.05,0.065,incongruent,left,0,15,15,36,1,,,,,,,,,,,,,,,,,,,,,,,,,,,,,,,,,,,,,,,,,,,,,,,,,,,,,,,,,,,,,,,,,,,,,,,,,,,,,,,,,,,,,,,,,,,,,,,,,,,,,,,,,,,,,,,,,,,,,,
,8533,ABC,08/01/2003,001,2023-12-13_14h15.55.153,OS3_Mult_verification,2022.2.4,Win32,59.88023952,,,,,,,,,,,,,,,,,,,,,,,,,,,,,,,,,,,left,1,0.5981,,,,,,magnitude,7,6,7 | 6,1,0.065,0.05,congruent,left,0,16,16,6,1,,,,,,,,,,,,,,,,,,,,,,,,,,,,,,,,,,,,,,,,,,,,,,,,,,,,,,,,,,,,,,,,,,,,,,,,,,,,,,,,,,,,,,,,,,,,,,,,,,,,,,,,,,,,,,,,,,,,,,
,8533,ABC,08/01/2003,001,2023-12-13_14h15.55.153,OS3_Mult_verification,2022.2.4,Win32,59.88023952,,,,,,,,,,,,,,,,,,,,,,,,,,,,,,,,,,,left,1,0.81,,,,,,magnitude,4,2,4 | 2,2,0.065,0.05,congruent,left,0,17,17,13,1,,,,,,,,,,,,,,,,,,,,,,,,,,,,,,,,,,,,,,,,,,,,,,,,,,,,,,,,,,,,,,,,,,,,,,,,,,,,,,,,,,,,,,,,,,,,,,,,,,,,,,,,,,,,,,,,,,,,,,
,8533,ABC,08/01/2003,001,2023-12-13_14h15.55.153,OS3_Mult_verification,2022.2.4,Win32,59.88023952,,,,,,,,,,,,,,,,,,,,,,,,,,,,,,,,,,,left,1,0.7175,,,,,,magnitude,2,1,2 | 1,1,0.06,0.06,neutral,left,0,18,18,52,1,,,,,,,,,,,,,,,,,,,,,,,,,,,,,,,,,,,,,,,,,,,,,,,,,,,,,,,,,,,,,,,,,,,,,,,,,,,,,,,,,,,,,,,,,,,,,,,,,,,,,,,,,,,,,,,,,,,,,,
,8533,ABC,08/01/2003,001,2023-12-13_14h15.55.153,OS3_Mult_verification,2022.2.4,Win32,59.88023952,,,,,,,,,,,,,,,,,,,,,,,,,,,,,,,,,,,left,1,0.8332,,,,,,magnitude,9,7,9 | 7,2,0.05,0.065,incongruent,left,0,19,19,39,1,,,,,,,,,,,,,,,,,,,,,,,,,,,,,,,,,,,,,,,,,,,,,,,,,,,,,,,,,,,,,,,,,,,,,,,,,,,,,,,,,,,,,,,,,,,,,,,,,,,,,,,,,,,,,,,,,,,,,,
,8533,ABC,08/01/2003,001,2023-12-13_14h15.55.153,OS3_Mult_verification,2022.2.4,Win32,59.88023952,,,,,,,,,,,,,,,,,,,,,,,,,,,,,,,,,,,right,1,0.7504,,,,,,magnitude,2,4,2 | 4,2,0.06,0.06,neutral,right,0,20,20,57,1,,,,,,,,,,,,,,,,,,,,,,,,,,,,,,,,,,,,,,,,,,,,,,,,,,,,,,,,,,,,,,,,,,,,,,,,,,,,,,,,,,,,,,,,,,,,,,,,,,,,,,,,,,,,,,,,,,,,,,
,8533,ABC,08/01/2003,001,2023-12-13_14h15.55.153,OS3_Mult_verification,2022.2.4,Win32,59.88023952,,,,,,,,,,,,,,,,,,,,,,,,,,,,,,,,,,,left,1,0.6127,,,,,,magnitude,3,1,3 | 1,2,0.06,0.06,neutral,left,0,21,21,60,1,,,,,,,,,,,,,,,,,,,,,,,,,,,,,,,,,,,,,,,,,,,,,,,,,,,,,,,,,,,,,,,,,,,,,,,,,,,,,,,,,,,,,,,,,,,,,,,,,,,,,,,,,,,,,,,,,,,,,,
,8533,ABC,08/01/2003,001,2023-12-13_14h15.55.153,OS3_Mult_verification,2022.2.4,Win32,59.88023952,,,,,,,,,,,,,,,,,,,,,,,,,,,,,,,,,,,right,1,0.7634,,,,,,magnitude,1,2,1 | 2,1,0.065,0.05,incongruent,right,0,22,22,24,1,,,,,,,,,,,,,,,,,,,,,,,,,,,,,,,,,,,,,,,,,,,,,,,,,,,,,,,,,,,,,,,,,,,,,,,,,,,,,,,,,,,,,,,,,,,,,,,,,,,,,,,,,,,,,,,,,,,,,,
,8533,ABC,08/01/2003,001,2023-12-13_14h15.55.153,OS3_Mult_verification,2022.2.4,Win32,59.88023952,,,,,,,,,,,,,,,,,,,,,,,,,,,,,,,,,,,right,1,0.6454,,,,,,magnitude,2,7,2 | 7,5,0.06,0.06,neutral,right,0,23,23,65,1,,,,,,,,,,,,,,,,,,,,,,,,,,,,,,,,,,,,,,,,,,,,,,,,,,,,,,,,,,,,,,,,,,,,,,,,,,,,,,,,,,,,,,,,,,,,,,,,,,,,,,,,,,,,,,,,,,,,,,
,8533,ABC,08/01/2003,001,2023-12-13_14h15.55.153,OS3_Mult_verification,2022.2.4,Win32,59.88023952,,,,,,,,,,,,,,,,,,,,,,,,,,,,,,,,,,,right,1,0.5861,,,,,,magnitude,1,6,1 | 6,5,0.06,0.06,neutral,right,0,24,24,64,1,,,,,,,,,,,,,,,,,,,,,,,,,,,,,,,,,,,,,,,,,,,,,,,,,,,,,,,,,,,,,,,,,,,,,,,,,,,,,,,,,,,,,,,,,,,,,,,,,,,,,,,,,,,,,,,,,,,,,,
,8533,ABC,08/01/2003,001,2023-12-13_14h15.55.153,OS3_Mult_verification,2022.2.4,Win32,59.88023952,,,,,,,,,,,,,,,,,,,,,,,,,,,,,,,,,,,left,1,0.5916,,,,,,magnitude,4,3,4 | 3,1,0.05,0.065,incongruent,left,0,25,25,29,1,,,,,,,,,,,,,,,,,,,,,,,,,,,,,,,,,,,,,,,,,,,,,,,,,,,,,,,,,,,,,,,,,,,,,,,,,,,,,,,,,,,,,,,,,,,,,,,,,,,,,,,,,,,,,,,,,,,,,,
,8533,ABC,08/01/2003,001,2023-12-13_14h15.55.153,OS3_Mult_verification,2022.2.4,Win32,59.88023952,,,,,,,,,,,,,,,,,,,,,,,,,,,,,,,,,,,left,1,0.6008,,,,,,magnitude,2,1,2 | 1,1,0.05,0.065,incongruent,left,0,26,26,28,1,,,,,,,,,,,,,,,,,,,,,,,,,,,,,,,,,,,,,,,,,,,,,,,,,,,,,,,,,,,,,,,,,,,,,,,,,,,,,,,,,,,,,,,,,,,,,,,,,,,,,,,,,,,,,,,,,,,,,,
,8533,ABC,08/01/2003,001,2023-12-13_14h15.55.153,OS3_Mult_verification,2022.2.4,Win32,59.88023952,,,,,,,,,,,,,,,,,,,,,,,,,,,,,,,,,,,right,1,0.5978,,,,,,magnitude,1,3,1 | 3,2,0.05,0.065,congruent,right,0,27,27,8,1,,,,,,,,,,,,,,,,,,,,,,,,,,,,,,,,,,,,,,,,,,,,,,,,,,,,,,,,,,,,,,,,,,,,,,,,,,,,,,,,,,,,,,,,,,,,,,,,,,,,,,,,,,,,,,,,,,,,,,
,8533,ABC,08/01/2003,001,2023-12-13_14h15.55.153,OS3_Mult_verification,2022.2.4,Win32,59.88023952,,,,,,,,,,,,,,,,,,,,,,,,,,,,,,,,,,,right,1,0.6778,,,,,,magnitude,3,8,3 | 8,5,0.065,0.05,incongruent,right,0,28,28,42,1,,,,,,,,,,,,,,,,,,,,,,,,,,,,,,,,,,,,,,,,,,,,,,,,,,,,,,,,,,,,,,,,,,,,,,,,,,,,,,,,,,,,,,,,,,,,,,,,,,,,,,,,,,,,,,,,,,,,,,
,8533,ABC,08/01/2003,001,2023-12-13_14h15.55.153,OS3_Mult_verification,2022.2.4,Win32,59.88023952,,,,,,,,,,,,,,,,,,,,,,,,,,,,,,,,,,,left,1,0.6234,,,,,,magnitude,4,2,4 | 2,2,0.05,0.065,incongruent,left,0,29,29,37,1,,,,,,,,,,,,,,,,,,,,,,,,,,,,,,,,,,,,,,,,,,,,,,,,,,,,,,,,,,,,,,,,,,,,,,,,,,,,,,,,,,,,,,,,,,,,,,,,,,,,,,,,,,,,,,,,,,,,,,
,8533,ABC,08/01/2003,001,2023-12-13_14h15.55.153,OS3_Mult_verification,2022.2.4,Win32,59.88023952,,,,,,,,,,,,,,,,,,,,,,,,,,,,,,,,,,,left,1,0.6515,,,,,,magnitude,9,4,9 | 4,5,0.05,0.065,incongruent,left,0,30,30,47,1,,,,,,,,,,,,,,,,,,,,,,,,,,,,,,,,,,,,,,,,,,,,,,,,,,,,,,,,,,,,,,,,,,,,,,,,,,,,,,,,,,,,,,,,,,,,,,,,,,,,,,,,,,,,,,,,,,,,,,
,8533,ABC,08/01/2003,001,2023-12-13_14h15.55.153,OS3_Mult_verification,2022.2.4,Win32,59.88023952,,,,,,,,,,,,,,,,,,,,,,,,,,,,,,,,,,,right,1,0.5999,,,,,,magnitude,2,4,2 | 4,2,0.05,0.065,congruent,right,0,31,31,9,1,,,,,,,,,,,,,,,,,,,,,,,,,,,,,,,,,,,,,,,,,,,,,,,,,,,,,,,,,,,,,,,,,,,,,,,,,,,,,,,,,,,,,,,,,,,,,,,,,,,,,,,,,,,,,,,,,,,,,,
,8533,ABC,08/01/2003,001,2023-12-13_14h15.55.153,OS3_Mult_verification,2022.2.4,Win32,59.88023952,,,,,,,,,,,,,,,,,,,,,,,,,,,,,,,,,,,right,1,0.5482,,,,,,magnitude,1,3,1 | 3,2,0.065,0.05,incongruent,right,0,32,32,32,1,,,,,,,,,,,,,,,,,,,,,,,,,,,,,,,,,,,,,,,,,,,,,,,,,,,,,,,,,,,,,,,,,,,,,,,,,,,,,,,,,,,,,,,,,,,,,,,,,,,,,,,,,,,,,,,,,,,,,,
,8533,ABC,08/01/2003,001,2023-12-13_14h15.55.153,OS3_Mult_verification,2022.2.4,Win32,59.88023952,,,,,,,,,,,,,,,,,,,,,,,,,,,,,,,,,,,left,1,0.6271,,,,,,magnitude,7,2,7 | 2,5,0.05,0.065,incongruent,left,0,33,33,45,1,,,,,,,,,,,,,,,,,,,,,,,,,,,,,,,,,,,,,,,,,,,,,,,,,,,,,,,,,,,,,,,,,,,,,,,,,,,,,,,,,,,,,,,,,,,,,,,,,,,,,,,,,,,,,,,,,,,,,,
,8533,ABC,08/01/2003,001,2023-12-13_14h15.55.153,OS3_Mult_verification,2022.2.4,Win32,59.88023952,,,,,,,,,,,,,,,,,,,,,,,,,,,,,,,,,,,right,1,0.7046,,,,,,magnitude,3,4,3 | 4,1,0.05,0.065,congruent,right,0,34,34,1,1,,,,,,,,,,,,,,,,,,,,,,,,,,,,,,,,,,,,,,,,,,,,,,,,,,,,,,,,,,,,,,,,,,,,,,,,,,,,,,,,,,,,,,,,,,,,,,,,,,,,,,,,,,,,,,,,,,,,,,
,8533,ABC,08/01/2003,001,2023-12-13_14h15.55.153,OS3_Mult_verification,2022.2.4,Win32,59.88023952,,,,,,,,,,,,,,,,,,,,,,,,,,,,,,,,,,,right,1,0.7394,,,,,,magnitude,4,9,4 | 9,5,0.06,0.06,neutral,right,0,35,35,67,1,,,,,,,,,,,,,,,,,,,,,,,,,,,,,,,,,,,,,,,,,,,,,,,,,,,,,,,,,,,,,,,,,,,,,,,,,,,,,,,,,,,,,,,,,,,,,,,,,,,,,,,,,,,,,,,,,,,,,,
,8533,ABC,08/01/2003,001,2023-12-13_14h15.55.153,OS3_Mult_verification,2022.2.4,Win32,59.88023952,,,,,,,,,,,,,,,,,,,,,,,,,,,,,,,,,,,left,1,0.6546,,,,,,magnitude,8,3,8 | 3,5,0.05,0.065,incongruent,left,0,36,36,46,1,,,,,,,,,,,,,,,,,,,,,,,,,,,,,,,,,,,,,,,,,,,,,,,,,,,,,,,,,,,,,,,,,,,,,,,,,,,,,,,,,,,,,,,,,,,,,,,,,,,,,,,,,,,,,,,,,,,,,,
,8533,ABC,08/01/2003,001,2023-12-13_14h15.55.153,OS3_Mult_verification,2022.2.4,Win32,59.88023952,,,,,,,,,,,,,,,,,,,,,,,,,,,,,,,,,,,right,1,0.7267,,,,,,magnitude,7,9,7 | 9,2,0.065,0.05,incongruent,right,0,37,37,35,1,,,,,,,,,,,,,,,,,,,,,,,,,,,,,,,,,,,,,,,,,,,,,,,,,,,,,,,,,,,,,,,,,,,,,,,,,,,,,,,,,,,,,,,,,,,,,,,,,,,,,,,,,,,,,,,,,,,,,,
,8533,ABC,08/01/2003,001,2023-12-13_14h15.55.153,OS3_Mult_verification,2022.2.4,Win32,59.88023952,,,,,,,,,,,,,,,,,,,,,,,,,,,,,,,,,,,right,1,0.6603,,,,,,magnitude,6,8,6 | 8,2,0.05,0.065,congruent,right,0,38,38,10,1,,,,,,,,,,,,,,,,,,,,,,,,,,,,,,,,,,,,,,,,,,,,,,,,,,,,,,,,,,,,,,,,,,,,,,,,,,,,,,,,,,,,,,,,,,,,,,,,,,,,,,,,,,,,,,,,,,,,,,
,8533,ABC,08/01/2003,001,2023-12-13_14h15.55.153,OS3_Mult_verification,2022.2.4,Win32,59.88023952,,,,,,,,,,,,,,,,,,,,,,,,,,,,,,,,,,,left,1,0.6988,,,,,,magnitude,7,6,7 | 6,1,0.05,0.065,incongruent,left,0,39,39,30,1,,,,,,,,,,,,,,,,,,,,,,,,,,,,,,,,,,,,,,,,,,,,,,,,,,,,,,,,,,,,,,,,,,,,,,,,,,,,,,,,,,,,,,,,,,,,,,,,,,,,,,,,,,,,,,,,,,,,,,
,8533,ABC,08/01/2003,001,2023-12-13_14h15.55.153,OS3_Mult_verification,2022.2.4,Win32,59.88023952,,,,,,,,,,,,,,,,,,,,,,,,,,,,,,,,,,,left,1,0.5439,,,,,,magnitude,4,3,4 | 3,1,0.06,0.06,neutral,left,0,40,40,53,1,,,,,,,,,,,,,,,,,,,,,,,,,,,,,,,,,,,,,,,,,,,,,,,,,,,,,,,,,,,,,,,,,,,,,,,,,,,,,,,,,,,,,,,,,,,,,,,,,,,,,,,,,,,,,,,,,,,,,,
,8533,ABC,08/01/2003,001,2023-12-13_14h15.55.153,OS3_Mult_verification,2022.2.4,Win32,59.88023952,,,,,,,,,,,,,,,,,,,,,,,,,,,,,,,,,,,left,1,0.6746,,,,,,magnitude,9,8,9 | 8,1,0.06,0.06,neutral,left,0,41,41,55,1,,,,,,,,,,,,,,,,,,,,,,,,,,,,,,,,,,,,,,,,,,,,,,,,,,,,,,,,,,,,,,,,,,,,,,,,,,,,,,,,,,,,,,,,,,,,,,,,,,,,,,,,,,,,,,,,,,,,,,
,8533,ABC,08/01/2003,001,2023-12-13_14h15.55.153,OS3_Mult_verification,2022.2.4,Win32,59.88023952,,,,,,,,,,,,,,,,,,,,,,,,,,,,,,,,,,,left,1,0.5825,,,,,,magnitude,8,3,8 | 3,5,0.065,0.05,congruent,left,0,42,42,22,1,,,,,,,,,,,,,,,,,,,,,,,,,,,,,,,,,,,,,,,,,,,,,,,,,,,,,,,,,,,,,,,,,,,,,,,,,,,,,,,,,,,,,,,,,,,,,,,,,,,,,,,,,,,,,,,,,,,,,,
,8533,ABC,08/01/2003,001,2023-12-13_14h15.55.153,OS3_Mult_verification,2022.2.4,Win32,59.88023952,,,,,,,,,,,,,,,,,,,,,,,,,,,,,,,,,,,left,1,0.5957,,,,,,magnitude,3,1,3 | 1,2,0.065,0.05,congruent,left,0,43,43,12,1,,,,,,,,,,,,,,,,,,,,,,,,,,,,,,,,,,,,,,,,,,,,,,,,,,,,,,,,,,,,,,,,,,,,,,,,,,,,,,,,,,,,,,,,,,,,,,,,,,,,,,,,,,,,,,,,,,,,,,
,8533,ABC,08/01/2003,001,2023-12-13_14h15.55.153,OS3_Mult_verification,2022.2.4,Win32,59.88023952,,,,,,,,,,,,,,,,,,,,,,,,,,,,,,,,,,,right,1,0.5504,,,,,,magnitude,1,2,1 | 2,1,0.06,0.06,neutral,right,0,44,44,48,1,,,,,,,,,,,,,,,,,,,,,,,,,,,,,,,,,,,,,,,,,,,,,,,,,,,,,,,,,,,,,,,,,,,,,,,,,,,,,,,,,,,,,,,,,,,,,,,,,,,,,,,,,,,,,,,,,,,,,,
,8533,ABC,08/01/2003,001,2023-12-13_14h15.55.153,OS3_Mult_verification,2022.2.4,Win32,59.88023952,,,,,,,,,,,,,,,,,,,,,,,,,,,,,,,,,,,right,1,0.5194,,,,,,magnitude,1,2,1 | 2,1,0.05,0.065,congruent,right,0,45,45,0,1,,,,,,,,,,,,,,,,,,,,,,,,,,,,,,,,,,,,,,,,,,,,,,,,,,,,,,,,,,,,,,,,,,,,,,,,,,,,,,,,,,,,,,,,,,,,,,,,,,,,,,,,,,,,,,,,,,,,,,
,8533,ABC,08/01/2003,001,2023-12-13_14h15.55.153,OS3_Mult_verification,2022.2.4,Win32,59.88023952,,,,,,,,,,,,,,,,,,,,,,,,,,,,,,,,,,,left,1,0.5488,,,,,,magnitude,8,6,8 | 6,2,0.065,0.05,congruent,left,0,46,46,14,1,,,,,,,,,,,,,,,,,,,,,,,,,,,,,,,,,,,,,,,,,,,,,,,,,,,,,,,,,,,,,,,,,,,,,,,,,,,,,,,,,,,,,,,,,,,,,,,,,,,,,,,,,,,,,,,,,,,,,,
,8533,ABC,08/01/2003,001,2023-12-13_14h15.55.153,OS3_Mult_verification,2022.2.4,Win32,59.88023952,,,,,,,,,,,,,,,,,,,,,,,,,,,,,,,,,,,left,1,0.5023,,,,,,magnitude,8,6,8 | 6,2,0.06,0.06,neutral,left,0,47,47,62,1,,,,,,,,,,,,,,,,,,,,,,,,,,,,,,,,,,,,,,,,,,,,,,,,,,,,,,,,,,,,,,,,,,,,,,,,,,,,,,,,,,,,,,,,,,,,,,,,,,,,,,,,,,,,,,,,,,,,,,
,8533,ABC,08/01/2003,001,2023-12-13_14h15.55.153,OS3_Mult_verification,2022.2.4,Win32,59.88023952,,,,,,,,,,,,,,,,,,,,,,,,,,,,,,,,,,,left,1,0.5969,,,,,,magnitude,7,2,7 | 2,5,0.06,0.06,neutral,left,0,48,48,69,1,,,,,,,,,,,,,,,,,,,,,,,,,,,,,,,,,,,,,,,,,,,,,,,,,,,,,,,,,,,,,,,,,,,,,,,,,,,,,,,,,,,,,,,,,,,,,,,,,,,,,,,,,,,,,,,,,,,,,,
,8533,ABC,08/01/2003,001,2023-12-13_14h15.55.153,OS3_Mult_verification,2022.2.4,Win32,59.88023952,,,,,,,,,,,,,,,,,,,,,,,,,,,,,,,,,,,right,1,0.9138,,,,,,magnitude,6,7,6 | 7,1,0.065,0.05,incongruent,right,0,49,49,26,1,,,,,,,,,,,,,,,,,,,,,,,,,,,,,,,,,,,,,,,,,,,,,,,,,,,,,,,,,,,,,,,,,,,,,,,,,,,,,,,,,,,,,,,,,,,,,,,,,,,,,,,,,,,,,,,,,,,,,,
,8533,ABC,08/01/2003,001,2023-12-13_14h15.55.153,OS3_Mult_verification,2022.2.4,Win32,59.88023952,,,,,,,,,,,,,,,,,,,,,,,,,,,,,,,,,,,right,1,0.4921,,,,,,magnitude,6,8,6 | 8,2,0.065,0.05,incongruent,right,0,50,50,34,1,,,,,,,,,,,,,,,,,,,,,,,,,,,,,,,,,,,,,,,,,,,,,,,,,,,,,,,,,,,,,,,,,,,,,,,,,,,,,,,,,,,,,,,,,,,,,,,,,,,,,,,,,,,,,,,,,,,,,,
,8533,ABC,08/01/2003,001,2023-12-13_14h15.55.153,OS3_Mult_verification,2022.2.4,Win32,59.88023952,,,,,,,,,,,,,,,,,,,,,,,,,,,,,,,,,,,right,1,0.603,,,,,,magnitude,8,9,8 | 9,1,0.065,0.05,incongruent,right,0,51,51,27,1,,,,,,,,,,,,,,,,,,,,,,,,,,,,,,,,,,,,,,,,,,,,,,,,,,,,,,,,,,,,,,,,,,,,,,,,,,,,,,,,,,,,,,,,,,,,,,,,,,,,,,,,,,,,,,,,,,,,,,
,8533,ABC,08/01/2003,001,2023-12-13_14h15.55.153,OS3_Mult_verification,2022.2.4,Win32,59.88023952,,,,,,,,,,,,,,,,,,,,,,,,,,,,,,,,,,,left,1,0.5146,,,,,,magnitude,6,1,6 | 1,5,0.06,0.06,neutral,left,0,52,52,68,1,,,,,,,,,,,,,,,,,,,,,,,,,,,,,,,,,,,,,,,,,,,,,,,,,,,,,,,,,,,,,,,,,,,,,,,,,,,,,,,,,,,,,,,,,,,,,,,,,,,,,,,,,,,,,,,,,,,,,,
,8533,ABC,08/01/2003,001,2023-12-13_14h15.55.153,OS3_Mult_verification,2022.2.4,Win32,59.88023952,,,,,,,,,,,,,,,,,,,,,,,,,,,,,,,,,,,right,1,0.5406,,,,,,magnitude,6,7,6 | 7,1,0.05,0.065,congruent,right,0,53,53,2,1,,,,,,,,,,,,,,,,,,,,,,,,,,,,,,,,,,,,,,,,,,,,,,,,,,,,,,,,,,,,,,,,,,,,,,,,,,,,,,,,,,,,,,,,,,,,,,,,,,,,,,,,,,,,,,,,,,,,,,
,8533,ABC,08/01/2003,001,2023-12-13_14h15.55.153,OS3_Mult_verification,2022.2.4,Win32,59.88023952,,,,,,,,,,,,,,,,,,,,,,,,,,,,,,,,,,,left,1,0.5001,,,,,,magnitude,4,2,4 | 2,2,0.06,0.06,neutral,left,0,54,54,61,1,,,,,,,,,,,,,,,,,,,,,,,,,,,,,,,,,,,,,,,,,,,,,,,,,,,,,,,,,,,,,,,,,,,,,,,,,,,,,,,,,,,,,,,,,,,,,,,,,,,,,,,,,,,,,,,,,,,,,,
,8533,ABC,08/01/2003,001,2023-12-13_14h15.55.153,OS3_Mult_verification,2022.2.4,Win32,59.88023952,,,,,,,,,,,,,,,,,,,,,,,,,,,,,,,,,,,right,1,0.6205,,,,,,magnitude,6,7,6 | 7,1,0.06,0.06,neutral,right,0,55,55,50,1,,,,,,,,,,,,,,,,,,,,,,,,,,,,,,,,,,,,,,,,,,,,,,,,,,,,,,,,,,,,,,,,,,,,,,,,,,,,,,,,,,,,,,,,,,,,,,,,,,,,,,,,,,,,,,,,,,,,,,
,8533,ABC,08/01/2003,001,2023-12-13_14h15.55.153,OS3_Mult_verification,2022.2.4,Win32,59.88023952,,,,,,,,,,,,,,,,,,,,,,,,,,,,,,,,,,,left,1,0.5884,,,,,,magnitude,4,3,4 | 3,1,0.065,0.05,congruent,left,0,56,56,5,1,,,,,,,,,,,,,,,,,,,,,,,,,,,,,,,,,,,,,,,,,,,,,,,,,,,,,,,,,,,,,,,,,,,,,,,,,,,,,,,,,,,,,,,,,,,,,,,,,,,,,,,,,,,,,,,,,,,,,,
,8533,ABC,08/01/2003,001,2023-12-13_14h15.55.153,OS3_Mult_verification,2022.2.4,Win32,59.88023952,,,,,,,,,,,,,,,,,,,,,,,,,,,,,,,,,,,left,1,0.5376,,,,,,magnitude,9,7,9 | 7,2,0.06,0.06,neutral,left,0,57,57,63,1,,,,,,,,,,,,,,,,,,,,,,,,,,,,,,,,,,,,,,,,,,,,,,,,,,,,,,,,,,,,,,,,,,,,,,,,,,,,,,,,,,,,,,,,,,,,,,,,,,,,,,,,,,,,,,,,,,,,,,
,8533,ABC,08/01/2003,001,2023-12-13_14h15.55.153,OS3_Mult_verification,2022.2.4,Win32,59.88023952,,,,,,,,,,,,,,,,,,,,,,,,,,,,,,,,,,,left,1,0.5682,,,,,,magnitude,6,1,6 | 1,5,0.065,0.05,congruent,left,0,58,58,20,1,,,,,,,,,,,,,,,,,,,,,,,,,,,,,,,,,,,,,,,,,,,,,,,,,,,,,,,,,,,,,,,,,,,,,,,,,,,,,,,,,,,,,,,,,,,,,,,,,,,,,,,,,,,,,,,,,,,,,,
,8533,ABC,08/01/2003,001,2023-12-13_14h15.55.153,OS3_Mult_verification,2022.2.4,Win32,59.88023952,,,,,,,,,,,,,,,,,,,,,,,,,,,,,,,,,,,left,1,0.7986,,,,,,magnitude,8,6,8 | 6,2,0.05,0.065,incongruent,left,0,59,59,38,1,,,,,,,,,,,,,,,,,,,,,,,,,,,,,,,,,,,,,,,,,,,,,,,,,,,,,,,,,,,,,,,,,,,,,,,,,,,,,,,,,,,,,,,,,,,,,,,,,,,,,,,,,,,,,,,,,,,,,,
,8533,ABC,08/01/2003,001,2023-12-13_14h15.55.153,OS3_Mult_verification,2022.2.4,Win32,59.88023952,,,,,,,,,,,,,,,,,,,,,,,,,,,,,,,,,,,left,1,0.5367,,,,,,magnitude,7,2,7 | 2,5,0.065,0.05,congruent,left,0,60,60,21,1,,,,,,,,,,,,,,,,,,,,,,,,,,,,,,,,,,,,,,,,,,,,,,,,,,,,,,,,,,,,,,,,,,,,,,,,,,,,,,,,,,,,,,,,,,,,,,,,,,,,,,,,,,,,,,,,,,,,,,
,8533,ABC,08/01/2003,001,2023-12-13_14h15.55.153,OS3_Mult_verification,2022.2.4,Win32,59.88023952,,,,,,,,,,,,,,,,,,,,,,,,,,,,,,,,,,,left,0,0.5965,,,,,,magnitude,6,8,6 | 8,2,0.06,0.06,neutral,right,0,61,61,58,1,,,,,,,,,,,,,,,,,,,,,,,,,,,,,,,,,,,,,,,,,,,,,,,,,,,,,,,,,,,,,,,,,,,,,,,,,,,,,,,,,,,,,,,,,,,,,,,,,,,,,,,,,,,,,,,,,,,,,,
,8533,ABC,08/01/2003,001,2023-12-13_14h15.55.153,OS3_Mult_verification,2022.2.4,Win32,59.88023952,,,,,,,,,,,,,,,,,,,,,,,,,,,,,,,,,,,left,1,0.9339,,,,,,magnitude,9,8,9 | 8,1,0.065,0.05,congruent,left,0,62,62,7,1,,,,,,,,,,,,,,,,,,,,,,,,,,,,,,,,,,,,,,,,,,,,,,,,,,,,,,,,,,,,,,,,,,,,,,,,,,,,,,,,,,,,,,,,,,,,,,,,,,,,,,,,,,,,,,,,,,,,,,
,8533,ABC,08/01/2003,001,2023-12-13_14h15.55.153,OS3_Mult_verification,2022.2.4,Win32,59.88023952,,,,,,,,,,,,,,,,,,,,,,,,,,,,,,,,,,,left,1,0.6011,,,,,,magnitude,9,4,9 | 4,5,0.065,0.05,congruent,left,0,63,63,23,1,,,,,,,,,,,,,,,,,,,,,,,,,,,,,,,,,,,,,,,,,,,,,,,,,,,,,,,,,,,,,,,,,,,,,,,,,,,,,,,,,,,,,,,,,,,,,,,,,,,,,,,,,,,,,,,,,,,,,,
,8533,ABC,08/01/2003,001,2023-12-13_14h15.55.153,OS3_Mult_verification,2022.2.4,Win32,59.88023952,,,,,,,,,,,,,,,,,,,,,,,,,,,,,,,,,,,right,1,0.5702,,,,,,magnitude,4,9,4 | 9,5,0.065,0.05,incongruent,right,0,64,64,43,1,,,,,,,,,,,,,,,,,,,,,,,,,,,,,,,,,,,,,,,,,,,,,,,,,,,,,,,,,,,,,,,,,,,,,,,,,,,,,,,,,,,,,,,,,,,,,,,,,,,,,,,,,,,,,,,,,,,,,,
,8533,ABC,08/01/2003,001,2023-12-13_14h15.55.153,OS3_Mult_verification,2022.2.4,Win32,59.88023952,,,,,,,,,,,,,,,,,,,,,,,,,,,,,,,,,,,left,1,0.5487,,,,,,magnitude,8,3,8 | 3,5,0.06,0.06,neutral,left,0,65,65,70,1,,,,,,,,,,,,,,,,,,,,,,,,,,,,,,,,,,,,,,,,,,,,,,,,,,,,,,,,,,,,,,,,,,,,,,,,,,,,,,,,,,,,,,,,,,,,,,,,,,,,,,,,,,,,,,,,,,,,,,
,8533,ABC,08/01/2003,001,2023-12-13_14h15.55.153,OS3_Mult_verification,2022.2.4,Win32,59.88023952,,,,,,,,,,,,,,,,,,,,,,,,,,,,,,,,,,,right,1,0.5617,,,,,,magnitude,2,7,2 | 7,5,0.065,0.05,incongruent,right,0,66,66,41,1,,,,,,,,,,,,,,,,,,,,,,,,,,,,,,,,,,,,,,,,,,,,,,,,,,,,,,,,,,,,,,,,,,,,,,,,,,,,,,,,,,,,,,,,,,,,,,,,,,,,,,,,,,,,,,,,,,,,,,
,8533,ABC,08/01/2003,001,2023-12-13_14h15.55.153,OS3_Mult_verification,2022.2.4,Win32,59.88023952,,,,,,,,,,,,,,,,,,,,,,,,,,,,,,,,,,,right,1,0.8755,,,,,,magnitude,3,4,3 | 4,1,0.06,0.06,neutral,right,0,67,67,49,1,,,,,,,,,,,,,,,,,,,,,,,,,,,,,,,,,,,,,,,,,,,,,,,,,,,,,,,,,,,,,,,,,,,,,,,,,,,,,,,,,,,,,,,,,,,,,,,,,,,,,,,,,,,,,,,,,,,,,,
,8533,ABC,08/01/2003,001,2023-12-13_14h15.55.153,OS3_Mult_verification,2022.2.4,Win32,59.88023952,,,,,,,,,,,,,,,,,,,,,,,,,,,,,,,,,,,right,1,0.7464,,,,,,magnitude,3,4,3 | 4,1,0.065,0.05,incongruent,right,0,68,68,25,1,,,,,,,,,,,,,,,,,,,,,,,,,,,,,,,,,,,,,,,,,,,,,,,,,,,,,,,,,,,,,,,,,,,,,,,,,,,,,,,,,,,,,,,,,,,,,,,,,,,,,,,,,,,,,,,,,,,,,,
,8533,ABC,08/01/2003,001,2023-12-13_14h15.55.153,OS3_Mult_verification,2022.2.4,Win32,59.88023952,,,,,,,,,,,,,,,,,,,,,,,,,,,,,,,,,,,left,1,0.6158,,,,,,magnitude,9,4,9 | 4,5,0.06,0.06,neutral,left,0,69,69,71,1,,,,,,,,,,,,,,,,,,,,,,,,,,,,,,,,,,,,,,,,,,,,,,,,,,,,,,,,,,,,,,,,,,,,,,,,,,,,,,,,,,,,,,,,,,,,,,,,,,,,,,,,,,,,,,,,,,,,,,
,8533,ABC,08/01/2003,001,2023-12-13_14h15.55.153,OS3_Mult_verification,2022.2.4,Win32,59.88023952,,,,,,,,,,,,,,,,,,,,,,,,,,,,,,,,,,,right,1,0.5608,,,,,,magnitude,7,9,7 | 9,2,0.06,0.06,neutral,right,0,70,70,59,1,,,,,,,,,,,,,,,,,,,,,,,,,,,,,,,,,,,,,,,,,,,,,,,,,,,,,,,,,,,,,,,,,,,,,,,,,,,,,,,,,,,,,,,,,,,,,,,,,,,,,,,,,,,,,,,,,,,,,,
,8533,ABC,08/01/2003,001,2023-12-13_14h15.55.153,OS3_Mult_verification,2022.2.4,Win32,59.88023952,,,,,,,,,,,,,,,,,,,,,,,,,,,,,,,,,,,left,1,0.7797,,,,,,magnitude,9,8,9 | 8,1,0.05,0.065,incongruent,left,0,71,71,31,1,,,,,,,,,,,,,,,,,,,,,,,,,,,,,,,,,,,,,,,,,,,,,,,,,,,,,,,,,,,,,,,,,,,,,,,,,,,,,,,,,,,,,,,,,,,,,,,,,,,,,,,,,,,,,,,,,,,,,,
,8533,ABC,08/01/2003,001,2023-12-13_14h15.55.153,OS3_Mult_verification,2022.2.4,Win32,59.88023952,,,,,,,,,,,,,,,,,,,,,,,,,,,,,,,,,,,,,,,,,,,,,,,,,,,,,,,,,0,1,1,0,1,stroop_stim/magnitude.xlsx,stroop_stim/prac_magnitude.xlsx,NUMERICALLY larger (larger coefficient).,images/numericallyLarger.png,,,,,,,,,,,,,,,,,,,,,,,,,,,,,,,,,,,,,,,,,,,,,,,,,,,,,,,,,,,,,,,,,,,,,,,,,,,,,,,,,,,,,,,,,,,,,,,,,,,,,,,,,,,,,
,8533,ABC,08/01/2003,001,2023-12-13_14h15.55.153,OS3_Mult_verification,2022.2.4,Win32,59.88023952,,,,,,,,,,,,,,,,,,,,,,,,,,,,,,,,,,,,,,,,,,,,,,,,,,,,,,,,,,,,,,,,,,0,0,0,0,1,,,,,,,,,,,,,,,,,,,,,,,,,,,,,,,,,,,,,,,,,,,,,,,,,,,,,,,,,,,,,,,,,,,,,,,,,,,,,,,,,,,,,,,,,,,,,,,,,,,,,,,,
,8533,ABC,08/01/2003,001,2023-12-13_14h15.55.153,OS3_Mult_verification,2022.2.4,Win32,59.88023952,,,,,,,,,,,,,,,,,,,,,,,,,,,,,,,,,,,,,,,,,,,,,,,,,,,,,,,,,,,,,,,,,,,,,,,0,0,0,0,1,1,0,0,,,,,,,,,,,,,,,,,,,,,,,,,,,,,,,,,,,,,,,,,,,,,,,,,,,,,,,,,,,,,,,,,,,,,,,,,,,,,,,,,,,,,,,,,,,,,,,,
,8533,ABC,08/01/2003,001,2023-12-13_14h15.55.153,OS3_Mult_verification,2022.2.4,Win32,59.88023952,,,,,,,,,,,,,,,,space,1.2583,,,,,,,,,,,,,,,,,,,,,,,,,,,,,,,,,,,,,,,,,,,,,,,,,,,,,,,,,,,,,,FALSE,10.2715,0.024074131,-0.324074131,1,0,0,0,0,0,1,1,practice trial,,3,3,,,,,,,,,,,,,,,,,,,,,,,,,,,,,,,,,,,,,,,,,,,,,,,,,,,,,,,,,,,,,,,,,,,,,,,,,,,,,,,,
,8533,ABC,08/01/2003,001,2023-12-13_14h15.55.153,OS3_Mult_verification,2022.2.4,Win32,59.88023952,,,,,,,,,,,,,,,,,,,,,,,,,,,,,,,,,,,,,,,,,,,,,,,,,,,,,,,,,,,,,,,,,,,,,,,,,,,,,,,TRUE,2.4652,0.026851908,-0.335185242,1,0,0,0,1,1,0,1,practice trial,,3,3,,,,,,,,,,,,,,,,,,,,,,,,,,,,,,,,,,,,,,,,,,,,,,,,,,,,,,,,,,,,,,,,,,,,,,,,,,,,,,,,
,8533,ABC,08/01/2003,001,2023-12-13_14h15.55.153,OS3_Mult_verification,2022.2.4,Win32,59.88023952,,,,,,,,,,,,,,,,,,,,,,,,,,,,,,,,,,,,,,,,,,,,,,,,,,,,,,,,,,,,,,,,,,,,,,,,,,,,,,,TRUE,2.1962,0.057407464,-0.342592621,1,0,0,0,2,2,2,1,practice trial,,3,3,,,,,,,,,,,,,,,,,,,,,,,,,,,,,,,,,,,,,,,,,,,,,,,,,,,,,,,,,,,,,,,,,,,,,,,,,,,,,,,,
,8533,ABC,08/01/2003,001,2023-12-13_14h15.55.153,OS3_Mult_verification,2022.2.4,Win32,59.88023952,,,,,,,,,,,,,,,,,,,,,,,,,,,,,,,,,,,,,,,,,,,,,,,,,,,,,,,,,,,,,,,,,,,,,,,,,,,,,,,TRUE,1.5303,0.013888889,-0.322222222,1,0,0,,,,,,Trial #1,,2,2,0,0,0,0,1,2,,,,,,,,,,,,,,,,,,,,,,,,,,,,,,,,,,,,,,,,,,,,,,,,,,,,,,,,,,,,,,,,,,,,,,,,,,
,8533,ABC,08/01/2003,001,2023-12-13_14h15.55.153,OS3_Mult_verification,2022.2.4,Win32,59.88023952,,,,,,,,,,,,,,,,,,,,,,,,,,,,,,,,,,,,,,,,,,,,,,,,,,,,,,,,,,,,,,,,,,,,,,,,,,,,,,,TRUE,1.4163,0.019444444,-0.326851908,1,0,0,,,,,,Trial #1,,2,2,0,1,1,1,1,2,,,,,,,,,,,,,,,,,,,,,,,,,,,,,,,,,,,,,,,,,,,,,,,,,,,,,,,,,,,,,,,,,,,,,,,,,,
,8533,ABC,08/01/2003,001,2023-12-13_14h15.55.153,OS3_Mult_verification,2022.2.4,Win32,59.88023952,,,,,,,,,,,,,,,,,,,,,,,,,,,,,,,,,,,,,,,,,,,,,,,,,,,,,,,,,,,,,,,,,,,,,,,,,,,,,,,TRUE,1.606,-0.033333333,-0.345370399,1,0,0,,,,,,Trial #1,,2,2,0,2,2,2,1,2,,,,,,,,,,,,,,,,,,,,,,,,,,,,,,,,,,,,,,,,,,,,,,,,,,,,,,,,,,,,,,,,,,,,,,,,,,
,8533,ABC,08/01/2003,001,2023-12-13_14h15.55.153,OS3_Mult_verification,2022.2.4,Win32,59.88023952,,,,,,,,,,,,,,,,,,,,,,,,,,,,,,,,,,,,,,,,,,,,,,,,,,,,,,,,,,,,,,,,,,,,,,,,,,,,,,,TRUE,2.1042,0.017592621,-0.344444444,1,0,0,,,,,,Trial #2,,3,3,0,0,0,0,1,3,,,,,,,,,,,,,,,,,,,,,,,,,,,,,,,,,,,,,,,,,,,,,,,,,,,,,,,,,,,,,,,,,,,,,,,,,,
,8533,ABC,08/01/2003,001,2023-12-13_14h15.55.153,OS3_Mult_verification,2022.2.4,Win32,59.88023952,,,,,,,,,,,,,,,,,,,,,,,,,,,,,,,,,,,,,,,,,,,,,,,,,,,,,,,,,,,,,,,,,,,,,,,,,,,,,,,TRUE,2.14,0.044444444,-0.336111111,1,0,0,,,,,,Trial #2,,3,3,0,1,1,1,1,3,,,,,,,,,,,,,,,,,,,,,,,,,,,,,,,,,,,,,,,,,,,,,,,,,,,,,,,,,,,,,,,,,,,,,,,,,,
,8533,ABC,08/01/2003,001,2023-12-13_14h15.55.153,OS3_Mult_verification,2022.2.4,Win32,59.88023952,,,,,,,,,,,,,,,,,,,,,,,,,,,,,,,,,,,,,,,,,,,,,,,,,,,,,,,,,,,,,,,,,,,,,,,,,,,,,,,TRUE,1.9352,0.020370399,-0.323148176,1,0,0,,,,,,Trial #2,,3,3,0,2,2,2,1,3,,,,,,,,,,,,,,,,,,,,,,,,,,,,,,,,,,,,,,,,,,,,,,,,,,,,,,,,,,,,,,,,,,,,,,,,,,
