windowSize,participant,group,DOB (DD/MM/YEAR),session,date,expName,psychopyVersion,OS,frameRate,typing_instr_resp.keys,typing_instr_resp.rt,typing_response,typing_rt,typing_score,typingSpeed_input_resp.keys,typingSpeed_input_resp.rt,typing_speed_trials.thisRepN,typing_speed_trials.thisTrialN,typing_speed_trials.thisN,typing_speed_trials.thisIndex,typing_speed_trials.ran,typing_speed_stim,typing_report_resp.keys,typing_report_resp.rt,vpt_trial_resp1.keys,vpt_trial_resp1.rt,typedResponse,fluency_rt,fluency_score,fluencyInputResp.keys,fluencyInputResp.rt,fluencyPracLoop.thisRepN,fluencyPracLoop.thisTrialN,fluencyPracLoop.thisN,fluencyPracLoop.thisIndex,fluencyPracLoop.ran,problem,answers,fluencyLoop.thisRepN,fluencyLoop.thisTrialN,fluencyLoop.thisN,fluencyLoop.thisIndex,fluencyLoop.ran,vptCorrect,vpt_rt,respMouse.x,respMouse.y,respMouse.leftButton,respMouse.midButton,respMouse.rightButton,vptPracticeLoop.thisRepN,vptPracticeLoop.thisTrialN,vptPracticeLoop.thisN,vptPracticeLoop.thisIndex,vptPracticeLoop.ran,trialType,tiles,rows,cols,vptTrialLoop.thisRepN,vptTrialLoop.thisTrialN,vptTrialLoop.thisN,vptTrialLoop.thisIndex,vptTrialLoop.ran,noOfBlocks,TASK_B.thisRepN,TASK_B.thisTrialN,TASK_B.thisN,TASK_B.thisIndex,TASK_B.ran,controlTaskOrder.thisRepN,controlTaskOrder.thisTrialN,controlTaskOrder.thisN,controlTaskOrder.thisIndex,controlTaskOrder.ran,nRepsTask1,nRepsTask2,nRepsTask3,stroopResp.keys,stroopResp.corr,stroopResp.rt,stroopPracLoop.thisRepN,stroopPracLoop.thisTrialN,stroopPracLoop.thisN,stroopPracLoop.thisIndex,stroopPracLoop.ran,stroopCond,leftNo,rightNo,displayProblem,numDistance,leftNo_size,rightNo_size,Dims,keyAnswer,stroopLoop.thisRepN,stroopLoop.thisTrialN,stroopLoop.thisN,stroopLoop.thisIndex,stroopLoop.ran,stroopBlocks.thisRepN,stroopBlocks.thisTrialN,stroopBlocks.thisN,stroopBlocks.thisIndex,stroopBlocks.ran,stroop_condition,stroop_pracFile,ActionInst,instrImage,TASK_A.thisRepN,TASK_A.thisTrialN,TASK_A.thisN,TASK_A.thisIndex,TASK_A.ran,sampleAudio_resp.keys,sampleAudio_resp.rt,subjResponse,audio_rt,DS_score,inputResp.keys,inputResp.rt,audioPracticeLoop.thisRepN,audioPracticeLoop.thisTrialN,audioPracticeLoop.thisN,audioPracticeLoop.thisIndex,audioPracticeLoop.ran,digitSpan,digits_audioStim,soundsFile,typeDS,audioTrials_Loop.thisRepN,audioTrials_Loop.thisTrialN,audioTrials_Loop.thisN,audioTrials_Loop.thisIndex,audioTrials_Loop.ran,audioBlocks_loop.thisRepN,audioBlocks_loop.thisTrialN,audioBlocks_loop.thisN,audioBlocks_loop.thisIndex,audioBlocks_loop.ran,ConditionFile,digitSpanTask_loop.thisRepN,digitSpanTask_loop.thisTrialN,digitSpanTask_loop.thisN,digitSpanTask_loop.thisIndex,digitSpanTask_loop.ran,dsFile,TASK_C.thisRepN,TASK_C.thisTrialN,TASK_C.thisN,TASK_C.thisIndex,TASK_C.ran,veriStim_resp.keys,veriStim_resp.corr,veriStim_resp.rt,verificationPracLoop.thisRepN,verificationPracLoop.thisTrialN,verificationPracLoop.thisN,verificationPracLoop.thisIndex,verificationPracLoop.ran,mult_problem,mult_answer,mult_type,error_distance,interferenceScore,problemType,interferenceLevel,problemSize,img_leftButton,img_rightButton,veriLoop.thisRepN,veriLoop.thisTrialN,veriLoop.thisN,veriLoop.thisIndex,veriLoop.ran,veriBlock.thisRepN,veriBlock.thisTrialN,veriBlock.thisN,veriBlock.thisIndex,veriBlock.ran,verificationFiles,end_resp.keys,end_resp.rt
"[1280,577]",582545690541,BAC,22/12/1999,001,2023-04-07_17h10.22.279,OS3_Mult_verification,2022.2.4,Win32,30.00480077,,,,,,,,,,,,,,,,,,,,,,,,,,,,,,,,,,,,,,,,,,,,,,,,,,,,,,,,,,,,,,,,,,,,,,,,,,,,,,,,,,,,,,,,,,,,,,,,,,,,,,,,,,,,,,,,,,,,,,,,,,,,,,,,,,,,,,,,,,,,,,,,,,,,,,,,,,,,,,,,,,,,,,,,,,,,,,
,582545690541,BAC,22/12/1999,001,2023-04-07_17h10.22.279,OS3_Mult_verification,2022.2.4,Win32,30.00480077,,,,,,,,,,,,,,,,,,,,,,,,,,,,,,,,,,,,,,,,,,,,,,,,,,,,,,,,,,,,,,,,,,,,,,,,,,,,,,,,,,,,,,,,,,,,,,,,,,,,,,,,,,,,,,,,,,,,,,,,,,,,,,,,,,,,,,,,,,,,,,,,,,,,,,,,,,,,,,,,,,,,,,,,,,,,,,
,582545690541,BAC,22/12/1999,001,2023-04-07_17h10.22.279,OS3_Mult_verification,2022.2.4,Win32,30.00480077,space,22.5449,,,,,,,,,,,,,,,,,,,,,,,,,,,,,,,,,,,,,,,,,,,,,,,,,,,,,,,,,,,,,,,,,,,,,,,,,,,,,,,,,,,,,,,,,,,,,,,,,,,,,,,,,,,,,,,,,,,,,,,,,,,,,,,,,,,,,,,,,,,,,,,,,,,,,,,,,,,,,,,,,,,,,,,,,,,,
,582545690541,BAC,22/12/1999,001,2023-04-07_17h10.22.279,OS3_Mult_verification,2022.2.4,Win32,30.00480077,,,63,3.0733,1,"[""6"",""3"",""return""]","[1.4767000000000792,1.6668000000000518,2.975599999999986]",0,0,0,27,1,63,,,,,,,,,,,,,,,,,,,,,,,,,,,,,,,,,,,,,,,,,,,,,,,,,,,,,,,,,,,,,,,,,,,,,,,,,,,,,,,,,,,,,,,,,,,,,,,,,,,,,,,,,,,,,,,,,,,,,,,,,,,,,,,,,,,,,,,,,,,,,,,,,,,,,,,,,,,,,,,,,
,582545690541,BAC,22/12/1999,001,2023-04-07_17h10.22.279,OS3_Mult_verification,2022.2.4,Win32,30.00480077,,,28,1.631,1,"[""2"",""8"",""return""]","[1.0068999999999022,1.1025999999999812,1.5420000000000016]",0,1,1,15,1,28,,,,,,,,,,,,,,,,,,,,,,,,,,,,,,,,,,,,,,,,,,,,,,,,,,,,,,,,,,,,,,,,,,,,,,,,,,,,,,,,,,,,,,,,,,,,,,,,,,,,,,,,,,,,,,,,,,,,,,,,,,,,,,,,,,,,,,,,,,,,,,,,,,,,,,,,,,,,,,,,,
,582545690541,BAC,22/12/1999,001,2023-04-07_17h10.22.279,OS3_Mult_verification,2022.2.4,Win32,30.00480077,,,4,1.4883,1,"[""4"",""return""]","[0.9704000000000264,1.3990999999999758]",0,2,2,0,1,4,,,,,,,,,,,,,,,,,,,,,,,,,,,,,,,,,,,,,,,,,,,,,,,,,,,,,,,,,,,,,,,,,,,,,,,,,,,,,,,,,,,,,,,,,,,,,,,,,,,,,,,,,,,,,,,,,,,,,,,,,,,,,,,,,,,,,,,,,,,,,,,,,,,,,,,,,,,,,,,,,
,582545690541,BAC,22/12/1999,001,2023-04-07_17h10.22.279,OS3_Mult_verification,2022.2.4,Win32,30.00480077,,,18,1.2601,1,"[""1"",""8"",""return""]","[0.6833000000000453,1.020600000000087,1.1744000000000199]",0,3,3,9,1,18,,,,,,,,,,,,,,,,,,,,,,,,,,,,,,,,,,,,,,,,,,,,,,,,,,,,,,,,,,,,,,,,,,,,,,,,,,,,,,,,,,,,,,,,,,,,,,,,,,,,,,,,,,,,,,,,,,,,,,,,,,,,,,,,,,,,,,,,,,,,,,,,,,,,,,,,,,,,,,,,,
,582545690541,BAC,22/12/1999,001,2023-04-07_17h10.22.279,OS3_Mult_verification,2022.2.4,Win32,30.00480077,,,21,1.1586,1,"[""2"",""1"",""return""]","[0.7830999999999761,0.8299999999999983,1.0689999999999884]",0,4,4,11,1,21,,,,,,,,,,,,,,,,,,,,,,,,,,,,,,,,,,,,,,,,,,,,,,,,,,,,,,,,,,,,,,,,,,,,,,,,,,,,,,,,,,,,,,,,,,,,,,,,,,,,,,,,,,,,,,,,,,,,,,,,,,,,,,,,,,,,,,,,,,,,,,,,,,,,,,,,,,,,,,,,,
,582545690541,BAC,22/12/1999,001,2023-04-07_17h10.22.279,OS3_Mult_verification,2022.2.4,Win32,30.00480077,,,72,1.7366,1,"[""7"",""2"",""return""]","[1.021599999999978,1.3627999999999219,1.6449000000000211]",0,5,5,29,1,72,,,,,,,,,,,,,,,,,,,,,,,,,,,,,,,,,,,,,,,,,,,,,,,,,,,,,,,,,,,,,,,,,,,,,,,,,,,,,,,,,,,,,,,,,,,,,,,,,,,,,,,,,,,,,,,,,,,,,,,,,,,,,,,,,,,,,,,,,,,,,,,,,,,,,,,,,,,,,,,,,
,582545690541,BAC,22/12/1999,001,2023-04-07_17h10.22.279,OS3_Mult_verification,2022.2.4,Win32,30.00480077,,,25,1.3469,1,"[""2"",""5"",""return""]","[0.8212000000000614,1.0613000000000454,1.2555999999999727]",0,6,6,13,1,25,,,,,,,,,,,,,,,,,,,,,,,,,,,,,,,,,,,,,,,,,,,,,,,,,,,,,,,,,,,,,,,,,,,,,,,,,,,,,,,,,,,,,,,,,,,,,,,,,,,,,,,,,,,,,,,,,,,,,,,,,,,,,,,,,,,,,,,,,,,,,,,,,,,,,,,,,,,,,,,,,
,582545690541,BAC,22/12/1999,001,2023-04-07_17h10.22.279,OS3_Mult_verification,2022.2.4,Win32,30.00480077,,,32,1.2263,1,"[""3"",""2"",""return""]","[0.7884000000000242,0.8883000000000578,1.1384000000000327]",0,7,7,17,1,32,,,,,,,,,,,,,,,,,,,,,,,,,,,,,,,,,,,,,,,,,,,,,,,,,,,,,,,,,,,,,,,,,,,,,,,,,,,,,,,,,,,,,,,,,,,,,,,,,,,,,,,,,,,,,,,,,,,,,,,,,,,,,,,,,,,,,,,,,,,,,,,,,,,,,,,,,,,,,,,,,
,582545690541,BAC,22/12/1999,001,2023-04-07_17h10.22.279,OS3_Mult_verification,2022.2.4,Win32,30.00480077,,,81,1.8175,1,"[""8"",""1"",""return""]","[1.1062999999999334,1.4898999999999063,1.729099999999974]",0,8,8,30,1,81,,,,,,,,,,,,,,,,,,,,,,,,,,,,,,,,,,,,,,,,,,,,,,,,,,,,,,,,,,,,,,,,,,,,,,,,,,,,,,,,,,,,,,,,,,,,,,,,,,,,,,,,,,,,,,,,,,,,,,,,,,,,,,,,,,,,,,,,,,,,,,,,,,,,,,,,,,,,,,,,,
,582545690541,BAC,22/12/1999,001,2023-04-07_17h10.22.279,OS3_Mult_verification,2022.2.4,Win32,30.00480077,,,42,1.6004,1,"[""4"",""2"",""return""]","[0.9843999999999085,1.131299999999925,1.5120999999999754]",0,9,9,21,1,42,,,,,,,,,,,,,,,,,,,,,,,,,,,,,,,,,,,,,,,,,,,,,,,,,,,,,,,,,,,,,,,,,,,,,,,,,,,,,,,,,,,,,,,,,,,,,,,,,,,,,,,,,,,,,,,,,,,,,,,,,,,,,,,,,,,,,,,,,,,,,,,,,,,,,,,,,,,,,,,,,
,582545690541,BAC,22/12/1999,001,2023-04-07_17h10.22.279,OS3_Mult_verification,2022.2.4,Win32,30.00480077,,,16,1.4622,1,"[""1"",""6"",""return""]","[0.7339000000000198,1.0230999999999852,1.3714999999999975]",0,10,10,8,1,16,,,,,,,,,,,,,,,,,,,,,,,,,,,,,,,,,,,,,,,,,,,,,,,,,,,,,,,,,,,,,,,,,,,,,,,,,,,,,,,,,,,,,,,,,,,,,,,,,,,,,,,,,,,,,,,,,,,,,,,,,,,,,,,,,,,,,,,,,,,,,,,,,,,,,,,,,,,,,,,,,
,582545690541,BAC,22/12/1999,001,2023-04-07_17h10.22.279,OS3_Mult_verification,2022.2.4,Win32,30.00480077,,,27,1.6522,1,"[""2"",""7"",""return""]","[0.7845999999999833,1.1800000000000068,1.564099999999982]",0,11,11,14,1,27,,,,,,,,,,,,,,,,,,,,,,,,,,,,,,,,,,,,,,,,,,,,,,,,,,,,,,,,,,,,,,,,,,,,,,,,,,,,,,,,,,,,,,,,,,,,,,,,,,,,,,,,,,,,,,,,,,,,,,,,,,,,,,,,,,,,,,,,,,,,,,,,,,,,,,,,,,,,,,,,,
,582545690541,BAC,22/12/1999,001,2023-04-07_17h10.22.279,OS3_Mult_verification,2022.2.4,Win32,30.00480077,,,20,1.5478,1,"[""2"",""0"",""return""]","[0.7049999999999983,1.111800000000045,1.4572000000000713]",0,12,12,10,1,20,,,,,,,,,,,,,,,,,,,,,,,,,,,,,,,,,,,,,,,,,,,,,,,,,,,,,,,,,,,,,,,,,,,,,,,,,,,,,,,,,,,,,,,,,,,,,,,,,,,,,,,,,,,,,,,,,,,,,,,,,,,,,,,,,,,,,,,,,,,,,,,,,,,,,,,,,,,,,,,,,
,582545690541,BAC,22/12/1999,001,2023-04-07_17h10.22.279,OS3_Mult_verification,2022.2.4,Win32,30.00480077,,,45,1.4701,1,"[""4"",""5"",""return""]","[0.8740000000000094,0.9240000000000066,1.3775999999999868]",0,13,13,22,1,45,,,,,,,,,,,,,,,,,,,,,,,,,,,,,,,,,,,,,,,,,,,,,,,,,,,,,,,,,,,,,,,,,,,,,,,,,,,,,,,,,,,,,,,,,,,,,,,,,,,,,,,,,,,,,,,,,,,,,,,,,,,,,,,,,,,,,,,,,,,,,,,,,,,,,,,,,,,,,,,,,
,582545690541,BAC,22/12/1999,001,2023-04-07_17h10.22.279,OS3_Mult_verification,2022.2.4,Win32,30.00480077,,,12,1.3061,1,"[""1"",""2"",""return""]","[0.7464999999999975,0.8503999999999081,1.2123999999999029]",0,14,14,5,1,12,,,,,,,,,,,,,,,,,,,,,,,,,,,,,,,,,,,,,,,,,,,,,,,,,,,,,,,,,,,,,,,,,,,,,,,,,,,,,,,,,,,,,,,,,,,,,,,,,,,,,,,,,,,,,,,,,,,,,,,,,,,,,,,,,,,,,,,,,,,,,,,,,,,,,,,,,,,,,,,,,
,582545690541,BAC,22/12/1999,001,2023-04-07_17h10.22.279,OS3_Mult_verification,2022.2.4,Win32,30.00480077,,,56,1.696,1,"[""5"",""6"",""return""]","[1.0915999999999713,1.194300000000041,1.600999999999999]",0,15,15,26,1,56,,,,,,,,,,,,,,,,,,,,,,,,,,,,,,,,,,,,,,,,,,,,,,,,,,,,,,,,,,,,,,,,,,,,,,,,,,,,,,,,,,,,,,,,,,,,,,,,,,,,,,,,,,,,,,,,,,,,,,,,,,,,,,,,,,,,,,,,,,,,,,,,,,,,,,,,,,,,,,,,,
,582545690541,BAC,22/12/1999,001,2023-04-07_17h10.22.279,OS3_Mult_verification,2022.2.4,Win32,30.00480077,,,24,1.4713,1,"[""2"",""4"",""return""]","[0.8373000000000417,0.9400999999999726,1.3783000000000385]",0,16,16,12,1,24,,,,,,,,,,,,,,,,,,,,,,,,,,,,,,,,,,,,,,,,,,,,,,,,,,,,,,,,,,,,,,,,,,,,,,,,,,,,,,,,,,,,,,,,,,,,,,,,,,,,,,,,,,,,,,,,,,,,,,,,,,,,,,,,,,,,,,,,,,,,,,,,,,,,,,,,,,,,,,,,,
,582545690541,BAC,22/12/1999,001,2023-04-07_17h10.22.279,OS3_Mult_verification,2022.2.4,Win32,30.00480077,,,9,1.4538,1,"[""9"",""return""]","[0.9824000000000268,1.3582999999999288]",0,17,17,3,1,9,,,,,,,,,,,,,,,,,,,,,,,,,,,,,,,,,,,,,,,,,,,,,,,,,,,,,,,,,,,,,,,,,,,,,,,,,,,,,,,,,,,,,,,,,,,,,,,,,,,,,,,,,,,,,,,,,,,,,,,,,,,,,,,,,,,,,,,,,,,,,,,,,,,,,,,,,,,,,,,,,
,582545690541,BAC,22/12/1999,001,2023-04-07_17h10.22.279,OS3_Mult_verification,2022.2.4,Win32,30.00480077,,,10,1.5112,1,"[""1"",""0"",""return""]","[0.7048000000000485,1.1079999999999899,1.4153000000000446]",0,18,18,4,1,10,,,,,,,,,,,,,,,,,,,,,,,,,,,,,,,,,,,,,,,,,,,,,,,,,,,,,,,,,,,,,,,,,,,,,,,,,,,,,,,,,,,,,,,,,,,,,,,,,,,,,,,,,,,,,,,,,,,,,,,,,,,,,,,,,,,,,,,,,,,,,,,,,,,,,,,,,,,,,,,,,
,582545690541,BAC,22/12/1999,001,2023-04-07_17h10.22.279,OS3_Mult_verification,2022.2.4,Win32,30.00480077,,,40,1.6753,1,"[""4"",""0"",""return""]","[0.8158000000000527,1.1715999999999838,1.5812000000000808]",0,19,19,20,1,40,,,,,,,,,,,,,,,,,,,,,,,,,,,,,,,,,,,,,,,,,,,,,,,,,,,,,,,,,,,,,,,,,,,,,,,,,,,,,,,,,,,,,,,,,,,,,,,,,,,,,,,,,,,,,,,,,,,,,,,,,,,,,,,,,,,,,,,,,,,,,,,,,,,,,,,,,,,,,,,,,
,582545690541,BAC,22/12/1999,001,2023-04-07_17h10.22.279,OS3_Mult_verification,2022.2.4,Win32,30.00480077,,,64,1.6613,1,"[""6"",""4"",""return""]","[0.9098000000000468,1.1147000000000702,1.5698000000000434]",0,20,20,28,1,64,,,,,,,,,,,,,,,,,,,,,,,,,,,,,,,,,,,,,,,,,,,,,,,,,,,,,,,,,,,,,,,,,,,,,,,,,,,,,,,,,,,,,,,,,,,,,,,,,,,,,,,,,,,,,,,,,,,,,,,,,,,,,,,,,,,,,,,,,,,,,,,,,,,,,,,,,,,,,,,,,
,582545690541,BAC,22/12/1999,001,2023-04-07_17h10.22.279,OS3_Mult_verification,2022.2.4,Win32,30.00480077,,,54,1.5019,1,"[""5"",""4"",""return""]","[0.8547999999999263,0.9589000000000283,1.4085999999999785]",0,21,21,25,1,54,,,,,,,,,,,,,,,,,,,,,,,,,,,,,,,,,,,,,,,,,,,,,,,,,,,,,,,,,,,,,,,,,,,,,,,,,,,,,,,,,,,,,,,,,,,,,,,,,,,,,,,,,,,,,,,,,,,,,,,,,,,,,,,,,,,,,,,,,,,,,,,,,,,,,,,,,,,,,,,,,
,582545690541,BAC,22/12/1999,001,2023-04-07_17h10.22.279,OS3_Mult_verification,2022.2.4,Win32,30.00480077,,,49,1.8167,1,"[""4"",""9"",""return""]","[0.9221999999999753,1.2253000000000611,1.7226999999999748]",0,22,22,24,1,49,,,,,,,,,,,,,,,,,,,,,,,,,,,,,,,,,,,,,,,,,,,,,,,,,,,,,,,,,,,,,,,,,,,,,,,,,,,,,,,,,,,,,,,,,,,,,,,,,,,,,,,,,,,,,,,,,,,,,,,,,,,,,,,,,,,,,,,,,,,,,,,,,,,,,,,,,,,,,,,,,
,582545690541,BAC,22/12/1999,001,2023-04-07_17h10.22.279,OS3_Mult_verification,2022.2.4,Win32,30.00480077,,,6,1.3775,1,"[""6"",""return""]","[0.8663000000000523,1.2789000000000215]",0,23,23,1,1,6,,,,,,,,,,,,,,,,,,,,,,,,,,,,,,,,,,,,,,,,,,,,,,,,,,,,,,,,,,,,,,,,,,,,,,,,,,,,,,,,,,,,,,,,,,,,,,,,,,,,,,,,,,,,,,,,,,,,,,,,,,,,,,,,,,,,,,,,,,,,,,,,,,,,,,,,,,,,,,,,,
,582545690541,BAC,22/12/1999,001,2023-04-07_17h10.22.279,OS3_Mult_verification,2022.2.4,Win32,30.00480077,,,8,1.6485,1,"[""8"",""return""]","[1.0326000000000022,1.5537999999999386]",0,24,24,2,1,8,,,,,,,,,,,,,,,,,,,,,,,,,,,,,,,,,,,,,,,,,,,,,,,,,,,,,,,,,,,,,,,,,,,,,,,,,,,,,,,,,,,,,,,,,,,,,,,,,,,,,,,,,,,,,,,,,,,,,,,,,,,,,,,,,,,,,,,,,,,,,,,,,,,,,,,,,,,,,,,,,
,582545690541,BAC,22/12/1999,001,2023-04-07_17h10.22.279,OS3_Mult_verification,2022.2.4,Win32,30.00480077,,,48,1.5619,1,"[""4"",""8"",""return""]","[0.8048999999999893,1.1107999999999123,1.469599999999943]",0,25,25,23,1,48,,,,,,,,,,,,,,,,,,,,,,,,,,,,,,,,,,,,,,,,,,,,,,,,,,,,,,,,,,,,,,,,,,,,,,,,,,,,,,,,,,,,,,,,,,,,,,,,,,,,,,,,,,,,,,,,,,,,,,,,,,,,,,,,,,,,,,,,,,,,,,,,,,,,,,,,,,,,,,,,,
,582545690541,BAC,22/12/1999,001,2023-04-07_17h10.22.279,OS3_Mult_verification,2022.2.4,Win32,30.00480077,,,15,1.562,1,"[""1"",""5"",""return""]","[0.7595999999999776,1.0109999999999957,1.4651999999999532]",0,26,26,7,1,15,,,,,,,,,,,,,,,,,,,,,,,,,,,,,,,,,,,,,,,,,,,,,,,,,,,,,,,,,,,,,,,,,,,,,,,,,,,,,,,,,,,,,,,,,,,,,,,,,,,,,,,,,,,,,,,,,,,,,,,,,,,,,,,,,,,,,,,,,,,,,,,,,,,,,,,,,,,,,,,,,
,582545690541,BAC,22/12/1999,001,2023-04-07_17h10.22.279,OS3_Mult_verification,2022.2.4,Win32,30.00480077,,,35,1.338,1,"[""3"",""5"",""return""]","[0.7604000000000326,0.9200000000000159,1.2366999999999564]",0,27,27,18,1,35,,,,,,,,,,,,,,,,,,,,,,,,,,,,,,,,,,,,,,,,,,,,,,,,,,,,,,,,,,,,,,,,,,,,,,,,,,,,,,,,,,,,,,,,,,,,,,,,,,,,,,,,,,,,,,,,,,,,,,,,,,,,,,,,,,,,,,,,,,,,,,,,,,,,,,,,,,,,,,,,,
,582545690541,BAC,22/12/1999,001,2023-04-07_17h10.22.279,OS3_Mult_verification,2022.2.4,Win32,30.00480077,,,30,1.5188,1,"[""3"",""0"",""return""]","[0.865900000000039,1.2259000000000242,1.427599999999984]",0,28,28,16,1,30,,,,,,,,,,,,,,,,,,,,,,,,,,,,,,,,,,,,,,,,,,,,,,,,,,,,,,,,,,,,,,,,,,,,,,,,,,,,,,,,,,,,,,,,,,,,,,,,,,,,,,,,,,,,,,,,,,,,,,,,,,,,,,,,,,,,,,,,,,,,,,,,,,,,,,,,,,,,,,,,,
,582545690541,BAC,22/12/1999,001,2023-04-07_17h10.22.279,OS3_Mult_verification,2022.2.4,Win32,30.00480077,,,36,1.4905,1,"[""3"",""6"",""return""]","[0.9206999999999539,1.1265000000000214,1.398900000000026]",0,29,29,19,1,36,,,,,,,,,,,,,,,,,,,,,,,,,,,,,,,,,,,,,,,,,,,,,,,,,,,,,,,,,,,,,,,,,,,,,,,,,,,,,,,,,,,,,,,,,,,,,,,,,,,,,,,,,,,,,,,,,,,,,,,,,,,,,,,,,,,,,,,,,,,,,,,,,,,,,,,,,,,,,,,,,
,582545690541,BAC,22/12/1999,001,2023-04-07_17h10.22.279,OS3_Mult_verification,2022.2.4,Win32,30.00480077,,,14,1.4133,1,"[""1"",""4"",""return""]","[0.8208000000000482,1.0219000000000165,1.3236000000000843]",0,30,30,6,1,14,,,,,,,,,,,,,,,,,,,,,,,,,,,,,,,,,,,,,,,,,,,,,,,,,,,,,,,,,,,,,,,,,,,,,,,,,,,,,,,,,,,,,,,,,,,,,,,,,,,,,,,,,,,,,,,,,,,,,,,,,,,,,,,,,,,,,,,,,,,,,,,,,,,,,,,,,,,,,,,,,
,582545690541,BAC,22/12/1999,001,2023-04-07_17h10.22.279,OS3_Mult_verification,2022.2.4,Win32,30.00480077,,,35,1.416,1,"[""3"",""5"",""return""]","[0.8072000000000799,0.9677000000000646,1.3220000000000027]",1,0,31,18,1,35,,,,,,,,,,,,,,,,,,,,,,,,,,,,,,,,,,,,,,,,,,,,,,,,,,,,,,,,,,,,,,,,,,,,,,,,,,,,,,,,,,,,,,,,,,,,,,,,,,,,,,,,,,,,,,,,,,,,,,,,,,,,,,,,,,,,,,,,,,,,,,,,,,,,,,,,,,,,,,,,,
,582545690541,BAC,22/12/1999,001,2023-04-07_17h10.22.279,OS3_Mult_verification,2022.2.4,Win32,30.00480077,,,10,1.4253,1,"[""1"",""0"",""return""]","[0.6623000000000445,1.0720000000000027,1.3324000000000353]",1,1,32,4,1,10,,,,,,,,,,,,,,,,,,,,,,,,,,,,,,,,,,,,,,,,,,,,,,,,,,,,,,,,,,,,,,,,,,,,,,,,,,,,,,,,,,,,,,,,,,,,,,,,,,,,,,,,,,,,,,,,,,,,,,,,,,,,,,,,,,,,,,,,,,,,,,,,,,,,,,,,,,,,,,,,,
,582545690541,BAC,22/12/1999,001,2023-04-07_17h10.22.279,OS3_Mult_verification,2022.2.4,Win32,30.00480077,,,16,1.6222,1,"[""1"",""6"",""return""]","[0.767599999999959,1.072300000000041,1.5267000000000621]",1,2,33,8,1,16,,,,,,,,,,,,,,,,,,,,,,,,,,,,,,,,,,,,,,,,,,,,,,,,,,,,,,,,,,,,,,,,,,,,,,,,,,,,,,,,,,,,,,,,,,,,,,,,,,,,,,,,,,,,,,,,,,,,,,,,,,,,,,,,,,,,,,,,,,,,,,,,,,,,,,,,,,,,,,,,,
,582545690541,BAC,22/12/1999,001,2023-04-07_17h10.22.279,OS3_Mult_verification,2022.2.4,Win32,30.00480077,,,81,1.7157,1,"[""8"",""1"",""return""]","[0.9105999999999597,1.2596999999999525,1.6196999999999377]",1,3,34,30,1,81,,,,,,,,,,,,,,,,,,,,,,,,,,,,,,,,,,,,,,,,,,,,,,,,,,,,,,,,,,,,,,,,,,,,,,,,,,,,,,,,,,,,,,,,,,,,,,,,,,,,,,,,,,,,,,,,,,,,,,,,,,,,,,,,,,,,,,,,,,,,,,,,,,,,,,,,,,,,,,,,,
,582545690541,BAC,22/12/1999,001,2023-04-07_17h10.22.279,OS3_Mult_verification,2022.2.4,Win32,30.00480077,,,27,1.5399,1,"[""2"",""7"",""return""]","[0.7495999999999583,1.0985000000000014,1.4470999999999776]",1,4,35,14,1,27,,,,,,,,,,,,,,,,,,,,,,,,,,,,,,,,,,,,,,,,,,,,,,,,,,,,,,,,,,,,,,,,,,,,,,,,,,,,,,,,,,,,,,,,,,,,,,,,,,,,,,,,,,,,,,,,,,,,,,,,,,,,,,,,,,,,,,,,,,,,,,,,,,,,,,,,,,,,,,,,,
,582545690541,BAC,22/12/1999,001,2023-04-07_17h10.22.279,OS3_Mult_verification,2022.2.4,Win32,30.00480077,,,6,1.2792,1,"[""6"",""return""]","[0.8713000000000477,1.1806999999999732]",1,5,36,1,1,6,,,,,,,,,,,,,,,,,,,,,,,,,,,,,,,,,,,,,,,,,,,,,,,,,,,,,,,,,,,,,,,,,,,,,,,,,,,,,,,,,,,,,,,,,,,,,,,,,,,,,,,,,,,,,,,,,,,,,,,,,,,,,,,,,,,,,,,,,,,,,,,,,,,,,,,,,,,,,,,,,
,582545690541,BAC,22/12/1999,001,2023-04-07_17h10.22.279,OS3_Mult_verification,2022.2.4,Win32,30.00480077,,,64,1.4774,1,"[""6"",""4"",""return""]","[0.870200000000068,1.0238000000000511,1.3804999999999836]",1,6,37,28,1,64,,,,,,,,,,,,,,,,,,,,,,,,,,,,,,,,,,,,,,,,,,,,,,,,,,,,,,,,,,,,,,,,,,,,,,,,,,,,,,,,,,,,,,,,,,,,,,,,,,,,,,,,,,,,,,,,,,,,,,,,,,,,,,,,,,,,,,,,,,,,,,,,,,,,,,,,,,,,,,,,,
,582545690541,BAC,22/12/1999,001,2023-04-07_17h10.22.279,OS3_Mult_verification,2022.2.4,Win32,30.00480077,,,63,1.7589,1,"[""6"",""3"",""return""]","[1.1149000000000342,1.3657000000000892,1.6665000000000134]",1,7,38,27,1,63,,,,,,,,,,,,,,,,,,,,,,,,,,,,,,,,,,,,,,,,,,,,,,,,,,,,,,,,,,,,,,,,,,,,,,,,,,,,,,,,,,,,,,,,,,,,,,,,,,,,,,,,,,,,,,,,,,,,,,,,,,,,,,,,,,,,,,,,,,,,,,,,,,,,,,,,,,,,,,,,,
,582545690541,BAC,22/12/1999,001,2023-04-07_17h10.22.279,OS3_Mult_verification,2022.2.4,Win32,30.00480077,,,24,1.5206,1,"[""2"",""4"",""return""]","[0.6748999999998944,0.9273999999998921,1.42969999999994]",1,8,39,12,1,24,,,,,,,,,,,,,,,,,,,,,,,,,,,,,,,,,,,,,,,,,,,,,,,,,,,,,,,,,,,,,,,,,,,,,,,,,,,,,,,,,,,,,,,,,,,,,,,,,,,,,,,,,,,,,,,,,,,,,,,,,,,,,,,,,,,,,,,,,,,,,,,,,,,,,,,,,,,,,,,,,
,582545690541,BAC,22/12/1999,001,2023-04-07_17h10.22.279,OS3_Mult_verification,2022.2.4,Win32,30.00480077,,,48,1.7715,1,"[""4"",""8"",""return""]","[0.9272999999999172,1.332799999999935,1.6812999999999363]",1,9,40,23,1,48,,,,,,,,,,,,,,,,,,,,,,,,,,,,,,,,,,,,,,,,,,,,,,,,,,,,,,,,,,,,,,,,,,,,,,,,,,,,,,,,,,,,,,,,,,,,,,,,,,,,,,,,,,,,,,,,,,,,,,,,,,,,,,,,,,,,,,,,,,,,,,,,,,,,,,,,,,,,,,,,,
,582545690541,BAC,22/12/1999,001,2023-04-07_17h10.22.279,OS3_Mult_verification,2022.2.4,Win32,30.00480077,,,4,1.3256,1,"[""4"",""return""]","[0.8173000000000457,1.2337000000000842]",1,10,41,0,1,4,,,,,,,,,,,,,,,,,,,,,,,,,,,,,,,,,,,,,,,,,,,,,,,,,,,,,,,,,,,,,,,,,,,,,,,,,,,,,,,,,,,,,,,,,,,,,,,,,,,,,,,,,,,,,,,,,,,,,,,,,,,,,,,,,,,,,,,,,,,,,,,,,,,,,,,,,,,,,,,,,
,582545690541,BAC,22/12/1999,001,2023-04-07_17h10.22.279,OS3_Mult_verification,2022.2.4,Win32,30.00480077,,,25,1.4684,1,"[""2"",""5"",""return""]","[0.8104999999999905,1.015400000000028,1.3736000000000956]",1,11,42,13,1,25,,,,,,,,,,,,,,,,,,,,,,,,,,,,,,,,,,,,,,,,,,,,,,,,,,,,,,,,,,,,,,,,,,,,,,,,,,,,,,,,,,,,,,,,,,,,,,,,,,,,,,,,,,,,,,,,,,,,,,,,,,,,,,,,,,,,,,,,,,,,,,,,,,,,,,,,,,,,,,,,,
,582545690541,BAC,22/12/1999,001,2023-04-07_17h10.22.279,OS3_Mult_verification,2022.2.4,Win32,30.00480077,,,21,1.2084,1,"[""2"",""1"",""return""]","[0.7098999999999194,0.8100999999999772,1.1176999999999566]",1,12,43,11,1,21,,,,,,,,,,,,,,,,,,,,,,,,,,,,,,,,,,,,,,,,,,,,,,,,,,,,,,,,,,,,,,,,,,,,,,,,,,,,,,,,,,,,,,,,,,,,,,,,,,,,,,,,,,,,,,,,,,,,,,,,,,,,,,,,,,,,,,,,,,,,,,,,,,,,,,,,,,,,,,,,,
,582545690541,BAC,22/12/1999,001,2023-04-07_17h10.22.279,OS3_Mult_verification,2022.2.4,Win32,30.00480077,,,42,1.5045,1,"[""4"",""2"",""return""]","[0.9114000000000146,1.0124000000000137,1.4137999999999238]",1,13,44,21,1,42,,,,,,,,,,,,,,,,,,,,,,,,,,,,,,,,,,,,,,,,,,,,,,,,,,,,,,,,,,,,,,,,,,,,,,,,,,,,,,,,,,,,,,,,,,,,,,,,,,,,,,,,,,,,,,,,,,,,,,,,,,,,,,,,,,,,,,,,,,,,,,,,,,,,,,,,,,,,,,,,,
,582545690541,BAC,22/12/1999,001,2023-04-07_17h10.22.279,OS3_Mult_verification,2022.2.4,Win32,30.00480077,,,36,1.4659,1,"[""3"",""6"",""return""]","[0.8151999999999475,1.065799999999939,1.36790000000002]",1,14,45,19,1,36,,,,,,,,,,,,,,,,,,,,,,,,,,,,,,,,,,,,,,,,,,,,,,,,,,,,,,,,,,,,,,,,,,,,,,,,,,,,,,,,,,,,,,,,,,,,,,,,,,,,,,,,,,,,,,,,,,,,,,,,,,,,,,,,,,,,,,,,,,,,,,,,,,,,,,,,,,,,,,,,,
,582545690541,BAC,22/12/1999,001,2023-04-07_17h10.22.279,OS3_Mult_verification,2022.2.4,Win32,30.00480077,,,20,1.6104,1,"[""2"",""0"",""return""]","[0.9114000000000146,1.2648000000000366,1.519200000000069]",1,15,46,10,1,20,,,,,,,,,,,,,,,,,,,,,,,,,,,,,,,,,,,,,,,,,,,,,,,,,,,,,,,,,,,,,,,,,,,,,,,,,,,,,,,,,,,,,,,,,,,,,,,,,,,,,,,,,,,,,,,,,,,,,,,,,,,,,,,,,,,,,,,,,,,,,,,,,,,,,,,,,,,,,,,,,
,582545690541,BAC,22/12/1999,001,2023-04-07_17h10.22.279,OS3_Mult_verification,2022.2.4,Win32,30.00480077,,,40,1.6098,1,"[""4"",""0"",""return""]","[0.8546000000001186,1.1562000000000694,1.5159000000000447]",1,16,47,20,1,40,,,,,,,,,,,,,,,,,,,,,,,,,,,,,,,,,,,,,,,,,,,,,,,,,,,,,,,,,,,,,,,,,,,,,,,,,,,,,,,,,,,,,,,,,,,,,,,,,,,,,,,,,,,,,,,,,,,,,,,,,,,,,,,,,,,,,,,,,,,,,,,,,,,,,,,,,,,,,,,,,
,582545690541,BAC,22/12/1999,001,2023-04-07_17h10.22.279,OS3_Mult_verification,2022.2.4,Win32,30.00480077,,,72,1.8042,1,"[""7"",""2"",""return""]","[0.9550000000000125,1.313999999999993,1.7125999999999806]",1,17,48,29,1,72,,,,,,,,,,,,,,,,,,,,,,,,,,,,,,,,,,,,,,,,,,,,,,,,,,,,,,,,,,,,,,,,,,,,,,,,,,,,,,,,,,,,,,,,,,,,,,,,,,,,,,,,,,,,,,,,,,,,,,,,,,,,,,,,,,,,,,,,,,,,,,,,,,,,,,,,,,,,,,,,,
,582545690541,BAC,22/12/1999,001,2023-04-07_17h10.22.279,OS3_Mult_verification,2022.2.4,Win32,30.00480077,,,8,1.5118,1,"[""8"",""return""]","[0.9119000000000312,1.4177999999999145]",1,18,49,2,1,8,,,,,,,,,,,,,,,,,,,,,,,,,,,,,,,,,,,,,,,,,,,,,,,,,,,,,,,,,,,,,,,,,,,,,,,,,,,,,,,,,,,,,,,,,,,,,,,,,,,,,,,,,,,,,,,,,,,,,,,,,,,,,,,,,,,,,,,,,,,,,,,,,,,,,,,,,,,,,,,,,
,582545690541,BAC,22/12/1999,001,2023-04-07_17h10.22.279,OS3_Mult_verification,2022.2.4,Win32,30.00480077,,,14,1.4415,1,"[""1"",""4"",""return""]","[0.7666999999999575,0.9786000000000001,1.3479000000000383]",1,19,50,6,1,14,,,,,,,,,,,,,,,,,,,,,,,,,,,,,,,,,,,,,,,,,,,,,,,,,,,,,,,,,,,,,,,,,,,,,,,,,,,,,,,,,,,,,,,,,,,,,,,,,,,,,,,,,,,,,,,,,,,,,,,,,,,,,,,,,,,,,,,,,,,,,,,,,,,,,,,,,,,,,,,,,
,582545690541,BAC,22/12/1999,001,2023-04-07_17h10.22.279,OS3_Mult_verification,2022.2.4,Win32,30.00480077,,,32,1.4173,1,"[""3"",""2"",""return""]","[0.8637999999999124,0.9673999999999126,1.321599999999961]",1,20,51,17,1,32,,,,,,,,,,,,,,,,,,,,,,,,,,,,,,,,,,,,,,,,,,,,,,,,,,,,,,,,,,,,,,,,,,,,,,,,,,,,,,,,,,,,,,,,,,,,,,,,,,,,,,,,,,,,,,,,,,,,,,,,,,,,,,,,,,,,,,,,,,,,,,,,,,,,,,,,,,,,,,,,,
,582545690541,BAC,22/12/1999,001,2023-04-07_17h10.22.279,OS3_Mult_verification,2022.2.4,Win32,30.00480077,,,9,1.4705,1,"[""9"",""return""]","[0.9244000000000483,1.3775000000000261]",1,21,52,3,1,9,,,,,,,,,,,,,,,,,,,,,,,,,,,,,,,,,,,,,,,,,,,,,,,,,,,,,,,,,,,,,,,,,,,,,,,,,,,,,,,,,,,,,,,,,,,,,,,,,,,,,,,,,,,,,,,,,,,,,,,,,,,,,,,,,,,,,,,,,,,,,,,,,,,,,,,,,,,,,,,,,
,582545690541,BAC,22/12/1999,001,2023-04-07_17h10.22.279,OS3_Mult_verification,2022.2.4,Win32,30.00480077,,,18,1.6184,1,"[""1"",""8"",""return""]","[0.770600000000087,1.120200000000068,1.5257000000000573]",1,22,53,9,1,18,,,,,,,,,,,,,,,,,,,,,,,,,,,,,,,,,,,,,,,,,,,,,,,,,,,,,,,,,,,,,,,,,,,,,,,,,,,,,,,,,,,,,,,,,,,,,,,,,,,,,,,,,,,,,,,,,,,,,,,,,,,,,,,,,,,,,,,,,,,,,,,,,,,,,,,,,,,,,,,,,
,582545690541,BAC,22/12/1999,001,2023-04-07_17h10.22.279,OS3_Mult_verification,2022.2.4,Win32,30.00480077,,,56,1.4082,1,"[""5"",""6"",""return""]","[0.8173000000000457,0.9185999999999694,1.3172000000000708]",1,23,54,26,1,56,,,,,,,,,,,,,,,,,,,,,,,,,,,,,,,,,,,,,,,,,,,,,,,,,,,,,,,,,,,,,,,,,,,,,,,,,,,,,,,,,,,,,,,,,,,,,,,,,,,,,,,,,,,,,,,,,,,,,,,,,,,,,,,,,,,,,,,,,,,,,,,,,,,,,,,,,,,,,,,,,
,582545690541,BAC,22/12/1999,001,2023-04-07_17h10.22.279,OS3_Mult_verification,2022.2.4,Win32,30.00480077,,,49,1.7288,1,"[""4"",""9"",""return""]","[0.919099999999986,1.2249000000000194,1.6329000000000349]",1,24,55,24,1,49,,,,,,,,,,,,,,,,,,,,,,,,,,,,,,,,,,,,,,,,,,,,,,,,,,,,,,,,,,,,,,,,,,,,,,,,,,,,,,,,,,,,,,,,,,,,,,,,,,,,,,,,,,,,,,,,,,,,,,,,,,,,,,,,,,,,,,,,,,,,,,,,,,,,,,,,,,,,,,,,,
,582545690541,BAC,22/12/1999,001,2023-04-07_17h10.22.279,OS3_Mult_verification,2022.2.4,Win32,30.00480077,,,30,1.6694,1,"[""3"",""0"",""return""]","[0.7279000000000337,1.1280000000000143,1.577900000000028]",1,25,56,16,1,30,,,,,,,,,,,,,,,,,,,,,,,,,,,,,,,,,,,,,,,,,,,,,,,,,,,,,,,,,,,,,,,,,,,,,,,,,,,,,,,,,,,,,,,,,,,,,,,,,,,,,,,,,,,,,,,,,,,,,,,,,,,,,,,,,,,,,,,,,,,,,,,,,,,,,,,,,,,,,,,,,
,582545690541,BAC,22/12/1999,001,2023-04-07_17h10.22.279,OS3_Mult_verification,2022.2.4,Win32,30.00480077,,,54,1.5612,1,"[""5"",""4"",""return""]","[0.9607999999999493,1.0655999999999892,1.4691999999999723]",1,26,57,25,1,54,,,,,,,,,,,,,,,,,,,,,,,,,,,,,,,,,,,,,,,,,,,,,,,,,,,,,,,,,,,,,,,,,,,,,,,,,,,,,,,,,,,,,,,,,,,,,,,,,,,,,,,,,,,,,,,,,,,,,,,,,,,,,,,,,,,,,,,,,,,,,,,,,,,,,,,,,,,,,,,,,
,582545690541,BAC,22/12/1999,001,2023-04-07_17h10.22.279,OS3_Mult_verification,2022.2.4,Win32,30.00480077,,,15,1.5173,1,"[""1"",""5"",""return""]","[0.7595999999999776,1.0203000000000486,1.4202000000000794]",1,27,58,7,1,15,,,,,,,,,,,,,,,,,,,,,,,,,,,,,,,,,,,,,,,,,,,,,,,,,,,,,,,,,,,,,,,,,,,,,,,,,,,,,,,,,,,,,,,,,,,,,,,,,,,,,,,,,,,,,,,,,,,,,,,,,,,,,,,,,,,,,,,,,,,,,,,,,,,,,,,,,,,,,,,,,
,582545690541,BAC,22/12/1999,001,2023-04-07_17h10.22.279,OS3_Mult_verification,2022.2.4,Win32,30.00480077,,,45,1.4863,1,"[""4"",""5"",""return""]","[0.835000000000008,0.9349000000000274,1.3932999999999254]",1,28,59,22,1,45,,,,,,,,,,,,,,,,,,,,,,,,,,,,,,,,,,,,,,,,,,,,,,,,,,,,,,,,,,,,,,,,,,,,,,,,,,,,,,,,,,,,,,,,,,,,,,,,,,,,,,,,,,,,,,,,,,,,,,,,,,,,,,,,,,,,,,,,,,,,,,,,,,,,,,,,,,,,,,,,,
,582545690541,BAC,22/12/1999,001,2023-04-07_17h10.22.279,OS3_Mult_verification,2022.2.4,Win32,30.00480077,,,12,1.3629,1,"[""1"",""2"",""return""]","[0.7624999999999886,0.8634000000000128,1.2714000000000283]",1,29,60,5,1,12,,,,,,,,,,,,,,,,,,,,,,,,,,,,,,,,,,,,,,,,,,,,,,,,,,,,,,,,,,,,,,,,,,,,,,,,,,,,,,,,,,,,,,,,,,,,,,,,,,,,,,,,,,,,,,,,,,,,,,,,,,,,,,,,,,,,,,,,,,,,,,,,,,,,,,,,,,,,,,,,,
,582545690541,BAC,22/12/1999,001,2023-04-07_17h10.22.279,OS3_Mult_verification,2022.2.4,Win32,30.00480077,,,28,1.4971,1,"[""2"",""8"",""return""]","[0.8146000000000981,1.141200000000083,1.404500000000013]",1,30,61,15,1,28,,,,,,,,,,,,,,,,,,,,,,,,,,,,,,,,,,,,,,,,,,,,,,,,,,,,,,,,,,,,,,,,,,,,,,,,,,,,,,,,,,,,,,,,,,,,,,,,,,,,,,,,,,,,,,,,,,,,,,,,,,,,,,,,,,,,,,,,,,,,,,,,,,,,,,,,,,,,,,,,,
,582545690541,BAC,22/12/1999,001,2023-04-07_17h10.22.279,OS3_Mult_verification,2022.2.4,Win32,30.00480077,,,,,,,,,,,,,,space,7.2044,,,,,,,,,,,,,,,,,,,,,,,,,,,,,,,,,,,,,,,,,,,,,,,,,,,,,,,,,,,,,,,,,,,,,,,,,,,,,,,,,,,,,,,,,,,,,,,,,,,,,,,,,,,,,,,,,,,,,,,,,,,,,,,,,,,,,,,,,,,,,,,,,,,,,,,,,,,,,,,
,582545690541,BAC,22/12/1999,001,2023-04-07_17h10.22.279,OS3_Mult_verification,2022.2.4,Win32,30.00480077,,,,,,,,,,,,,,,,,,,,,,,,,,,,,,,,,,,,,,,,,,,,,,,,,,,,,,,,,,,,,,,,,,,,,,,,,,,,,,,,,,,,,,,,,,,,,,,,,,,,,,,,,,,,,,,,,,,,,,,,,,,,,,,,,,,,,,,,,,,,,,,,,,,,,,,,,,,,,,,,,,,,,,,,,,,,,,
,582545690541,BAC,22/12/1999,001,2023-04-07_17h10.22.279,OS3_Mult_verification,2022.2.4,Win32,30.00480077,,,,,,,,,,,,,,,,space,7.1029,,,,,,,,,,,,,,,,,,,,,,,,,,,,,,,,,,,,,,,,,,,,,,,,,,,,,,,,,,,,,,,,,,,,,,,,,,,,,,,,,,,,,,,,,,,,,,,,,,,,,,,,,,,,,,,,,,,,,,,,,,,,,,,,,,,,,,,,,,,,,,,,,,,,,,,,,,,,,
,582545690541,BAC,22/12/1999,001,2023-04-07_17h10.22.279,OS3_Mult_verification,2022.2.4,Win32,30.00480077,,,,,,,,,,,,,,,,,,20,2.4141,1,"[""2"",""0"",""return""]","[1.3744999999999834,1.7420999999998514,2.054099999999835]",0,0,0,1,1,2 × 10 =,20,,,,,,,,,,,,,,,,,,,,,,,,,,,,,,,,,,,,,,,,,,,,,,,,,,,,,,,,,,,,,,,,,,,,,,,,,,,,,,,,,,,,,,,,,,,,,,,,,,,,,,,,,,,,,,,,,,,,,,,,,,,,,,,,,,,,,,,,,,,,,,,,,
,582545690541,BAC,22/12/1999,001,2023-04-07_17h10.22.279,OS3_Mult_verification,2022.2.4,Win32,30.00480077,,,,,,,,,,,,,,,,,,22,1.8825,1,"[""2"",""2"",""return""]","[1.024399999999929,1.17159999999987,1.487199999999973]",0,1,1,2,1,2 × 11 =,22,,,,,,,,,,,,,,,,,,,,,,,,,,,,,,,,,,,,,,,,,,,,,,,,,,,,,,,,,,,,,,,,,,,,,,,,,,,,,,,,,,,,,,,,,,,,,,,,,,,,,,,,,,,,,,,,,,,,,,,,,,,,,,,,,,,,,,,,,,,,,,,,,
,582545690541,BAC,22/12/1999,001,2023-04-07_17h10.22.279,OS3_Mult_verification,2022.2.4,Win32,30.00480077,,,,,,,,,,,,,,,,,,7,1.6207,1,"[""7"",""return""]","[1.0226999999999862,1.2748999999998887]",0,2,2,0,1,1 × 7 =,7,,,,,,,,,,,,,,,,,,,,,,,,,,,,,,,,,,,,,,,,,,,,,,,,,,,,,,,,,,,,,,,,,,,,,,,,,,,,,,,,,,,,,,,,,,,,,,,,,,,,,,,,,,,,,,,,,,,,,,,,,,,,,,,,,,,,,,,,,,,,,,,,,
,582545690541,BAC,22/12/1999,001,2023-04-07_17h10.22.279,OS3_Mult_verification,2022.2.4,Win32,30.00480077,,,,,,,,,,,,,,,,,,,,,,,,,,,,,,,,,,,,,,,,,,,,,,,,,,,,,,,,,,,,,,,,,,,,,,,,,,,,,,,,,,,,,,,,,,,,,,,,,,,,,,,,,,,,,,,,,,,,,,,,,,,,,,,,,,,,,,,,,,,,,,,,,,,,,,,,,,,,,,,,,,,,,,,,,,,,,,
,582545690541,BAC,22/12/1999,001,2023-04-07_17h10.22.279,OS3_Mult_verification,2022.2.4,Win32,30.00480077,,,,,,,,,,,,,,,,,,,,,,,,,,,,,,,,,,,,,,,,,,,,,,,,,,,,,,,,,,,,,,,,,,,,,,,,,,,,,,,,,,,,,,,,,,,,,,,,,,,,,,,,,,,,,,,,,,,,,,,,,,,,,,,,,,,,,,,,,,,,,,,,,,,,,,,,,,,,,,,,,,,,,,,,,,,,,,
,582545690541,BAC,22/12/1999,001,2023-04-07_17h10.22.279,OS3_Mult_verification,2022.2.4,Win32,30.00480077,,,,,,,,,,,,,,,,,,6,1.679,1,"[""6"",""return""]","[1.1199000000001433,1.3074000000001433]",,,,,,2 × 3 =,6,0,0,0,0,1,,,,,,,,,,,,,,,,,,,,,,,,,,,,,,,,,,,,,,,,,,,,,,,,,,,,,,,,,,,,,,,,,,,,,,,,,,,,,,,,,,,,,,,,,,,,,,,,,,,,,,,,,,,,,,,,,,,,,,,,,,,,,,,,,,,,,,,,,,,,
,582545690541,BAC,22/12/1999,001,2023-04-07_17h10.22.279,OS3_Mult_verification,2022.2.4,Win32,30.00480077,,,,,,,,,,,,,,,,,,40,1.9589,1,"[""4"",""0"",""return""]","[1.0050000000000523,1.2969000000001643,1.585800000000063]",,,,,,5 × 8 =,40,0,1,1,1,1,,,,,,,,,,,,,,,,,,,,,,,,,,,,,,,,,,,,,,,,,,,,,,,,,,,,,,,,,,,,,,,,,,,,,,,,,,,,,,,,,,,,,,,,,,,,,,,,,,,,,,,,,,,,,,,,,,,,,,,,,,,,,,,,,,,,,,,,,,,,
,582545690541,BAC,22/12/1999,001,2023-04-07_17h10.22.279,OS3_Mult_verification,2022.2.4,Win32,30.00480077,,,,,,,,,,,,,,,,,,12,1.7236,1,"[""1"",""2"",""return""]","[0.8548000000000116,1.0444000000001097,1.3487000000001785]",,,,,,3 × 4 =,12,0,2,2,2,1,,,,,,,,,,,,,,,,,,,,,,,,,,,,,,,,,,,,,,,,,,,,,,,,,,,,,,,,,,,,,,,,,,,,,,,,,,,,,,,,,,,,,,,,,,,,,,,,,,,,,,,,,,,,,,,,,,,,,,,,,,,,,,,,,,,,,,,,,,,,
,582545690541,BAC,22/12/1999,001,2023-04-07_17h10.22.279,OS3_Mult_verification,2022.2.4,Win32,30.00480077,,,,,,,,,,,,,,,,,,15,1.9112,1,"[""1"",""5"",""return""]","[1.049699999999973,1.2911000000000854,1.5421999999999798]",,,,,,5 × 3 =,15,0,3,3,3,1,,,,,,,,,,,,,,,,,,,,,,,,,,,,,,,,,,,,,,,,,,,,,,,,,,,,,,,,,,,,,,,,,,,,,,,,,,,,,,,,,,,,,,,,,,,,,,,,,,,,,,,,,,,,,,,,,,,,,,,,,,,,,,,,,,,,,,,,,,,,
,582545690541,BAC,22/12/1999,001,2023-04-07_17h10.22.279,OS3_Mult_verification,2022.2.4,Win32,30.00480077,,,,,,,,,,,,,,,,,,8,1.8549,1,"[""8"",""return""]","[1.1529999999999632,1.4855000000000018]",,,,,,2 × 4 =,8,0,4,4,4,1,,,,,,,,,,,,,,,,,,,,,,,,,,,,,,,,,,,,,,,,,,,,,,,,,,,,,,,,,,,,,,,,,,,,,,,,,,,,,,,,,,,,,,,,,,,,,,,,,,,,,,,,,,,,,,,,,,,,,,,,,,,,,,,,,,,,,,,,,,,,
,582545690541,BAC,22/12/1999,001,2023-04-07_17h10.22.279,OS3_Mult_verification,2022.2.4,Win32,30.00480077,,,,,,,,,,,,,,,,,,4,1.6394,1,"[""4"",""return""]","[0.9309999999999832,1.2645999999998594]",,,,,,2 × 2 =,4,0,5,5,5,1,,,,,,,,,,,,,,,,,,,,,,,,,,,,,,,,,,,,,,,,,,,,,,,,,,,,,,,,,,,,,,,,,,,,,,,,,,,,,,,,,,,,,,,,,,,,,,,,,,,,,,,,,,,,,,,,,,,,,,,,,,,,,,,,,,,,,,,,,,,,
,582545690541,BAC,22/12/1999,001,2023-04-07_17h10.22.279,OS3_Mult_verification,2022.2.4,Win32,30.00480077,,,,,,,,,,,,,,,,,,20,3.8806,1,"[""2"",""0"",""return""]","[2.5063999999999282,2.977399999999932,3.508199999999931]",,,,,,4 × 5 =,20,0,6,6,6,1,,,,,,,,,,,,,,,,,,,,,,,,,,,,,,,,,,,,,,,,,,,,,,,,,,,,,,,,,,,,,,,,,,,,,,,,,,,,,,,,,,,,,,,,,,,,,,,,,,,,,,,,,,,,,,,,,,,,,,,,,,,,,,,,,,,,,,,,,,,,
,582545690541,BAC,22/12/1999,001,2023-04-07_17h10.22.279,OS3_Mult_verification,2022.2.4,Win32,30.00480077,,,,,,,,,,,,,,,,,,9,1.9001,1,"[""9"",""return""]","[1.093799999999817,1.5235000000000127]",,,,,,3 × 3 =,9,0,7,7,7,1,,,,,,,,,,,,,,,,,,,,,,,,,,,,,,,,,,,,,,,,,,,,,,,,,,,,,,,,,,,,,,,,,,,,,,,,,,,,,,,,,,,,,,,,,,,,,,,,,,,,,,,,,,,,,,,,,,,,,,,,,,,,,,,,,,,,,,,,,,,,
,582545690541,BAC,22/12/1999,001,2023-04-07_17h10.22.279,OS3_Mult_verification,2022.2.4,Win32,30.00480077,,,,,,,,,,,,,,,,,,10,1.9669,1,"[""1"",""0"",""return""]","[0.8288000000000579,1.2175000000000296,1.597500000000025]",,,,,,5 × 2 =,10,0,8,8,8,1,,,,,,,,,,,,,,,,,,,,,,,,,,,,,,,,,,,,,,,,,,,,,,,,,,,,,,,,,,,,,,,,,,,,,,,,,,,,,,,,,,,,,,,,,,,,,,,,,,,,,,,,,,,,,,,,,,,,,,,,,,,,,,,,,,,,,,,,,,,,
,582545690541,BAC,22/12/1999,001,2023-04-07_17h10.22.279,OS3_Mult_verification,2022.2.4,Win32,30.00480077,,,,,,,,,,,,,,,,,,16,2.0602,1,"[""1"",""6"",""return""]","[0.9185000000000514,1.252300000000048,1.6880999999999062]",,,,,,4 × 4 =,16,0,9,9,9,1,,,,,,,,,,,,,,,,,,,,,,,,,,,,,,,,,,,,,,,,,,,,,,,,,,,,,,,,,,,,,,,,,,,,,,,,,,,,,,,,,,,,,,,,,,,,,,,,,,,,,,,,,,,,,,,,,,,,,,,,,,,,,,,,,,,,,,,,,,,,
,582545690541,BAC,22/12/1999,001,2023-04-07_17h10.22.279,OS3_Mult_verification,2022.2.4,Win32,30.00480077,,,,,,,,,,,,,,,,,,24,2.0634,1,"[""2"",""4"",""return""]","[1.15789999999987,1.3588999999998919,1.6899999999999977]",,,,,,8 × 3 =,24,0,10,10,10,1,,,,,,,,,,,,,,,,,,,,,,,,,,,,,,,,,,,,,,,,,,,,,,,,,,,,,,,,,,,,,,,,,,,,,,,,,,,,,,,,,,,,,,,,,,,,,,,,,,,,,,,,,,,,,,,,,,,,,,,,,,,,,,,,,,,,,,,,,,,,
,582545690541,BAC,22/12/1999,001,2023-04-07_17h10.22.279,OS3_Mult_verification,2022.2.4,Win32,30.00480077,,,,,,,,,,,,,,,,,,30,1.976,1,"[""3"",""0"",""return""]","[0.9135999999998603,1.262899999999945,1.6027999999998315]",,,,,,6 × 5 =,30,0,11,11,11,1,,,,,,,,,,,,,,,,,,,,,,,,,,,,,,,,,,,,,,,,,,,,,,,,,,,,,,,,,,,,,,,,,,,,,,,,,,,,,,,,,,,,,,,,,,,,,,,,,,,,,,,,,,,,,,,,,,,,,,,,,,,,,,,,,,,,,,,,,,,,
,582545690541,BAC,22/12/1999,001,2023-04-07_17h10.22.279,OS3_Mult_verification,2022.2.4,Win32,30.00480077,,,,,,,,,,,,,,,,,,14,1.9132,1,"[""1"",""4"",""return""]","[0.8726000000000909,1.158800000000042,1.5383000000000493]",,,,,,7 × 2 =,14,0,12,12,12,1,,,,,,,,,,,,,,,,,,,,,,,,,,,,,,,,,,,,,,,,,,,,,,,,,,,,,,,,,,,,,,,,,,,,,,,,,,,,,,,,,,,,,,,,,,,,,,,,,,,,,,,,,,,,,,,,,,,,,,,,,,,,,,,,,,,,,,,,,,,,
,582545690541,BAC,22/12/1999,001,2023-04-07_17h10.22.279,OS3_Mult_verification,2022.2.4,Win32,30.00480077,,,,,,,,,,,,,,,,,,27,2.0003,1,"[""2"",""7"",""return""]","[1.041499999999985,1.3394999999999868,1.6222999999999956]",,,,,,3 × 9 =,27,0,13,13,13,1,,,,,,,,,,,,,,,,,,,,,,,,,,,,,,,,,,,,,,,,,,,,,,,,,,,,,,,,,,,,,,,,,,,,,,,,,,,,,,,,,,,,,,,,,,,,,,,,,,,,,,,,,,,,,,,,,,,,,,,,,,,,,,,,,,,,,,,,,,,,
,582545690541,BAC,22/12/1999,001,2023-04-07_17h10.22.279,OS3_Mult_verification,2022.2.4,Win32,30.00480077,,,,,,,,,,,,,,,,,,16,2.0955,1,"[""1"",""6"",""return""]","[1.1518999999998982,1.445899999999881,1.7268000000000256]",,,,,,2 × 8 =,16,0,14,14,14,1,,,,,,,,,,,,,,,,,,,,,,,,,,,,,,,,,,,,,,,,,,,,,,,,,,,,,,,,,,,,,,,,,,,,,,,,,,,,,,,,,,,,,,,,,,,,,,,,,,,,,,,,,,,,,,,,,,,,,,,,,,,,,,,,,,,,,,,,,,,,
,582545690541,BAC,22/12/1999,001,2023-04-07_17h10.22.279,OS3_Mult_verification,2022.2.4,Win32,30.00480077,,,,,,,,,,,,,,,,,,24,3.0487,1,"[""2"",""4"",""return""]","[2.201000000000022,2.3924000000001797,2.6766000000001213]",,,,,,4 × 6 =,24,0,15,15,15,1,,,,,,,,,,,,,,,,,,,,,,,,,,,,,,,,,,,,,,,,,,,,,,,,,,,,,,,,,,,,,,,,,,,,,,,,,,,,,,,,,,,,,,,,,,,,,,,,,,,,,,,,,,,,,,,,,,,,,,,,,,,,,,,,,,,,,,,,,,,,
,582545690541,BAC,22/12/1999,001,2023-04-07_17h10.22.279,OS3_Mult_verification,2022.2.4,Win32,30.00480077,,,,,,,,,,,,,,,,,,21,1.7182,1,"[""2"",""1"",""return""]","[0.8658000000000357,0.9613000000000511,1.3498999999998773]",,,,,,7 × 3 =,21,0,16,16,16,1,,,,,,,,,,,,,,,,,,,,,,,,,,,,,,,,,,,,,,,,,,,,,,,,,,,,,,,,,,,,,,,,,,,,,,,,,,,,,,,,,,,,,,,,,,,,,,,,,,,,,,,,,,,,,,,,,,,,,,,,,,,,,,,,,,,,,,,,,,,,
,582545690541,BAC,22/12/1999,001,2023-04-07_17h10.22.279,OS3_Mult_verification,2022.2.4,Win32,30.00480077,,,,,,,,,,,,,,,,,,27,2.6424,1,"[""2"",""7"",""return""]","[1.5076000000000818,1.8851000000000795,2.269300000000044]",,,,,,9 × 3 =,27,0,17,17,17,1,,,,,,,,,,,,,,,,,,,,,,,,,,,,,,,,,,,,,,,,,,,,,,,,,,,,,,,,,,,,,,,,,,,,,,,,,,,,,,,,,,,,,,,,,,,,,,,,,,,,,,,,,,,,,,,,,,,,,,,,,,,,,,,,,,,,,,,,,,,,
,582545690541,BAC,22/12/1999,001,2023-04-07_17h10.22.279,OS3_Mult_verification,2022.2.4,Win32,30.00480077,,,,,,,,,,,,,,,,,,28,2.2912,1,"[""2"",""8"",""return""]","[1.2023000000000366,1.580400000000111,1.9180000000000064]",,,,,,4 × 7 =,28,0,18,18,18,1,,,,,,,,,,,,,,,,,,,,,,,,,,,,,,,,,,,,,,,,,,,,,,,,,,,,,,,,,,,,,,,,,,,,,,,,,,,,,,,,,,,,,,,,,,,,,,,,,,,,,,,,,,,,,,,,,,,,,,,,,,,,,,,,,,,,,,,,,,,,
,582545690541,BAC,22/12/1999,001,2023-04-07_17h10.22.279,OS3_Mult_verification,2022.2.4,Win32,30.00480077,,,,,,,,,,,,,,,,,,18,2.1481,1,"[""1"",""8"",""return""]","[1.1101999999999634,1.4943000000000666,1.7806999999999675]",,,,,,2 × 9 =,18,0,19,19,19,1,,,,,,,,,,,,,,,,,,,,,,,,,,,,,,,,,,,,,,,,,,,,,,,,,,,,,,,,,,,,,,,,,,,,,,,,,,,,,,,,,,,,,,,,,,,,,,,,,,,,,,,,,,,,,,,,,,,,,,,,,,,,,,,,,,,,,,,,,,,,
,582545690541,BAC,22/12/1999,001,2023-04-07_17h10.22.279,OS3_Mult_verification,2022.2.4,Win32,30.00480077,,,,,,,,,,,,,,,,,,72,2.2319,1,"[""7"",""2"",""return""]","[1.1889999999999645,1.4782000000001858,1.8594999999999686]",,,,,,9 × 8 =,72,0,20,20,20,1,,,,,,,,,,,,,,,,,,,,,,,,,,,,,,,,,,,,,,,,,,,,,,,,,,,,,,,,,,,,,,,,,,,,,,,,,,,,,,,,,,,,,,,,,,,,,,,,,,,,,,,,,,,,,,,,,,,,,,,,,,,,,,,,,,,,,,,,,,,,
,582545690541,BAC,22/12/1999,001,2023-04-07_17h10.22.279,OS3_Mult_verification,2022.2.4,Win32,30.00480077,,,,,,,,,,,,,,,,,,42,2.1746,1,"[""4"",""2"",""return""]","[1.1463000000000534,1.3359000000001515,1.8063000000000216]",,,,,,7 × 6 =,42,0,21,21,21,1,,,,,,,,,,,,,,,,,,,,,,,,,,,,,,,,,,,,,,,,,,,,,,,,,,,,,,,,,,,,,,,,,,,,,,,,,,,,,,,,,,,,,,,,,,,,,,,,,,,,,,,,,,,,,,,,,,,,,,,,,,,,,,,,,,,,,,,,,,,,
,582545690541,BAC,22/12/1999,001,2023-04-07_17h10.22.279,OS3_Mult_verification,2022.2.4,Win32,30.00480077,,,,,,,,,,,,,,,,,,54,2.0882,1,"[""5"",""4"",""return""]","[1.2411999999999352,1.3368000000000393,1.7153000000000702]",,,,,,6 × 9 =,54,0,22,22,22,1,,,,,,,,,,,,,,,,,,,,,,,,,,,,,,,,,,,,,,,,,,,,,,,,,,,,,,,,,,,,,,,,,,,,,,,,,,,,,,,,,,,,,,,,,,,,,,,,,,,,,,,,,,,,,,,,,,,,,,,,,,,,,,,,,,,,,,,,,,,,
,582545690541,BAC,22/12/1999,001,2023-04-07_17h10.22.279,OS3_Mult_verification,2022.2.4,Win32,30.00480077,,,,,,,,,,,,,,,,,,45,1.922,1,"[""4"",""5"",""return""]","[1.0608000000000857,1.156900000000178,1.5403000000000588]",,,,,,9 × 5 =,45,0,23,23,23,1,,,,,,,,,,,,,,,,,,,,,,,,,,,,,,,,,,,,,,,,,,,,,,,,,,,,,,,,,,,,,,,,,,,,,,,,,,,,,,,,,,,,,,,,,,,,,,,,,,,,,,,,,,,,,,,,,,,,,,,,,,,,,,,,,,,,,,,,,,,,
,582545690541,BAC,22/12/1999,001,2023-04-07_17h10.22.279,OS3_Mult_verification,2022.2.4,Win32,30.00480077,,,,,,,,,,,,,,,,,,56,1.881,1,"[""5"",""6"",""return""]","[1.069900000000132,1.1666000000000736,1.5031000000000745]",,,,,,8 × 7 =,56,0,24,24,24,1,,,,,,,,,,,,,,,,,,,,,,,,,,,,,,,,,,,,,,,,,,,,,,,,,,,,,,,,,,,,,,,,,,,,,,,,,,,,,,,,,,,,,,,,,,,,,,,,,,,,,,,,,,,,,,,,,,,,,,,,,,,,,,,,,,,,,,,,,,,,
,582545690541,BAC,22/12/1999,001,2023-04-07_17h10.22.279,OS3_Mult_verification,2022.2.4,Win32,30.00480077,,,,,,,,,,,,,,,,,,36,1.8359,1,"[""3"",""6"",""return""]","[1.0743999999999119,1.3149999999999977,1.4596000000001368]",,,,,,6 × 6 =,36,0,25,25,25,1,,,,,,,,,,,,,,,,,,,,,,,,,,,,,,,,,,,,,,,,,,,,,,,,,,,,,,,,,,,,,,,,,,,,,,,,,,,,,,,,,,,,,,,,,,,,,,,,,,,,,,,,,,,,,,,,,,,,,,,,,,,,,,,,,,,,,,,,,,,,
,582545690541,BAC,22/12/1999,001,2023-04-07_17h10.22.279,OS3_Mult_verification,2022.2.4,Win32,30.00480077,,,,,,,,,,,,,,,,,,35,1.9725,1,"[""3"",""5"",""return""]","[1.1096999999999753,1.2056000000001177,1.6013999999998987]",,,,,,5 × 7 =,35,0,26,26,26,1,,,,,,,,,,,,,,,,,,,,,,,,,,,,,,,,,,,,,,,,,,,,,,,,,,,,,,,,,,,,,,,,,,,,,,,,,,,,,,,,,,,,,,,,,,,,,,,,,,,,,,,,,,,,,,,,,,,,,,,,,,,,,,,,,,,,,,,,,,,,
,582545690541,BAC,22/12/1999,001,2023-04-07_17h10.22.279,OS3_Mult_verification,2022.2.4,Win32,30.00480077,,,,,,,,,,,,,,,,,,36,2.1734,1,"[""3"",""6"",""return""]","[1.1806000000000836,1.4259999999999877,1.8021000000000527]",,,,,,4 × 9 =,36,0,27,27,27,1,,,,,,,,,,,,,,,,,,,,,,,,,,,,,,,,,,,,,,,,,,,,,,,,,,,,,,,,,,,,,,,,,,,,,,,,,,,,,,,,,,,,,,,,,,,,,,,,,,,,,,,,,,,,,,,,,,,,,,,,,,,,,,,,,,,,,,,,,,,,
,582545690541,BAC,22/12/1999,001,2023-04-07_17h10.22.279,OS3_Mult_verification,2022.2.4,Win32,30.00480077,,,,,,,,,,,,,,,,,,48,2.6594,1,"[""4"",""8"",""return""]","[1.6910999999998353,1.9791999999999348,2.280099999999834]",,,,,,8 × 6 =,48,0,28,28,28,1,,,,,,,,,,,,,,,,,,,,,,,,,,,,,,,,,,,,,,,,,,,,,,,,,,,,,,,,,,,,,,,,,,,,,,,,,,,,,,,,,,,,,,,,,,,,,,,,,,,,,,,,,,,,,,,,,,,,,,,,,,,,,,,,,,,,,,,,,,,,
,582545690541,BAC,22/12/1999,001,2023-04-07_17h10.22.279,OS3_Mult_verification,2022.2.4,Win32,30.00480077,,,,,,,,,,,,,,,,,,63,2.232,1,"[""6"",""3"",""return""]","[1.2821000000001277,1.478300000000047,1.8566999999999894]",,,,,,9 × 7 =,63,0,29,29,29,1,,,,,,,,,,,,,,,,,,,,,,,,,,,,,,,,,,,,,,,,,,,,,,,,,,,,,,,,,,,,,,,,,,,,,,,,,,,,,,,,,,,,,,,,,,,,,,,,,,,,,,,,,,,,,,,,,,,,,,,,,,,,,,,,,,,,,,,,,,,,
,582545690541,BAC,22/12/1999,001,2023-04-07_17h10.22.279,OS3_Mult_verification,2022.2.4,Win32,30.00480077,,,,,,,,,,,,,,,,,,12,2.1952,1,"[""1"",""2"",""return""]","[1.301499999999976,1.3983999999998673,1.8243999999999119]",,,,,,4 × 3 =,12,0,30,30,30,1,,,,,,,,,,,,,,,,,,,,,,,,,,,,,,,,,,,,,,,,,,,,,,,,,,,,,,,,,,,,,,,,,,,,,,,,,,,,,,,,,,,,,,,,,,,,,,,,,,,,,,,,,,,,,,,,,,,,,,,,,,,,,,,,,,,,,,,,,,,,
,582545690541,BAC,22/12/1999,001,2023-04-07_17h10.22.279,OS3_Mult_verification,2022.2.4,Win32,30.00480077,,,,,,,,,,,,,,,,,,25,1.8795,1,"[""2"",""5"",""return""]","[0.9624999999999773,1.20799999999997,1.4948000000000548]",,,,,,5 × 5 =,25,0,31,31,31,1,,,,,,,,,,,,,,,,,,,,,,,,,,,,,,,,,,,,,,,,,,,,,,,,,,,,,,,,,,,,,,,,,,,,,,,,,,,,,,,,,,,,,,,,,,,,,,,,,,,,,,,,,,,,,,,,,,,,,,,,,,,,,,,,,,,,,,,,,,,,
,582545690541,BAC,22/12/1999,001,2023-04-07_17h10.22.279,OS3_Mult_verification,2022.2.4,Win32,30.00480077,,,,,,,,,,,,,,,,,,6,1.7627,1,"[""6"",""return""]","[1.094500000000039,1.386299999999835]",,,,,,3 × 2 =,6,0,32,32,32,1,,,,,,,,,,,,,,,,,,,,,,,,,,,,,,,,,,,,,,,,,,,,,,,,,,,,,,,,,,,,,,,,,,,,,,,,,,,,,,,,,,,,,,,,,,,,,,,,,,,,,,,,,,,,,,,,,,,,,,,,,,,,,,,,,,,,,,,,,,,,
,582545690541,BAC,22/12/1999,001,2023-04-07_17h10.22.279,OS3_Mult_verification,2022.2.4,Win32,30.00480077,,,,,,,,,,,,,,,,,,20,1.9675,1,"[""2"",""0"",""return""]","[0.8750999999998612,1.3051999999999566,1.5966999999999985]",,,,,,5 × 4 =,20,0,33,33,33,1,,,,,,,,,,,,,,,,,,,,,,,,,,,,,,,,,,,,,,,,,,,,,,,,,,,,,,,,,,,,,,,,,,,,,,,,,,,,,,,,,,,,,,,,,,,,,,,,,,,,,,,,,,,,,,,,,,,,,,,,,,,,,,,,,,,,,,,,,,,,
,582545690541,BAC,22/12/1999,001,2023-04-07_17h10.22.279,OS3_Mult_verification,2022.2.4,Win32,30.00480077,,,,,,,,,,,,,,,,,,8,1.7895,1,"[""8"",""return""]","[0.9705000000000155,1.413900000000126]",,,,,,4 × 2 =,8,0,34,34,34,1,,,,,,,,,,,,,,,,,,,,,,,,,,,,,,,,,,,,,,,,,,,,,,,,,,,,,,,,,,,,,,,,,,,,,,,,,,,,,,,,,,,,,,,,,,,,,,,,,,,,,,,,,,,,,,,,,,,,,,,,,,,,,,,,,,,,,,,,,,,,
,582545690541,BAC,22/12/1999,001,2023-04-07_17h10.22.279,OS3_Mult_verification,2022.2.4,Win32,30.00480077,,,,,,,,,,,,,,,,,,12,1.7101,1,"[""1"",""2"",""return""]","[0.8641000000001213,0.9593999999999028,1.3436000000000945]",,,,,,2 × 6 =,12,0,35,35,35,1,,,,,,,,,,,,,,,,,,,,,,,,,,,,,,,,,,,,,,,,,,,,,,,,,,,,,,,,,,,,,,,,,,,,,,,,,,,,,,,,,,,,,,,,,,,,,,,,,,,,,,,,,,,,,,,,,,,,,,,,,,,,,,,,,,,,,,,,,,,,
,582545690541,BAC,22/12/1999,001,2023-04-07_17h10.22.279,OS3_Mult_verification,2022.2.4,Win32,30.00480077,,,,,,,,,,,,,,,,,,15,1.8626,1,"[""1"",""5"",""return""]","[0.8649000000001479,1.0596000000001027,1.4863000000000284]",,,,,,3 × 5 =,15,0,36,36,36,1,,,,,,,,,,,,,,,,,,,,,,,,,,,,,,,,,,,,,,,,,,,,,,,,,,,,,,,,,,,,,,,,,,,,,,,,,,,,,,,,,,,,,,,,,,,,,,,,,,,,,,,,,,,,,,,,,,,,,,,,,,,,,,,,,,,,,,,,,,,,
,582545690541,BAC,22/12/1999,001,2023-04-07_17h10.22.279,OS3_Mult_verification,2022.2.4,Win32,30.00480077,,,,,,,,,,,,,,,,,,18,2.1204,1,"[""1"",""8"",""return""]","[1.1198000000000548,1.4990000000000236,1.745800000000031]",,,,,,6 × 3 =,18,0,37,37,37,1,,,,,,,,,,,,,,,,,,,,,,,,,,,,,,,,,,,,,,,,,,,,,,,,,,,,,,,,,,,,,,,,,,,,,,,,,,,,,,,,,,,,,,,,,,,,,,,,,,,,,,,,,,,,,,,,,,,,,,,,,,,,,,,,,,,,,,,,,,,,
,582545690541,BAC,22/12/1999,001,2023-04-07_17h10.22.279,OS3_Mult_verification,2022.2.4,Win32,30.00480077,,,,,,,,,,,,,,,,,,10,1.9003,1,"[""1"",""0"",""return""]","[0.8058999999998946,1.1463000000000534,1.5226000000000681]",,,,,,2 × 5 =,10,0,38,38,38,1,,,,,,,,,,,,,,,,,,,,,,,,,,,,,,,,,,,,,,,,,,,,,,,,,,,,,,,,,,,,,,,,,,,,,,,,,,,,,,,,,,,,,,,,,,,,,,,,,,,,,,,,,,,,,,,,,,,,,,,,,,,,,,,,,,,,,,,,,,,,
,582545690541,BAC,22/12/1999,001,2023-04-07_17h10.22.279,OS3_Mult_verification,2022.2.4,Win32,30.00480077,,,,,,,,,,,,,,,,,,32,3.3314,1,"[""3"",""2"",""return""]","[2.5194000000001324,2.566200000000208,2.9521000000000868]",,,,,,4 × 8 =,32,0,39,39,39,1,,,,,,,,,,,,,,,,,,,,,,,,,,,,,,,,,,,,,,,,,,,,,,,,,,,,,,,,,,,,,,,,,,,,,,,,,,,,,,,,,,,,,,,,,,,,,,,,,,,,,,,,,,,,,,,,,,,,,,,,,,,,,,,,,,,,,,,,,,,,
,582545690541,BAC,22/12/1999,001,2023-04-07_17h10.22.279,OS3_Mult_verification,2022.2.4,Win32,30.00480077,,,,,,,,,,,,,,,,,,24,2.0594,1,"[""2"",""4"",""return""]","[1.0518999999998755,1.148499999999956,1.688899999999876]",,,,,,3 × 8 =,24,0,40,40,40,1,,,,,,,,,,,,,,,,,,,,,,,,,,,,,,,,,,,,,,,,,,,,,,,,,,,,,,,,,,,,,,,,,,,,,,,,,,,,,,,,,,,,,,,,,,,,,,,,,,,,,,,,,,,,,,,,,,,,,,,,,,,,,,,,,,,,,,,,,,,,
,582545690541,BAC,22/12/1999,001,2023-04-07_17h10.22.279,OS3_Mult_verification,2022.2.4,Win32,30.00480077,,,,,,,,,,,,,,,,,,30,2.7652,1,"[""3"",""0"",""return""]","[1.6819999999999595,2.014400000000137,2.3956000000000586]",,,,,,5 × 6 =,30,0,41,41,41,1,,,,,,,,,,,,,,,,,,,,,,,,,,,,,,,,,,,,,,,,,,,,,,,,,,,,,,,,,,,,,,,,,,,,,,,,,,,,,,,,,,,,,,,,,,,,,,,,,,,,,,,,,,,,,,,,,,,,,,,,,,,,,,,,,,,,,,,,,,,,
,582545690541,BAC,22/12/1999,001,2023-04-07_17h10.22.279,OS3_Mult_verification,2022.2.4,Win32,30.00480077,,,,,,,,,,,,,,,,,,,1.0036,0,,,,,,,,2 × 7 =,14,0,42,42,42,1,,,,,,,,,,,,,,,,,,,,,,,,,,,,,,,,,,,,,,,,,,,,,,,,,,,,,,,,,,,,,,,,,,,,,,,,,,,,,,,,,,,,,,,,,,,,,,,,,,,,,,,,,,,,,,,,,,,,,,,,,,,,,,,,,,,,,,,,,,,,
,582545690541,BAC,22/12/1999,001,2023-04-07_17h10.22.279,OS3_Mult_verification,2022.2.4,Win32,30.00480077,,,,,,,,,,,,,,,,space,1.9237,,,,,,,,,,,,,,,,,,TRUE,2.6614,0.034259288,-0.338888889,1,0,0,0,0,0,0,1,practice trial,,3,3,,,,,,,,,,,,,,,,,,,,,,,,,,,,,,,,,,,,,,,,,,,,,,,,,,,,,,,,,,,,,,,,,,,,,,,,,,,,,,,,,,,,,,,,,,,,,,,,,,,,,,,,,,,,,,,,,,,,,,,,,,,,
,582545690541,BAC,22/12/1999,001,2023-04-07_17h10.22.279,OS3_Mult_verification,2022.2.4,Win32,30.00480077,,,,,,,,,,,,,,,,,,,,,,,,,,,,,,,,,,,TRUE,2.6429,0.082407464,-0.339814843,1,0,0,0,1,1,2,1,practice trial,,3,3,,,,,,,,,,,,,,,,,,,,,,,,,,,,,,,,,,,,,,,,,,,,,,,,,,,,,,,,,,,,,,,,,,,,,,,,,,,,,,,,,,,,,,,,,,,,,,,,,,,,,,,,,,,,,,,,,,,,,,,,,,,,
,582545690541,BAC,22/12/1999,001,2023-04-07_17h10.22.279,OS3_Mult_verification,2022.2.4,Win32,30.00480077,,,,,,,,,,,,,,,,,,,,,,,,,,,,,,,,,,,TRUE,2.5169,0.053703732,-0.33148151,1,0,0,0,2,2,1,1,practice trial,,3,3,,,,,,,,,,,,,,,,,,,,,,,,,,,,,,,,,,,,,,,,,,,,,,,,,,,,,,,,,,,,,,,,,,,,,,,,,,,,,,,,,,,,,,,,,,,,,,,,,,,,,,,,,,,,,,,,,,,,,,,,,,,,
,582545690541,BAC,22/12/1999,001,2023-04-07_17h10.22.279,OS3_Mult_verification,2022.2.4,Win32,30.00480077,,,,,,,,,,,,,,,,,,,,,,,,,,,,,,,,,,,TRUE,1.5582,0.098148176,-0.341666667,1,0,0,,,,,,Trial #1,,2,2,0,0,0,0,1,2,,,,,,,,,,,,,,,,,,,,,,,,,,,,,,,,,,,,,,,,,,,,,,,,,,,,,,,,,,,,,,,,,,,,,,,,,,,,,,,,,,,,,,,,,,,,,,,,,,,,,,,,,,,,,,,,,,,,,,
,582545690541,BAC,22/12/1999,001,2023-04-07_17h10.22.279,OS3_Mult_verification,2022.2.4,Win32,30.00480077,,,,,,,,,,,,,,,,,,,,,,,,,,,,,,,,,,,TRUE,1.2685,0.080555556,-0.324074131,1,0,0,,,,,,Trial #1,,2,2,0,1,1,1,1,2,,,,,,,,,,,,,,,,,,,,,,,,,,,,,,,,,,,,,,,,,,,,,,,,,,,,,,,,,,,,,,,,,,,,,,,,,,,,,,,,,,,,,,,,,,,,,,,,,,,,,,,,,,,,,,,,,,,,,,
,582545690541,BAC,22/12/1999,001,2023-04-07_17h10.22.279,OS3_Mult_verification,2022.2.4,Win32,30.00480077,,,,,,,,,,,,,,,,,,,,,,,,,,,,,,,,,,,TRUE,1.6524,-0.036111111,-0.349074131,1,0,0,,,,,,Trial #1,,2,2,0,2,2,2,1,2,,,,,,,,,,,,,,,,,,,,,,,,,,,,,,,,,,,,,,,,,,,,,,,,,,,,,,,,,,,,,,,,,,,,,,,,,,,,,,,,,,,,,,,,,,,,,,,,,,,,,,,,,,,,,,,,,,,,,,
,582545690541,BAC,22/12/1999,001,2023-04-07_17h10.22.279,OS3_Mult_verification,2022.2.4,Win32,30.00480077,,,,,,,,,,,,,,,,,,,,,,,,,,,,,,,,,,,TRUE,1.9936,0.050925954,-0.351851908,1,0,0,,,,,,Trial #2,,3,3,0,0,0,0,1,3,,,,,,,,,,,,,,,,,,,,,,,,,,,,,,,,,,,,,,,,,,,,,,,,,,,,,,,,,,,,,,,,,,,,,,,,,,,,,,,,,,,,,,,,,,,,,,,,,,,,,,,,,,,,,,,,,,,,,,
,582545690541,BAC,22/12/1999,001,2023-04-07_17h10.22.279,OS3_Mult_verification,2022.2.4,Win32,30.00480077,,,,,,,,,,,,,,,,,,,,,,,,,,,,,,,,,,,TRUE,1.9973,0.058333333,-0.337037065,1,0,0,,,,,,Trial #2,,3,3,0,1,1,1,1,3,,,,,,,,,,,,,,,,,,,,,,,,,,,,,,,,,,,,,,,,,,,,,,,,,,,,,,,,,,,,,,,,,,,,,,,,,,,,,,,,,,,,,,,,,,,,,,,,,,,,,,,,,,,,,,,,,,,,,,
,582545690541,BAC,22/12/1999,001,2023-04-07_17h10.22.279,OS3_Mult_verification,2022.2.4,Win32,30.00480077,,,,,,,,,,,,,,,,,,,,,,,,,,,,,,,,,,,TRUE,2.2336,0.041666667,-0.327777778,1,0,0,,,,,,Trial #2,,3,3,0,2,2,2,1,3,,,,,,,,,,,,,,,,,,,,,,,,,,,,,,,,,,,,,,,,,,,,,,,,,,,,,,,,,,,,,,,,,,,,,,,,,,,,,,,,,,,,,,,,,,,,,,,,,,,,,,,,,,,,,,,,,,,,,,
,582545690541,BAC,22/12/1999,001,2023-04-07_17h10.22.279,OS3_Mult_verification,2022.2.4,Win32,30.00480077,,,,,,,,,,,,,,,,,,,,,,,,,,,,,,,,,,,TRUE,2.3372,0.075925954,-0.359259288,1,0,0,,,,,,Trial #3,,3,3,0,0,0,0,1,4,,,,,,,,,,,,,,,,,,,,,,,,,,,,,,,,,,,,,,,,,,,,,,,,,,,,,,,,,,,,,,,,,,,,,,,,,,,,,,,,,,,,,,,,,,,,,,,,,,,,,,,,,,,,,,,,,,,,,,
,582545690541,BAC,22/12/1999,001,2023-04-07_17h10.22.279,OS3_Mult_verification,2022.2.4,Win32,30.00480077,,,,,,,,,,,,,,,,,,,,,,,,,,,,,,,,,,,TRUE,2.1699,0.05648151,-0.328703732,1,0,0,,,,,,Trial #3,,3,3,0,1,1,1,1,4,,,,,,,,,,,,,,,,,,,,,,,,,,,,,,,,,,,,,,,,,,,,,,,,,,,,,,,,,,,,,,,,,,,,,,,,,,,,,,,,,,,,,,,,,,,,,,,,,,,,,,,,,,,,,,,,,,,,,,
,582545690541,BAC,22/12/1999,001,2023-04-07_17h10.22.279,OS3_Mult_verification,2022.2.4,Win32,30.00480077,,,,,,,,,,,,,,,,,,,,,,,,,,,,,,,,,,,TRUE,2.2676,0.037037065,-0.337963019,1,0,0,,,,,,Trial #3,,3,3,0,2,2,2,1,4,,,,,,,,,,,,,,,,,,,,,,,,,,,,,,,,,,,,,,,,,,,,,,,,,,,,,,,,,,,,,,,,,,,,,,,,,,,,,,,,,,,,,,,,,,,,,,,,,,,,,,,,,,,,,,,,,,,,,,
,582545690541,BAC,22/12/1999,001,2023-04-07_17h10.22.279,OS3_Mult_verification,2022.2.4,Win32,30.00480077,,,,,,,,,,,,,,,,,,,,,,,,,,,,,,,,,,,TRUE,2.8334,-0.090740712,-0.335185242,1,0,0,,,,,,Trial #4,,4,4,0,0,0,0,1,5,,,,,,,,,,,,,,,,,,,,,,,,,,,,,,,,,,,,,,,,,,,,,,,,,,,,,,,,,,,,,,,,,,,,,,,,,,,,,,,,,,,,,,,,,,,,,,,,,,,,,,,,,,,,,,,,,,,,,,
,582545690541,BAC,22/12/1999,001,2023-04-07_17h10.22.279,OS3_Mult_verification,2022.2.4,Win32,30.00480077,,,,,,,,,,,,,,,,,,,,,,,,,,,,,,,,,,,TRUE,2.8316,0.027777778,-0.346296353,1,0,0,,,,,,Trial #4,,4,4,0,1,1,1,1,5,,,,,,,,,,,,,,,,,,,,,,,,,,,,,,,,,,,,,,,,,,,,,,,,,,,,,,,,,,,,,,,,,,,,,,,,,,,,,,,,,,,,,,,,,,,,,,,,,,,,,,,,,,,,,,,,,,,,,,
,582545690541,BAC,22/12/1999,001,2023-04-07_17h10.22.279,OS3_Mult_verification,2022.2.4,Win32,30.00480077,,,,,,,,,,,,,,,,,,,,,,,,,,,,,,,,,,,TRUE,2.4737,0.001851908,-0.341666667,1,0,0,,,,,,Trial #4,,4,4,0,2,2,2,1,5,,,,,,,,,,,,,,,,,,,,,,,,,,,,,,,,,,,,,,,,,,,,,,,,,,,,,,,,,,,,,,,,,,,,,,,,,,,,,,,,,,,,,,,,,,,,,,,,,,,,,,,,,,,,,,,,,,,,,,
,582545690541,BAC,22/12/1999,001,2023-04-07_17h10.22.279,OS3_Mult_verification,2022.2.4,Win32,30.00480077,,,,,,,,,,,,,,,,,,,,,,,,,,,,,,,,,,,TRUE,2.7963,0.086111111,-0.339814843,1,0,0,,,,,,Trial #5,,4,4,0,0,0,0,1,6,,,,,,,,,,,,,,,,,,,,,,,,,,,,,,,,,,,,,,,,,,,,,,,,,,,,,,,,,,,,,,,,,,,,,,,,,,,,,,,,,,,,,,,,,,,,,,,,,,,,,,,,,,,,,,,,,,,,,,
,582545690541,BAC,22/12/1999,001,2023-04-07_17h10.22.279,OS3_Mult_verification,2022.2.4,Win32,30.00480077,,,,,,,,,,,,,,,,,,,,,,,,,,,,,,,,,,,TRUE,2.858,0.054629686,-0.330555556,1,0,0,,,,,,Trial #5,,4,4,0,1,1,1,1,6,,,,,,,,,,,,,,,,,,,,,,,,,,,,,,,,,,,,,,,,,,,,,,,,,,,,,,,,,,,,,,,,,,,,,,,,,,,,,,,,,,,,,,,,,,,,,,,,,,,,,,,,,,,,,,,,,,,,,,
,582545690541,BAC,22/12/1999,001,2023-04-07_17h10.22.279,OS3_Mult_verification,2022.2.4,Win32,30.00480077,,,,,,,,,,,,,,,,,,,,,,,,,,,,,,,,,,,TRUE,3.0612,0.066666667,-0.333333333,1,0,0,,,,,,Trial #5,,4,4,0,2,2,2,1,6,,,,,,,,,,,,,,,,,,,,,,,,,,,,,,,,,,,,,,,,,,,,,,,,,,,,,,,,,,,,,,,,,,,,,,,,,,,,,,,,,,,,,,,,,,,,,,,,,,,,,,,,,,,,,,,,,,,,,,
,582545690541,BAC,22/12/1999,001,2023-04-07_17h10.22.279,OS3_Mult_verification,2022.2.4,Win32,30.00480077,,,,,,,,,,,,,,,,,,,,,,,,,,,,,,,,,,,TRUE,3.3912,0.093518575,-0.325925954,1,0,0,,,,,,Trial #6,,4,4,0,0,0,0,1,7,,,,,,,,,,,,,,,,,,,,,,,,,,,,,,,,,,,,,,,,,,,,,,,,,,,,,,,,,,,,,,,,,,,,,,,,,,,,,,,,,,,,,,,,,,,,,,,,,,,,,,,,,,,,,,,,,,,,,,
,582545690541,BAC,22/12/1999,001,2023-04-07_17h10.22.279,OS3_Mult_verification,2022.2.4,Win32,30.00480077,,,,,,,,,,,,,,,,,,,,,,,,,,,,,,,,,,,TRUE,3.3961,0.091666667,-0.337963019,1,0,0,,,,,,Trial #6,,4,4,0,1,1,1,1,7,,,,,,,,,,,,,,,,,,,,,,,,,,,,,,,,,,,,,,,,,,,,,,,,,,,,,,,,,,,,,,,,,,,,,,,,,,,,,,,,,,,,,,,,,,,,,,,,,,,,,,,,,,,,,,,,,,,,,,
,582545690541,BAC,22/12/1999,001,2023-04-07_17h10.22.279,OS3_Mult_verification,2022.2.4,Win32,30.00480077,,,,,,,,,,,,,,,,,,,,,,,,,,,,,,,,,,,TRUE,3.6983,0.142592621,-0.354629686,1,0,0,,,,,,Trial #6,,4,4,0,2,2,2,1,7,,,,,,,,,,,,,,,,,,,,,,,,,,,,,,,,,,,,,,,,,,,,,,,,,,,,,,,,,,,,,,,,,,,,,,,,,,,,,,,,,,,,,,,,,,,,,,,,,,,,,,,,,,,,,,,,,,,,,,
,582545690541,BAC,22/12/1999,001,2023-04-07_17h10.22.279,OS3_Mult_verification,2022.2.4,Win32,30.00480077,,,,,,,,,,,,,,,,,,,,,,,,,,,,,,,,,,,TRUE,4.4865,0.129629686,-0.35,1,0,0,,,,,,Trial #7,,4,4,0,0,0,0,1,8,,,,,,,,,,,,,,,,,,,,,,,,,,,,,,,,,,,,,,,,,,,,,,,,,,,,,,,,,,,,,,,,,,,,,,,,,,,,,,,,,,,,,,,,,,,,,,,,,,,,,,,,,,,,,,,,,,,,,,
,582545690541,BAC,22/12/1999,001,2023-04-07_17h10.22.279,OS3_Mult_verification,2022.2.4,Win32,30.00480077,,,,,,,,,,,,,,,,,,,,,,,,,,,,,,,,,,,TRUE,3.8678,0.077777778,-0.353703732,1,0,0,,,,,,Trial #7,,4,4,0,1,1,1,1,8,,,,,,,,,,,,,,,,,,,,,,,,,,,,,,,,,,,,,,,,,,,,,,,,,,,,,,,,,,,,,,,,,,,,,,,,,,,,,,,,,,,,,,,,,,,,,,,,,,,,,,,,,,,,,,,,,,,,,,
,582545690541,BAC,22/12/1999,001,2023-04-07_17h10.22.279,OS3_Mult_verification,2022.2.4,Win32,30.00480077,,,,,,,,,,,,,,,,,,,,,,,,,,,,,,,,,,,TRUE,3.949,0.129629686,-0.347222222,1,0,0,,,,,,Trial #7,,4,4,0,2,2,2,1,8,,,,,,,,,,,,,,,,,,,,,,,,,,,,,,,,,,,,,,,,,,,,,,,,,,,,,,,,,,,,,,,,,,,,,,,,,,,,,,,,,,,,,,,,,,,,,,,,,,,,,,,,,,,,,,,,,,,,,,
,582545690541,BAC,22/12/1999,001,2023-04-07_17h10.22.279,OS3_Mult_verification,2022.2.4,Win32,30.00480077,,,,,,,,,,,,,,,,,,,,,,,,,,,,,,,,,,,TRUE,4.3918,0.122222222,-0.340740797,1,0,0,,,,,,Trial #8,,5,5,0,0,0,0,1,9,,,,,,,,,,,,,,,,,,,,,,,,,,,,,,,,,,,,,,,,,,,,,,,,,,,,,,,,,,,,,,,,,,,,,,,,,,,,,,,,,,,,,,,,,,,,,,,,,,,,,,,,,,,,,,,,,,,,,,
,582545690541,BAC,22/12/1999,001,2023-04-07_17h10.22.279,OS3_Mult_verification,2022.2.4,Win32,30.00480077,,,,,,,,,,,,,,,,,,,,,,,,,,,,,,,,,,,FALSE,7.9428,0.101851908,-0.345370399,1,0,0,,,,,,Trial #8,,5,5,0,1,1,1,1,9,,,,,,,,,,,,,,,,,,,,,,,,,,,,,,,,,,,,,,,,,,,,,,,,,,,,,,,,,,,,,,,,,,,,,,,,,,,,,,,,,,,,,,,,,,,,,,,,,,,,,,,,,,,,,,,,,,,,,,
,582545690541,BAC,22/12/1999,001,2023-04-07_17h10.22.279,OS3_Mult_verification,2022.2.4,Win32,30.00480077,,,,,,,,,,,,,,,,,,,,,,,,,,,,,,,,,,,TRUE,4.1331,0.076851908,-0.368518575,1,0,0,,,,,,Trial #8,,5,5,0,2,2,2,1,9,,,,,,,,,,,,,,,,,,,,,,,,,,,,,,,,,,,,,,,,,,,,,,,,,,,,,,,,,,,,,,,,,,,,,,,,,,,,,,,,,,,,,,,,,,,,,,,,,,,,,,,,,,,,,,,,,,,,,,
,582545690541,BAC,22/12/1999,001,2023-04-07_17h10.22.279,OS3_Mult_verification,2022.2.4,Win32,30.00480077,,,,,,,,,,,,,,,,,,,,,,,,,,,,,,,,,,,TRUE,5.0272,0.087963019,-0.341666667,1,0,0,,,,,,Trial #9,,5,5,0,0,0,0,1,10,,,,,,,,,,,,,,,,,,,,,,,,,,,,,,,,,,,,,,,,,,,,,,,,,,,,,,,,,,,,,,,,,,,,,,,,,,,,,,,,,,,,,,,,,,,,,,,,,,,,,,,,,,,,,,,,,,,,,,
,582545690541,BAC,22/12/1999,001,2023-04-07_17h10.22.279,OS3_Mult_verification,2022.2.4,Win32,30.00480077,,,,,,,,,,,,,,,,,,,,,,,,,,,,,,,,,,,TRUE,4.3949,0.088888889,-0.355555556,1,0,0,,,,,,Trial #9,,5,5,0,1,1,1,1,10,,,,,,,,,,,,,,,,,,,,,,,,,,,,,,,,,,,,,,,,,,,,,,,,,,,,,,,,,,,,,,,,,,,,,,,,,,,,,,,,,,,,,,,,,,,,,,,,,,,,,,,,,,,,,,,,,,,,,,
,582545690541,BAC,22/12/1999,001,2023-04-07_17h10.22.279,OS3_Mult_verification,2022.2.4,Win32,30.00480077,,,,,,,,,,,,,,,,,,,,,,,,,,,,,,,,,,,FALSE,5.95,0.100925954,-0.336111111,1,0,0,,,,,,Trial #9,,5,5,0,2,2,2,1,10,,,,,,,,,,,,,,,,,,,,,,,,,,,,,,,,,,,,,,,,,,,,,,,,,,,,,,,,,,,,,,,,,,,,,,,,,,,,,,,,,,,,,,,,,,,,,,,,,,,,,,,,,,,,,,,,,,,,,,
,582545690541,BAC,22/12/1999,001,2023-04-07_17h10.22.279,OS3_Mult_verification,2022.2.4,Win32,30.00480077,,,,,,,,,,,,,,,,,,,,,,,,,,,,,,,,,,,TRUE,5.364,0.107407464,-0.334259288,1,0,0,,,,,,Trial #10,,5,5,0,0,0,0,1,11,,,,,,,,,,,,,,,,,,,,,,,,,,,,,,,,,,,,,,,,,,,,,,,,,,,,,,,,,,,,,,,,,,,,,,,,,,,,,,,,,,,,,,,,,,,,,,,,,,,,,,,,,,,,,,,,,,,,,,
,582545690541,BAC,22/12/1999,001,2023-04-07_17h10.22.279,OS3_Mult_verification,2022.2.4,Win32,30.00480077,,,,,,,,,,,,,,,,,,,,,,,,,,,,,,,,,,,FALSE,5.1137,0.046296353,-0.350925954,1,0,0,,,,,,Trial #10,,5,5,0,1,1,1,1,11,,,,,,,,,,,,,,,,,,,,,,,,,,,,,,,,,,,,,,,,,,,,,,,,,,,,,,,,,,,,,,,,,,,,,,,,,,,,,,,,,,,,,,,,,,,,,,,,,,,,,,,,,,,,,,,,,,,,,,
,582545690541,BAC,22/12/1999,001,2023-04-07_17h10.22.279,OS3_Mult_verification,2022.2.4,Win32,30.00480077,,,,,,,,,,,,,,,,,,,,,,,,,,,,,,,,,,,TRUE,6.9054,0.091666667,-0.344444444,1,0,0,,,,,,Trial #10,,5,5,0,2,2,2,1,11,,,,,,,,,,,,,,,,,,,,,,,,,,,,,,,,,,,,,,,,,,,,,,,,,,,,,,,,,,,,,,,,,,,,,,,,,,,,,,,,,,,,,,,,,,,,,,,,,,,,,,,,,,,,,,,,,,,,,,
,582545690541,BAC,22/12/1999,001,2023-04-07_17h10.22.279,OS3_Mult_verification,2022.2.4,Win32,30.00480077,,,,,,,,,,,,,,,,,,,,,,,,,,,,,,,,,,,FALSE,5.8003,0.093518575,-0.347222222,1,0,0,,,,,,Trial #11,,5,5,0,0,0,0,1,12,,,,,,,,,,,,,,,,,,,,,,,,,,,,,,,,,,,,,,,,,,,,,,,,,,,,,,,,,,,,,,,,,,,,,,,,,,,,,,,,,,,,,,,,,,,,,,,,,,,,,,,,,,,,,,,,,,,,,,
,582545690541,BAC,22/12/1999,001,2023-04-07_17h10.22.279,OS3_Mult_verification,2022.2.4,Win32,30.00480077,,,,,,,,,,,,,,,,,,,,,,,,,,,,,,,,,,,FALSE,5.9867,0.118518575,-0.343518575,1,0,0,,,,,,Trial #11,,5,5,0,1,1,1,1,12,,,,,,,,,,,,,,,,,,,,,,,,,,,,,,,,,,,,,,,,,,,,,,,,,,,,,,,,,,,,,,,,,,,,,,,,,,,,,,,,,,,,,,,,,,,,,,,,,,,,,,,,,,,,,,,,,,,,,,
,582545690541,BAC,22/12/1999,001,2023-04-07_17h10.22.279,OS3_Mult_verification,2022.2.4,Win32,30.00480077,,,,,,,,,,,,,,,,,,,,,,,,,,,,,,,,,,,FALSE,5.8133,0.087037065,-0.354629686,1,0,0,,,,,,Trial #11,,5,5,0,2,2,2,1,12,,,,,,,,,,,,,,,,,,,,,,,,,,,,,,,,,,,,,,,,,,,,,,,,,,,,,,,,,,,,,,,,,,,,,,,,,,,,,,,,,,,,,,,,,,,,,,,,,,,,,,,,,,,,,,,,,,,,,,
,582545690541,BAC,22/12/1999,001,2023-04-07_17h10.22.279,OS3_Mult_verification,2022.2.4,Win32,30.00480077,,,,,,,,,,,,,,,,,,,,,,,,,,,,,,,,,,,,,,,,,,,,,,,,,,,,,,,,,0,0,0,0,1,,,,,,,,,,,,,,,,,,,,,,,,,,,,,,,,,,,,,,,,,,,,,,,,,,,,,,,,,,,,,,,,,,,,,,,,,,,,,,,,,,,,,,,,,,,,,,,,,,,,,,,,,,,,,,,,,
,582545690541,BAC,22/12/1999,001,2023-04-07_17h10.22.279,OS3_Mult_verification,2022.2.4,Win32,30.00480077,,,,,,,,,,,,,,,,,,,,,,,,,,,,,,,,,,,,,,,,,,,,,,,,,,,,,,,,,,,,,,0,0,0,0,1,0,1,0,,,,,,,,,,,,,,,,,,,,,,,,,,,,,,,,,,,,,,,,,,,,,,,,,,,,,,,,,,,,,,,,,,,,,,,,,,,,,,,,,,,,,,,,,,,,,,,,,,,,,,,,,
,582545690541,BAC,22/12/1999,001,2023-04-07_17h10.22.279,OS3_Mult_verification,2022.2.4,Win32,30.00480077,,,,,,,,,,,,,,,,space,1.1353,,,,,,,,,,,,,,,,,,,,,,,,,,,,,,,,,,,,,,,,,,,,,,,,,,,,,right,1,0.7621,0,0,0,1,1,practice,7,8,7 | 8,1,0.065,0.05,incongruent,right,,,,,,,,,,,,,,,,,,,,,,,,,,,,,,,,,,,,,,,,,,,,,,,,,,,,,,,,,,,,,,,,,,,,,,,,,,,,,,,,,,,,,,,,
,582545690541,BAC,22/12/1999,001,2023-04-07_17h10.22.279,OS3_Mult_verification,2022.2.4,Win32,30.00480077,,,,,,,,,,,,,,,,,,,,,,,,,,,,,,,,,,,,,,,,,,,,,,,,,,,,,,,,,,,,,,,,,,,,,,right,1,0.5283,0,1,1,0,1,practice,1,2,1 | 2,1,0.05,0.065,congruent,right,,,,,,,,,,,,,,,,,,,,,,,,,,,,,,,,,,,,,,,,,,,,,,,,,,,,,,,,,,,,,,,,,,,,,,,,,,,,,,,,,,,,,,,,
,582545690541,BAC,22/12/1999,001,2023-04-07_17h10.22.279,OS3_Mult_verification,2022.2.4,Win32,30.00480077,,,,,,,,,,,,,,,,,,,,,,,,,,,,,,,,,,,,,,,,,,,,,,,,,,,,,,,,,,,,,,,,,,,,,,right,1,0.5287,0,2,2,2,1,practice,4,9,4 | 9,5,0.06,0.06,neutral,right,,,,,,,,,,,,,,,,,,,,,,,,,,,,,,,,,,,,,,,,,,,,,,,,,,,,,,,,,,,,,,,,,,,,,,,,,,,,,,,,,,,,,,,,
,582545690541,BAC,22/12/1999,001,2023-04-07_17h10.22.279,OS3_Mult_verification,2022.2.4,Win32,30.00480077,,,,,,,,,,,,,,,,,,,,,,,,,,,,,,,,,,,,,,,,,,,,,,,,,,,,,,,,,,,,,,,,,,,,,,left,1,0.5354,,,,,,magnitude,4,2,4 | 2,2,0.065,0.05,congruent,left,0,0,0,13,1,,,,,,,,,,,,,,,,,,,,,,,,,,,,,,,,,,,,,,,,,,,,,,,,,,,,,,,,,,,,,,,,,,,,,,,,,,,,,,,,,,,
,582545690541,BAC,22/12/1999,001,2023-04-07_17h10.22.279,OS3_Mult_verification,2022.2.4,Win32,30.00480077,,,,,,,,,,,,,,,,,,,,,,,,,,,,,,,,,,,,,,,,,,,,,,,,,,,,,,,,,,,,,,,,,,,,,,right,1,0.5712,,,,,,magnitude,6,7,6 | 7,1,0.05,0.065,congruent,right,0,1,1,2,1,,,,,,,,,,,,,,,,,,,,,,,,,,,,,,,,,,,,,,,,,,,,,,,,,,,,,,,,,,,,,,,,,,,,,,,,,,,,,,,,,,,
,582545690541,BAC,22/12/1999,001,2023-04-07_17h10.22.279,OS3_Mult_verification,2022.2.4,Win32,30.00480077,,,,,,,,,,,,,,,,,,,,,,,,,,,,,,,,,,,,,,,,,,,,,,,,,,,,,,,,,,,,,,,,,,,,,,left,1,0.584,,,,,,magnitude,2,1,2 | 1,1,0.05,0.065,incongruent,left,0,2,2,28,1,,,,,,,,,,,,,,,,,,,,,,,,,,,,,,,,,,,,,,,,,,,,,,,,,,,,,,,,,,,,,,,,,,,,,,,,,,,,,,,,,,,
,582545690541,BAC,22/12/1999,001,2023-04-07_17h10.22.279,OS3_Mult_verification,2022.2.4,Win32,30.00480077,,,,,,,,,,,,,,,,,,,,,,,,,,,,,,,,,,,,,,,,,,,,,,,,,,,,,,,,,,,,,,,,,,,,,,left,1,0.5744,,,,,,magnitude,9,7,9 | 7,2,0.065,0.05,congruent,left,0,3,3,15,1,,,,,,,,,,,,,,,,,,,,,,,,,,,,,,,,,,,,,,,,,,,,,,,,,,,,,,,,,,,,,,,,,,,,,,,,,,,,,,,,,,,
,582545690541,BAC,22/12/1999,001,2023-04-07_17h10.22.279,OS3_Mult_verification,2022.2.4,Win32,30.00480077,,,,,,,,,,,,,,,,,,,,,,,,,,,,,,,,,,,,,,,,,,,,,,,,,,,,,,,,,,,,,,,,,,,,,,right,1,0.8066,,,,,,magnitude,3,4,3 | 4,1,0.06,0.06,neutral,right,0,4,4,49,1,,,,,,,,,,,,,,,,,,,,,,,,,,,,,,,,,,,,,,,,,,,,,,,,,,,,,,,,,,,,,,,,,,,,,,,,,,,,,,,,,,,
,582545690541,BAC,22/12/1999,001,2023-04-07_17h10.22.279,OS3_Mult_verification,2022.2.4,Win32,30.00480077,,,,,,,,,,,,,,,,,,,,,,,,,,,,,,,,,,,,,,,,,,,,,,,,,,,,,,,,,,,,,,,,,,,,,,left,1,0.5361,,,,,,magnitude,3,1,3 | 1,2,0.06,0.06,neutral,left,0,5,5,60,1,,,,,,,,,,,,,,,,,,,,,,,,,,,,,,,,,,,,,,,,,,,,,,,,,,,,,,,,,,,,,,,,,,,,,,,,,,,,,,,,,,,
,582545690541,BAC,22/12/1999,001,2023-04-07_17h10.22.279,OS3_Mult_verification,2022.2.4,Win32,30.00480077,,,,,,,,,,,,,,,,,,,,,,,,,,,,,,,,,,,,,,,,,,,,,,,,,,,,,,,,,,,,,,,,,,,,,,left,1,0.6182,,,,,,magnitude,7,6,7 | 6,1,0.06,0.06,neutral,left,0,6,6,54,1,,,,,,,,,,,,,,,,,,,,,,,,,,,,,,,,,,,,,,,,,,,,,,,,,,,,,,,,,,,,,,,,,,,,,,,,,,,,,,,,,,,
,582545690541,BAC,22/12/1999,001,2023-04-07_17h10.22.279,OS3_Mult_verification,2022.2.4,Win32,30.00480077,,,,,,,,,,,,,,,,,,,,,,,,,,,,,,,,,,,,,,,,,,,,,,,,,,,,,,,,,,,,,,,,,,,,,,left,1,0.6685,,,,,,magnitude,8,6,8 | 6,2,0.05,0.065,incongruent,left,0,7,7,38,1,,,,,,,,,,,,,,,,,,,,,,,,,,,,,,,,,,,,,,,,,,,,,,,,,,,,,,,,,,,,,,,,,,,,,,,,,,,,,,,,,,,
,582545690541,BAC,22/12/1999,001,2023-04-07_17h10.22.279,OS3_Mult_verification,2022.2.4,Win32,30.00480077,,,,,,,,,,,,,,,,,,,,,,,,,,,,,,,,,,,,,,,,,,,,,,,,,,,,,,,,,,,,,,,,,,,,,,left,1,0.578,,,,,,magnitude,8,6,8 | 6,2,0.06,0.06,neutral,left,0,8,8,62,1,,,,,,,,,,,,,,,,,,,,,,,,,,,,,,,,,,,,,,,,,,,,,,,,,,,,,,,,,,,,,,,,,,,,,,,,,,,,,,,,,,,
,582545690541,BAC,22/12/1999,001,2023-04-07_17h10.22.279,OS3_Mult_verification,2022.2.4,Win32,30.00480077,,,,,,,,,,,,,,,,,,,,,,,,,,,,,,,,,,,,,,,,,,,,,,,,,,,,,,,,,,,,,,,,,,,,,,left,1,0.5107,,,,,,magnitude,7,2,7 | 2,5,0.06,0.06,neutral,left,0,9,9,69,1,,,,,,,,,,,,,,,,,,,,,,,,,,,,,,,,,,,,,,,,,,,,,,,,,,,,,,,,,,,,,,,,,,,,,,,,,,,,,,,,,,,
,582545690541,BAC,22/12/1999,001,2023-04-07_17h10.22.279,OS3_Mult_verification,2022.2.4,Win32,30.00480077,,,,,,,,,,,,,,,,,,,,,,,,,,,,,,,,,,,,,,,,,,,,,,,,,,,,,,,,,,,,,,,,,,,,,,right,1,0.5362,,,,,,magnitude,3,4,3 | 4,1,0.05,0.065,congruent,right,0,10,10,1,1,,,,,,,,,,,,,,,,,,,,,,,,,,,,,,,,,,,,,,,,,,,,,,,,,,,,,,,,,,,,,,,,,,,,,,,,,,,,,,,,,,,
,582545690541,BAC,22/12/1999,001,2023-04-07_17h10.22.279,OS3_Mult_verification,2022.2.4,Win32,30.00480077,,,,,,,,,,,,,,,,,,,,,,,,,,,,,,,,,,,,,,,,,,,,,,,,,,,,,,,,,,,,,,,,,,,,,,left,1,0.523,,,,,,magnitude,9,4,9 | 4,5,0.06,0.06,neutral,left,0,11,11,71,1,,,,,,,,,,,,,,,,,,,,,,,,,,,,,,,,,,,,,,,,,,,,,,,,,,,,,,,,,,,,,,,,,,,,,,,,,,,,,,,,,,,
,582545690541,BAC,22/12/1999,001,2023-04-07_17h10.22.279,OS3_Mult_verification,2022.2.4,Win32,30.00480077,,,,,,,,,,,,,,,,,,,,,,,,,,,,,,,,,,,,,,,,,,,,,,,,,,,,,,,,,,,,,,,,,,,,,,left,1,0.5345,,,,,,magnitude,6,1,6 | 1,5,0.06,0.06,neutral,left,0,12,12,68,1,,,,,,,,,,,,,,,,,,,,,,,,,,,,,,,,,,,,,,,,,,,,,,,,,,,,,,,,,,,,,,,,,,,,,,,,,,,,,,,,,,,
,582545690541,BAC,22/12/1999,001,2023-04-07_17h10.22.279,OS3_Mult_verification,2022.2.4,Win32,30.00480077,,,,,,,,,,,,,,,,,,,,,,,,,,,,,,,,,,,,,,,,,,,,,,,,,,,,,,,,,,,,,,,,,,,,,,right,1,0.9008,,,,,,magnitude,1,6,1 | 6,5,0.065,0.05,incongruent,right,0,13,13,40,1,,,,,,,,,,,,,,,,,,,,,,,,,,,,,,,,,,,,,,,,,,,,,,,,,,,,,,,,,,,,,,,,,,,,,,,,,,,,,,,,,,,
,582545690541,BAC,22/12/1999,001,2023-04-07_17h10.22.279,OS3_Mult_verification,2022.2.4,Win32,30.00480077,,,,,,,,,,,,,,,,,,,,,,,,,,,,,,,,,,,,,,,,,,,,,,,,,,,,,,,,,,,,,,,,,,,,,,left,1,0.6639,,,,,,magnitude,7,2,7 | 2,5,0.05,0.065,incongruent,left,0,14,14,45,1,,,,,,,,,,,,,,,,,,,,,,,,,,,,,,,,,,,,,,,,,,,,,,,,,,,,,,,,,,,,,,,,,,,,,,,,,,,,,,,,,,,
,582545690541,BAC,22/12/1999,001,2023-04-07_17h10.22.279,OS3_Mult_verification,2022.2.4,Win32,30.00480077,,,,,,,,,,,,,,,,,,,,,,,,,,,,,,,,,,,,,,,,,,,,,,,,,,,,,,,,,,,,,,,,,,,,,,left,1,0.5244,,,,,,magnitude,8,3,8 | 3,5,0.065,0.05,congruent,left,0,15,15,22,1,,,,,,,,,,,,,,,,,,,,,,,,,,,,,,,,,,,,,,,,,,,,,,,,,,,,,,,,,,,,,,,,,,,,,,,,,,,,,,,,,,,
,582545690541,BAC,22/12/1999,001,2023-04-07_17h10.22.279,OS3_Mult_verification,2022.2.4,Win32,30.00480077,,,,,,,,,,,,,,,,,,,,,,,,,,,,,,,,,,,,,,,,,,,,,,,,,,,,,,,,,,,,,,,,,,,,,,right,1,0.4782,,,,,,magnitude,1,6,1 | 6,5,0.06,0.06,neutral,right,0,16,16,64,1,,,,,,,,,,,,,,,,,,,,,,,,,,,,,,,,,,,,,,,,,,,,,,,,,,,,,,,,,,,,,,,,,,,,,,,,,,,,,,,,,,,
,582545690541,BAC,22/12/1999,001,2023-04-07_17h10.22.279,OS3_Mult_verification,2022.2.4,Win32,30.00480077,,,,,,,,,,,,,,,,,,,,,,,,,,,,,,,,,,,,,,,,,,,,,,,,,,,,,,,,,,,,,,,,,,,,,,left,1,0.5273,,,,,,magnitude,4,2,4 | 2,2,0.06,0.06,neutral,left,0,17,17,61,1,,,,,,,,,,,,,,,,,,,,,,,,,,,,,,,,,,,,,,,,,,,,,,,,,,,,,,,,,,,,,,,,,,,,,,,,,,,,,,,,,,,
,582545690541,BAC,22/12/1999,001,2023-04-07_17h10.22.279,OS3_Mult_verification,2022.2.4,Win32,30.00480077,,,,,,,,,,,,,,,,,,,,,,,,,,,,,,,,,,,,,,,,,,,,,,,,,,,,,,,,,,,,,,,,,,,,,,right,1,0.6486,,,,,,magnitude,6,7,6 | 7,1,0.06,0.06,neutral,right,0,18,18,50,1,,,,,,,,,,,,,,,,,,,,,,,,,,,,,,,,,,,,,,,,,,,,,,,,,,,,,,,,,,,,,,,,,,,,,,,,,,,,,,,,,,,
,582545690541,BAC,22/12/1999,001,2023-04-07_17h10.22.279,OS3_Mult_verification,2022.2.4,Win32,30.00480077,,,,,,,,,,,,,,,,,,,,,,,,,,,,,,,,,,,,,,,,,,,,,,,,,,,,,,,,,,,,,,,,,,,,,,left,1,0.5821,,,,,,magnitude,8,6,8 | 6,2,0.065,0.05,congruent,left,0,19,19,14,1,,,,,,,,,,,,,,,,,,,,,,,,,,,,,,,,,,,,,,,,,,,,,,,,,,,,,,,,,,,,,,,,,,,,,,,,,,,,,,,,,,,
,582545690541,BAC,22/12/1999,001,2023-04-07_17h10.22.279,OS3_Mult_verification,2022.2.4,Win32,30.00480077,,,,,,,,,,,,,,,,,,,,,,,,,,,,,,,,,,,,,,,,,,,,,,,,,,,,,,,,,,,,,,,,,,,,,,left,1,0.5236,,,,,,magnitude,3,1,3 | 1,2,0.065,0.05,congruent,left,0,20,20,12,1,,,,,,,,,,,,,,,,,,,,,,,,,,,,,,,,,,,,,,,,,,,,,,,,,,,,,,,,,,,,,,,,,,,,,,,,,,,,,,,,,,,
,582545690541,BAC,22/12/1999,001,2023-04-07_17h10.22.279,OS3_Mult_verification,2022.2.4,Win32,30.00480077,,,,,,,,,,,,,,,,,,,,,,,,,,,,,,,,,,,,,,,,,,,,,,,,,,,,,,,,,,,,,,,,,,,,,,left,1,0.6718,,,,,,magnitude,9,7,9 | 7,2,0.06,0.06,neutral,left,0,21,21,63,1,,,,,,,,,,,,,,,,,,,,,,,,,,,,,,,,,,,,,,,,,,,,,,,,,,,,,,,,,,,,,,,,,,,,,,,,,,,,,,,,,,,
,582545690541,BAC,22/12/1999,001,2023-04-07_17h10.22.279,OS3_Mult_verification,2022.2.4,Win32,30.00480077,,,,,,,,,,,,,,,,,,,,,,,,,,,,,,,,,,,,,,,,,,,,,,,,,,,,,,,,,,,,,,,,,,,,,,left,1,0.4771,,,,,,magnitude,9,7,9 | 7,2,0.05,0.065,incongruent,left,0,22,22,39,1,,,,,,,,,,,,,,,,,,,,,,,,,,,,,,,,,,,,,,,,,,,,,,,,,,,,,,,,,,,,,,,,,,,,,,,,,,,,,,,,,,,
,582545690541,BAC,22/12/1999,001,2023-04-07_17h10.22.279,OS3_Mult_verification,2022.2.4,Win32,30.00480077,,,,,,,,,,,,,,,,,,,,,,,,,,,,,,,,,,,,,,,,,,,,,,,,,,,,,,,,,,,,,,,,,,,,,,right,1,0.5288,,,,,,magnitude,7,9,7 | 9,2,0.065,0.05,incongruent,right,0,23,23,35,1,,,,,,,,,,,,,,,,,,,,,,,,,,,,,,,,,,,,,,,,,,,,,,,,,,,,,,,,,,,,,,,,,,,,,,,,,,,,,,,,,,,
,582545690541,BAC,22/12/1999,001,2023-04-07_17h10.22.279,OS3_Mult_verification,2022.2.4,Win32,30.00480077,,,,,,,,,,,,,,,,,,,,,,,,,,,,,,,,,,,,,,,,,,,,,,,,,,,,,,,,,,,,,,,,,,,,,,right,1,0.6759,,,,,,magnitude,3,4,3 | 4,1,0.065,0.05,incongruent,right,0,24,24,25,1,,,,,,,,,,,,,,,,,,,,,,,,,,,,,,,,,,,,,,,,,,,,,,,,,,,,,,,,,,,,,,,,,,,,,,,,,,,,,,,,,,,
,582545690541,BAC,22/12/1999,001,2023-04-07_17h10.22.279,OS3_Mult_verification,2022.2.4,Win32,30.00480077,,,,,,,,,,,,,,,,,,,,,,,,,,,,,,,,,,,,,,,,,,,,,,,,,,,,,,,,,,,,,,,,,,,,,,right,1,0.5836,,,,,,magnitude,2,7,2 | 7,5,0.06,0.06,neutral,right,0,25,25,65,1,,,,,,,,,,,,,,,,,,,,,,,,,,,,,,,,,,,,,,,,,,,,,,,,,,,,,,,,,,,,,,,,,,,,,,,,,,,,,,,,,,,
,582545690541,BAC,22/12/1999,001,2023-04-07_17h10.22.279,OS3_Mult_verification,2022.2.4,Win32,30.00480077,,,,,,,,,,,,,,,,,,,,,,,,,,,,,,,,,,,,,,,,,,,,,,,,,,,,,,,,,,,,,,,,,,,,,,right,1,0.636,,,,,,magnitude,2,4,2 | 4,2,0.06,0.06,neutral,right,0,26,26,57,1,,,,,,,,,,,,,,,,,,,,,,,,,,,,,,,,,,,,,,,,,,,,,,,,,,,,,,,,,,,,,,,,,,,,,,,,,,,,,,,,,,,
,582545690541,BAC,22/12/1999,001,2023-04-07_17h10.22.279,OS3_Mult_verification,2022.2.4,Win32,30.00480077,,,,,,,,,,,,,,,,,,,,,,,,,,,,,,,,,,,,,,,,,,,,,,,,,,,,,,,,,,,,,,,,,,,,,,right,1,0.5674,,,,,,magnitude,2,7,2 | 7,5,0.05,0.065,congruent,right,0,27,27,17,1,,,,,,,,,,,,,,,,,,,,,,,,,,,,,,,,,,,,,,,,,,,,,,,,,,,,,,,,,,,,,,,,,,,,,,,,,,,,,,,,,,,
,582545690541,BAC,22/12/1999,001,2023-04-07_17h10.22.279,OS3_Mult_verification,2022.2.4,Win32,30.00480077,,,,,,,,,,,,,,,,,,,,,,,,,,,,,,,,,,,,,,,,,,,,,,,,,,,,,,,,,,,,,,,,,,,,,,right,1,0.6308,,,,,,magnitude,1,3,1 | 3,2,0.05,0.065,congruent,right,0,28,28,8,1,,,,,,,,,,,,,,,,,,,,,,,,,,,,,,,,,,,,,,,,,,,,,,,,,,,,,,,,,,,,,,,,,,,,,,,,,,,,,,,,,,,
,582545690541,BAC,22/12/1999,001,2023-04-07_17h10.22.279,OS3_Mult_verification,2022.2.4,Win32,30.00480077,,,,,,,,,,,,,,,,,,,,,,,,,,,,,,,,,,,,,,,,,,,,,,,,,,,,,,,,,,,,,,,,,,,,,,left,1,0.5736,,,,,,magnitude,9,8,9 | 8,1,0.06,0.06,neutral,left,0,29,29,55,1,,,,,,,,,,,,,,,,,,,,,,,,,,,,,,,,,,,,,,,,,,,,,,,,,,,,,,,,,,,,,,,,,,,,,,,,,,,,,,,,,,,
,582545690541,BAC,22/12/1999,001,2023-04-07_17h10.22.279,OS3_Mult_verification,2022.2.4,Win32,30.00480077,,,,,,,,,,,,,,,,,,,,,,,,,,,,,,,,,,,,,,,,,,,,,,,,,,,,,,,,,,,,,,,,,,,,,,left,1,0.5833,,,,,,magnitude,4,3,4 | 3,1,0.05,0.065,incongruent,left,0,30,30,29,1,,,,,,,,,,,,,,,,,,,,,,,,,,,,,,,,,,,,,,,,,,,,,,,,,,,,,,,,,,,,,,,,,,,,,,,,,,,,,,,,,,,
,582545690541,BAC,22/12/1999,001,2023-04-07_17h10.22.279,OS3_Mult_verification,2022.2.4,Win32,30.00480077,,,,,,,,,,,,,,,,,,,,,,,,,,,,,,,,,,,,,,,,,,,,,,,,,,,,,,,,,,,,,,,,,,,,,,right,1,0.5422,,,,,,magnitude,8,9,8 | 9,1,0.05,0.065,congruent,right,0,31,31,3,1,,,,,,,,,,,,,,,,,,,,,,,,,,,,,,,,,,,,,,,,,,,,,,,,,,,,,,,,,,,,,,,,,,,,,,,,,,,,,,,,,,,
,582545690541,BAC,22/12/1999,001,2023-04-07_17h10.22.279,OS3_Mult_verification,2022.2.4,Win32,30.00480077,,,,,,,,,,,,,,,,,,,,,,,,,,,,,,,,,,,,,,,,,,,,,,,,,,,,,,,,,,,,,,,,,,,,,,right,1,0.5775,,,,,,magnitude,2,4,2 | 4,2,0.05,0.065,congruent,right,0,32,32,9,1,,,,,,,,,,,,,,,,,,,,,,,,,,,,,,,,,,,,,,,,,,,,,,,,,,,,,,,,,,,,,,,,,,,,,,,,,,,,,,,,,,,
,582545690541,BAC,22/12/1999,001,2023-04-07_17h10.22.279,OS3_Mult_verification,2022.2.4,Win32,30.00480077,,,,,,,,,,,,,,,,,,,,,,,,,,,,,,,,,,,,,,,,,,,,,,,,,,,,,,,,,,,,,,,,,,,,,,left,1,0.4898,,,,,,magnitude,8,3,8 | 3,5,0.06,0.06,neutral,left,0,33,33,70,1,,,,,,,,,,,,,,,,,,,,,,,,,,,,,,,,,,,,,,,,,,,,,,,,,,,,,,,,,,,,,,,,,,,,,,,,,,,,,,,,,,,
,582545690541,BAC,22/12/1999,001,2023-04-07_17h10.22.279,OS3_Mult_verification,2022.2.4,Win32,30.00480077,,,,,,,,,,,,,,,,,,,,,,,,,,,,,,,,,,,,,,,,,,,,,,,,,,,,,,,,,,,,,,,,,,,,,,right,1,0.5291,,,,,,magnitude,4,9,4 | 9,5,0.065,0.05,incongruent,right,0,34,34,43,1,,,,,,,,,,,,,,,,,,,,,,,,,,,,,,,,,,,,,,,,,,,,,,,,,,,,,,,,,,,,,,,,,,,,,,,,,,,,,,,,,,,
,582545690541,BAC,22/12/1999,001,2023-04-07_17h10.22.279,OS3_Mult_verification,2022.2.4,Win32,30.00480077,,,,,,,,,,,,,,,,,,,,,,,,,,,,,,,,,,,,,,,,,,,,,,,,,,,,,,,,,,,,,,,,,,,,,,right,1,0.7119,,,,,,magnitude,2,4,2 | 4,2,0.065,0.05,incongruent,right,0,35,35,33,1,,,,,,,,,,,,,,,,,,,,,,,,,,,,,,,,,,,,,,,,,,,,,,,,,,,,,,,,,,,,,,,,,,,,,,,,,,,,,,,,,,,
,582545690541,BAC,22/12/1999,001,2023-04-07_17h10.22.279,OS3_Mult_verification,2022.2.4,Win32,30.00480077,,,,,,,,,,,,,,,,,,,,,,,,,,,,,,,,,,,,,,,,,,,,,,,,,,,,,,,,,,,,,,,,,,,,,,left,1,0.5715,,,,,,magnitude,7,6,7 | 6,1,0.05,0.065,incongruent,left,0,36,36,30,1,,,,,,,,,,,,,,,,,,,,,,,,,,,,,,,,,,,,,,,,,,,,,,,,,,,,,,,,,,,,,,,,,,,,,,,,,,,,,,,,,,,
,582545690541,BAC,22/12/1999,001,2023-04-07_17h10.22.279,OS3_Mult_verification,2022.2.4,Win32,30.00480077,,,,,,,,,,,,,,,,,,,,,,,,,,,,,,,,,,,,,,,,,,,,,,,,,,,,,,,,,,,,,,,,,,,,,,right,1,0.5746,,,,,,magnitude,4,9,4 | 9,5,0.06,0.06,neutral,right,0,37,37,67,1,,,,,,,,,,,,,,,,,,,,,,,,,,,,,,,,,,,,,,,,,,,,,,,,,,,,,,,,,,,,,,,,,,,,,,,,,,,,,,,,,,,
,582545690541,BAC,22/12/1999,001,2023-04-07_17h10.22.279,OS3_Mult_verification,2022.2.4,Win32,30.00480077,,,,,,,,,,,,,,,,,,,,,,,,,,,,,,,,,,,,,,,,,,,,,,,,,,,,,,,,,,,,,,,,,,,,,,right,1,0.667,,,,,,magnitude,1,2,1 | 2,1,0.06,0.06,neutral,right,0,38,38,48,1,,,,,,,,,,,,,,,,,,,,,,,,,,,,,,,,,,,,,,,,,,,,,,,,,,,,,,,,,,,,,,,,,,,,,,,,,,,,,,,,,,,
,582545690541,BAC,22/12/1999,001,2023-04-07_17h10.22.279,OS3_Mult_verification,2022.2.4,Win32,30.00480077,,,,,,,,,,,,,,,,,,,,,,,,,,,,,,,,,,,,,,,,,,,,,,,,,,,,,,,,,,,,,,,,,,,,,,right,1,0.5357,,,,,,magnitude,6,8,6 | 8,2,0.05,0.065,congruent,right,0,39,39,10,1,,,,,,,,,,,,,,,,,,,,,,,,,,,,,,,,,,,,,,,,,,,,,,,,,,,,,,,,,,,,,,,,,,,,,,,,,,,,,,,,,,,
,582545690541,BAC,22/12/1999,001,2023-04-07_17h10.22.279,OS3_Mult_verification,2022.2.4,Win32,30.00480077,,,,,,,,,,,,,,,,,,,,,,,,,,,,,,,,,,,,,,,,,,,,,,,,,,,,,,,,,,,,,,,,,,,,,,left,1,0.5288,,,,,,magnitude,4,3,4 | 3,1,0.065,0.05,congruent,left,0,40,40,5,1,,,,,,,,,,,,,,,,,,,,,,,,,,,,,,,,,,,,,,,,,,,,,,,,,,,,,,,,,,,,,,,,,,,,,,,,,,,,,,,,,,,
,582545690541,BAC,22/12/1999,001,2023-04-07_17h10.22.279,OS3_Mult_verification,2022.2.4,Win32,30.00480077,,,,,,,,,,,,,,,,,,,,,,,,,,,,,,,,,,,,,,,,,,,,,,,,,,,,,,,,,,,,,,,,,,,,,,right,1,0.5781,,,,,,magnitude,3,8,3 | 8,5,0.065,0.05,incongruent,right,0,41,41,42,1,,,,,,,,,,,,,,,,,,,,,,,,,,,,,,,,,,,,,,,,,,,,,,,,,,,,,,,,,,,,,,,,,,,,,,,,,,,,,,,,,,,
,582545690541,BAC,22/12/1999,001,2023-04-07_17h10.22.279,OS3_Mult_verification,2022.2.4,Win32,30.00480077,,,,,,,,,,,,,,,,,,,,,,,,,,,,,,,,,,,,,,,,,,,,,,,,,,,,,,,,,,,,,,,,,,,,,,right,1,0.5324,,,,,,magnitude,6,8,6 | 8,2,0.065,0.05,incongruent,right,0,42,42,34,1,,,,,,,,,,,,,,,,,,,,,,,,,,,,,,,,,,,,,,,,,,,,,,,,,,,,,,,,,,,,,,,,,,,,,,,,,,,,,,,,,,,
,582545690541,BAC,22/12/1999,001,2023-04-07_17h10.22.279,OS3_Mult_verification,2022.2.4,Win32,30.00480077,,,,,,,,,,,,,,,,,,,,,,,,,,,,,,,,,,,,,,,,,,,,,,,,,,,,,,,,,,,,,,,,,,,,,,left,1,0.5301,,,,,,magnitude,2,1,2 | 1,1,0.06,0.06,neutral,left,0,43,43,52,1,,,,,,,,,,,,,,,,,,,,,,,,,,,,,,,,,,,,,,,,,,,,,,,,,,,,,,,,,,,,,,,,,,,,,,,,,,,,,,,,,,,
,582545690541,BAC,22/12/1999,001,2023-04-07_17h10.22.279,OS3_Mult_verification,2022.2.4,Win32,30.00480077,,,,,,,,,,,,,,,,,,,,,,,,,,,,,,,,,,,,,,,,,,,,,,,,,,,,,,,,,,,,,,,,,,,,,,right,1,0.5307,,,,,,magnitude,6,8,6 | 8,2,0.06,0.06,neutral,right,0,44,44,58,1,,,,,,,,,,,,,,,,,,,,,,,,,,,,,,,,,,,,,,,,,,,,,,,,,,,,,,,,,,,,,,,,,,,,,,,,,,,,,,,,,,,
,582545690541,BAC,22/12/1999,001,2023-04-07_17h10.22.279,OS3_Mult_verification,2022.2.4,Win32,30.00480077,,,,,,,,,,,,,,,,,,,,,,,,,,,,,,,,,,,,,,,,,,,,,,,,,,,,,,,,,,,,,,,,,,,,,,right,1,0.9232,,,,,,magnitude,1,2,1 | 2,1,0.065,0.05,incongruent,right,0,45,45,24,1,,,,,,,,,,,,,,,,,,,,,,,,,,,,,,,,,,,,,,,,,,,,,,,,,,,,,,,,,,,,,,,,,,,,,,,,,,,,,,,,,,,
,582545690541,BAC,22/12/1999,001,2023-04-07_17h10.22.279,OS3_Mult_verification,2022.2.4,Win32,30.00480077,,,,,,,,,,,,,,,,,,,,,,,,,,,,,,,,,,,,,,,,,,,,,,,,,,,,,,,,,,,,,,,,,,,,,,left,1,0.5871,,,,,,magnitude,2,1,2 | 1,1,0.065,0.05,congruent,left,0,46,46,4,1,,,,,,,,,,,,,,,,,,,,,,,,,,,,,,,,,,,,,,,,,,,,,,,,,,,,,,,,,,,,,,,,,,,,,,,,,,,,,,,,,,,
,582545690541,BAC,22/12/1999,001,2023-04-07_17h10.22.279,OS3_Mult_verification,2022.2.4,Win32,30.00480077,,,,,,,,,,,,,,,,,,,,,,,,,,,,,,,,,,,,,,,,,,,,,,,,,,,,,,,,,,,,,,,,,,,,,,right,1,0.4956,,,,,,magnitude,1,3,1 | 3,2,0.06,0.06,neutral,right,0,47,47,56,1,,,,,,,,,,,,,,,,,,,,,,,,,,,,,,,,,,,,,,,,,,,,,,,,,,,,,,,,,,,,,,,,,,,,,,,,,,,,,,,,,,,
,582545690541,BAC,22/12/1999,001,2023-04-07_17h10.22.279,OS3_Mult_verification,2022.2.4,Win32,30.00480077,,,,,,,,,,,,,,,,,,,,,,,,,,,,,,,,,,,,,,,,,,,,,,,,,,,,,,,,,,,,,,,,,,,,,,left,1,0.5903,,,,,,magnitude,9,8,9 | 8,1,0.05,0.065,incongruent,left,0,48,48,31,1,,,,,,,,,,,,,,,,,,,,,,,,,,,,,,,,,,,,,,,,,,,,,,,,,,,,,,,,,,,,,,,,,,,,,,,,,,,,,,,,,,,
,582545690541,BAC,22/12/1999,001,2023-04-07_17h10.22.279,OS3_Mult_verification,2022.2.4,Win32,30.00480077,,,,,,,,,,,,,,,,,,,,,,,,,,,,,,,,,,,,,,,,,,,,,,,,,,,,,,,,,,,,,,,,,,,,,,left,1,0.5239,,,,,,magnitude,6,1,6 | 1,5,0.05,0.065,incongruent,left,0,49,49,44,1,,,,,,,,,,,,,,,,,,,,,,,,,,,,,,,,,,,,,,,,,,,,,,,,,,,,,,,,,,,,,,,,,,,,,,,,,,,,,,,,,,,
,582545690541,BAC,22/12/1999,001,2023-04-07_17h10.22.279,OS3_Mult_verification,2022.2.4,Win32,30.00480077,,,,,,,,,,,,,,,,,,,,,,,,,,,,,,,,,,,,,,,,,,,,,,,,,,,,,,,,,,,,,,,,,,,,,,right,1,0.5349,,,,,,magnitude,7,9,7 | 9,2,0.06,0.06,neutral,right,0,50,50,59,1,,,,,,,,,,,,,,,,,,,,,,,,,,,,,,,,,,,,,,,,,,,,,,,,,,,,,,,,,,,,,,,,,,,,,,,,,,,,,,,,,,,
,582545690541,BAC,22/12/1999,001,2023-04-07_17h10.22.279,OS3_Mult_verification,2022.2.4,Win32,30.00480077,,,,,,,,,,,,,,,,,,,,,,,,,,,,,,,,,,,,,,,,,,,,,,,,,,,,,,,,,,,,,,,,,,,,,,left,1,0.536,,,,,,magnitude,9,4,9 | 4,5,0.065,0.05,congruent,left,0,51,51,23,1,,,,,,,,,,,,,,,,,,,,,,,,,,,,,,,,,,,,,,,,,,,,,,,,,,,,,,,,,,,,,,,,,,,,,,,,,,,,,,,,,,,
,582545690541,BAC,22/12/1999,001,2023-04-07_17h10.22.279,OS3_Mult_verification,2022.2.4,Win32,30.00480077,,,,,,,,,,,,,,,,,,,,,,,,,,,,,,,,,,,,,,,,,,,,,,,,,,,,,,,,,,,,,,,,,,,,,,left,1,0.6256,,,,,,magnitude,6,1,6 | 1,5,0.065,0.05,congruent,left,0,52,52,20,1,,,,,,,,,,,,,,,,,,,,,,,,,,,,,,,,,,,,,,,,,,,,,,,,,,,,,,,,,,,,,,,,,,,,,,,,,,,,,,,,,,,
,582545690541,BAC,22/12/1999,001,2023-04-07_17h10.22.279,OS3_Mult_verification,2022.2.4,Win32,30.00480077,,,,,,,,,,,,,,,,,,,,,,,,,,,,,,,,,,,,,,,,,,,,,,,,,,,,,,,,,,,,,,,,,,,,,,left,1,0.578,,,,,,magnitude,8,3,8 | 3,5,0.05,0.065,incongruent,left,0,53,53,46,1,,,,,,,,,,,,,,,,,,,,,,,,,,,,,,,,,,,,,,,,,,,,,,,,,,,,,,,,,,,,,,,,,,,,,,,,,,,,,,,,,,,
,582545690541,BAC,22/12/1999,001,2023-04-07_17h10.22.279,OS3_Mult_verification,2022.2.4,Win32,30.00480077,,,,,,,,,,,,,,,,,,,,,,,,,,,,,,,,,,,,,,,,,,,,,,,,,,,,,,,,,,,,,,,,,,,,,,right,1,0.5806,,,,,,magnitude,2,7,2 | 7,5,0.065,0.05,incongruent,right,0,54,54,41,1,,,,,,,,,,,,,,,,,,,,,,,,,,,,,,,,,,,,,,,,,,,,,,,,,,,,,,,,,,,,,,,,,,,,,,,,,,,,,,,,,,,
,582545690541,BAC,22/12/1999,001,2023-04-07_17h10.22.279,OS3_Mult_verification,2022.2.4,Win32,30.00480077,,,,,,,,,,,,,,,,,,,,,,,,,,,,,,,,,,,,,,,,,,,,,,,,,,,,,,,,,,,,,,,,,,,,,,right,1,0.485,,,,,,magnitude,3,8,3 | 8,5,0.05,0.065,congruent,right,0,55,55,18,1,,,,,,,,,,,,,,,,,,,,,,,,,,,,,,,,,,,,,,,,,,,,,,,,,,,,,,,,,,,,,,,,,,,,,,,,,,,,,,,,,,,
,582545690541,BAC,22/12/1999,001,2023-04-07_17h10.22.279,OS3_Mult_verification,2022.2.4,Win32,30.00480077,,,,,,,,,,,,,,,,,,,,,,,,,,,,,,,,,,,,,,,,,,,,,,,,,,,,,,,,,,,,,,,,,,,,,,left,1,0.5745,,,,,,magnitude,4,2,4 | 2,2,0.05,0.065,incongruent,left,0,56,56,37,1,,,,,,,,,,,,,,,,,,,,,,,,,,,,,,,,,,,,,,,,,,,,,,,,,,,,,,,,,,,,,,,,,,,,,,,,,,,,,,,,,,,
,582545690541,BAC,22/12/1999,001,2023-04-07_17h10.22.279,OS3_Mult_verification,2022.2.4,Win32,30.00480077,,,,,,,,,,,,,,,,,,,,,,,,,,,,,,,,,,,,,,,,,,,,,,,,,,,,,,,,,,,,,,,,,,,,,,left,1,0.483,,,,,,magnitude,4,3,4 | 3,1,0.06,0.06,neutral,left,0,57,57,53,1,,,,,,,,,,,,,,,,,,,,,,,,,,,,,,,,,,,,,,,,,,,,,,,,,,,,,,,,,,,,,,,,,,,,,,,,,,,,,,,,,,,
,582545690541,BAC,22/12/1999,001,2023-04-07_17h10.22.279,OS3_Mult_verification,2022.2.4,Win32,30.00480077,,,,,,,,,,,,,,,,,,,,,,,,,,,,,,,,,,,,,,,,,,,,,,,,,,,,,,,,,,,,,,,,,,,,,,left,1,0.4841,,,,,,magnitude,7,2,7 | 2,5,0.065,0.05,congruent,left,0,58,58,21,1,,,,,,,,,,,,,,,,,,,,,,,,,,,,,,,,,,,,,,,,,,,,,,,,,,,,,,,,,,,,,,,,,,,,,,,,,,,,,,,,,,,
,582545690541,BAC,22/12/1999,001,2023-04-07_17h10.22.279,OS3_Mult_verification,2022.2.4,Win32,30.00480077,,,,,,,,,,,,,,,,,,,,,,,,,,,,,,,,,,,,,,,,,,,,,,,,,,,,,,,,,,,,,,,,,,,,,,right,1,0.5877,,,,,,magnitude,8,9,8 | 9,1,0.06,0.06,neutral,right,0,59,59,51,1,,,,,,,,,,,,,,,,,,,,,,,,,,,,,,,,,,,,,,,,,,,,,,,,,,,,,,,,,,,,,,,,,,,,,,,,,,,,,,,,,,,
,582545690541,BAC,22/12/1999,001,2023-04-07_17h10.22.279,OS3_Mult_verification,2022.2.4,Win32,30.00480077,,,,,,,,,,,,,,,,,,,,,,,,,,,,,,,,,,,,,,,,,,,,,,,,,,,,,,,,,,,,,,,,,,,,,,right,1,0.6728,,,,,,magnitude,6,7,6 | 7,1,0.065,0.05,incongruent,right,0,60,60,26,1,,,,,,,,,,,,,,,,,,,,,,,,,,,,,,,,,,,,,,,,,,,,,,,,,,,,,,,,,,,,,,,,,,,,,,,,,,,,,,,,,,,
,582545690541,BAC,22/12/1999,001,2023-04-07_17h10.22.279,OS3_Mult_verification,2022.2.4,Win32,30.00480077,,,,,,,,,,,,,,,,,,,,,,,,,,,,,,,,,,,,,,,,,,,,,,,,,,,,,,,,,,,,,,,,,,,,,,right,1,0.5289,,,,,,magnitude,7,9,7 | 9,2,0.05,0.065,congruent,right,0,61,61,11,1,,,,,,,,,,,,,,,,,,,,,,,,,,,,,,,,,,,,,,,,,,,,,,,,,,,,,,,,,,,,,,,,,,,,,,,,,,,,,,,,,,,
,582545690541,BAC,22/12/1999,001,2023-04-07_17h10.22.279,OS3_Mult_verification,2022.2.4,Win32,30.00480077,,,,,,,,,,,,,,,,,,,,,,,,,,,,,,,,,,,,,,,,,,,,,,,,,,,,,,,,,,,,,,,,,,,,,,right,1,0.5312,,,,,,magnitude,3,8,3 | 8,5,0.06,0.06,neutral,right,0,62,62,66,1,,,,,,,,,,,,,,,,,,,,,,,,,,,,,,,,,,,,,,,,,,,,,,,,,,,,,,,,,,,,,,,,,,,,,,,,,,,,,,,,,,,
,582545690541,BAC,22/12/1999,001,2023-04-07_17h10.22.279,OS3_Mult_verification,2022.2.4,Win32,30.00480077,,,,,,,,,,,,,,,,,,,,,,,,,,,,,,,,,,,,,,,,,,,,,,,,,,,,,,,,,,,,,,,,,,,,,,left,1,0.5797,,,,,,magnitude,9,4,9 | 4,5,0.05,0.065,incongruent,left,0,63,63,47,1,,,,,,,,,,,,,,,,,,,,,,,,,,,,,,,,,,,,,,,,,,,,,,,,,,,,,,,,,,,,,,,,,,,,,,,,,,,,,,,,,,,
,582545690541,BAC,22/12/1999,001,2023-04-07_17h10.22.279,OS3_Mult_verification,2022.2.4,Win32,30.00480077,,,,,,,,,,,,,,,,,,,,,,,,,,,,,,,,,,,,,,,,,,,,,,,,,,,,,,,,,,,,,,,,,,,,,,right,1,0.6322,,,,,,magnitude,1,3,1 | 3,2,0.065,0.05,incongruent,right,0,64,64,32,1,,,,,,,,,,,,,,,,,,,,,,,,,,,,,,,,,,,,,,,,,,,,,,,,,,,,,,,,,,,,,,,,,,,,,,,,,,,,,,,,,,,
,582545690541,BAC,22/12/1999,001,2023-04-07_17h10.22.279,OS3_Mult_verification,2022.2.4,Win32,30.00480077,,,,,,,,,,,,,,,,,,,,,,,,,,,,,,,,,,,,,,,,,,,,,,,,,,,,,,,,,,,,,,,,,,,,,,right,1,0.5827,,,,,,magnitude,1,2,1 | 2,1,0.05,0.065,congruent,right,0,65,65,0,1,,,,,,,,,,,,,,,,,,,,,,,,,,,,,,,,,,,,,,,,,,,,,,,,,,,,,,,,,,,,,,,,,,,,,,,,,,,,,,,,,,,
,582545690541,BAC,22/12/1999,001,2023-04-07_17h10.22.279,OS3_Mult_verification,2022.2.4,Win32,30.00480077,,,,,,,,,,,,,,,,,,,,,,,,,,,,,,,,,,,,,,,,,,,,,,,,,,,,,,,,,,,,,,,,,,,,,,right,1,0.7228,,,,,,magnitude,8,9,8 | 9,1,0.065,0.05,incongruent,right,0,66,66,27,1,,,,,,,,,,,,,,,,,,,,,,,,,,,,,,,,,,,,,,,,,,,,,,,,,,,,,,,,,,,,,,,,,,,,,,,,,,,,,,,,,,,
,582545690541,BAC,22/12/1999,001,2023-04-07_17h10.22.279,OS3_Mult_verification,2022.2.4,Win32,30.00480077,,,,,,,,,,,,,,,,,,,,,,,,,,,,,,,,,,,,,,,,,,,,,,,,,,,,,,,,,,,,,,,,,,,,,,left,1,0.5755,,,,,,magnitude,3,1,3 | 1,2,0.05,0.065,incongruent,left,0,67,67,36,1,,,,,,,,,,,,,,,,,,,,,,,,,,,,,,,,,,,,,,,,,,,,,,,,,,,,,,,,,,,,,,,,,,,,,,,,,,,,,,,,,,,
,582545690541,BAC,22/12/1999,001,2023-04-07_17h10.22.279,OS3_Mult_verification,2022.2.4,Win32,30.00480077,,,,,,,,,,,,,,,,,,,,,,,,,,,,,,,,,,,,,,,,,,,,,,,,,,,,,,,,,,,,,,,,,,,,,,left,1,0.623,,,,,,magnitude,7,6,7 | 6,1,0.065,0.05,congruent,left,0,68,68,6,1,,,,,,,,,,,,,,,,,,,,,,,,,,,,,,,,,,,,,,,,,,,,,,,,,,,,,,,,,,,,,,,,,,,,,,,,,,,,,,,,,,,
,582545690541,BAC,22/12/1999,001,2023-04-07_17h10.22.279,OS3_Mult_verification,2022.2.4,Win32,30.00480077,,,,,,,,,,,,,,,,,,,,,,,,,,,,,,,,,,,,,,,,,,,,,,,,,,,,,,,,,,,,,,,,,,,,,,right,1,0.5578,,,,,,magnitude,1,6,1 | 6,5,0.05,0.065,congruent,right,0,69,69,16,1,,,,,,,,,,,,,,,,,,,,,,,,,,,,,,,,,,,,,,,,,,,,,,,,,,,,,,,,,,,,,,,,,,,,,,,,,,,,,,,,,,,
,582545690541,BAC,22/12/1999,001,2023-04-07_17h10.22.279,OS3_Mult_verification,2022.2.4,Win32,30.00480077,,,,,,,,,,,,,,,,,,,,,,,,,,,,,,,,,,,,,,,,,,,,,,,,,,,,,,,,,,,,,,,,,,,,,,right,1,0.4876,,,,,,magnitude,4,9,4 | 9,5,0.05,0.065,congruent,right,0,70,70,19,1,,,,,,,,,,,,,,,,,,,,,,,,,,,,,,,,,,,,,,,,,,,,,,,,,,,,,,,,,,,,,,,,,,,,,,,,,,,,,,,,,,,
,582545690541,BAC,22/12/1999,001,2023-04-07_17h10.22.279,OS3_Mult_verification,2022.2.4,Win32,30.00480077,,,,,,,,,,,,,,,,,,,,,,,,,,,,,,,,,,,,,,,,,,,,,,,,,,,,,,,,,,,,,,,,,,,,,,left,1,0.5343,,,,,,magnitude,9,8,9 | 8,1,0.065,0.05,congruent,left,0,71,71,7,1,,,,,,,,,,,,,,,,,,,,,,,,,,,,,,,,,,,,,,,,,,,,,,,,,,,,,,,,,,,,,,,,,,,,,,,,,,,,,,,,,,,
,582545690541,BAC,22/12/1999,001,2023-04-07_17h10.22.279,OS3_Mult_verification,2022.2.4,Win32,30.00480077,,,,,,,,,,,,,,,,,,,,,,,,,,,,,,,,,,,,,,,,,,,,,,,,,,,,,,,,,,,,,,,,,,,,,,,,,,,,,,,,,,,,,,,,,,,,0,0,0,0,1,stroop_stim/magnitude.xlsx,stroop_stim/prac_magnitude.xlsx,NUMERICALLY larger (larger coefficient).,images/numericallyLarger.png,,,,,,,,,,,,,,,,,,,,,,,,,,,,,,,,,,,,,,,,,,,,,,,,,,,,,,,,,,,,,,,,,,,,,,,,,,
,582545690541,BAC,22/12/1999,001,2023-04-07_17h10.22.279,OS3_Mult_verification,2022.2.4,Win32,30.00480077,,,,,,,,,,,,,,,,space,1.1893,,,,,,,,,,,,,,,,,,,,,,,,,,,,,,,,,,,,,,,,,,,,,,,,,,,,,left,1,0.764,0,0,0,0,1,practice,9,8,9 | 8,1,0.065,0.05,congruent,left,,,,,,,,,,,,,,,,,,,,,,,,,,,,,,,,,,,,,,,,,,,,,,,,,,,,,,,,,,,,,,,,,,,,,,,,,,,,,,,,,,,,,,,,
,582545690541,BAC,22/12/1999,001,2023-04-07_17h10.22.279,OS3_Mult_verification,2022.2.4,Win32,30.00480077,,,,,,,,,,,,,,,,,,,,,,,,,,,,,,,,,,,,,,,,,,,,,,,,,,,,,,,,,,,,,,,,,,,,,,right,1,0.4416,0,1,1,2,1,practice,9,9,9 | 9,0,0.05,0.065,neutral,right,,,,,,,,,,,,,,,,,,,,,,,,,,,,,,,,,,,,,,,,,,,,,,,,,,,,,,,,,,,,,,,,,,,,,,,,,,,,,,,,,,,,,,,,
,582545690541,BAC,22/12/1999,001,2023-04-07_17h10.22.279,OS3_Mult_verification,2022.2.4,Win32,30.00480077,,,,,,,,,,,,,,,,,,,,,,,,,,,,,,,,,,,,,,,,,,,,,,,,,,,,,,,,,,,,,,,,,,,,,,right,1,0.4422,0,2,2,1,1,practice,4,3,4 | 3,1,0.05,0.065,incongruent,right,,,,,,,,,,,,,,,,,,,,,,,,,,,,,,,,,,,,,,,,,,,,,,,,,,,,,,,,,,,,,,,,,,,,,,,,,,,,,,,,,,,,,,,,
,582545690541,BAC,22/12/1999,001,2023-04-07_17h10.22.279,OS3_Mult_verification,2022.2.4,Win32,30.00480077,,,,,,,,,,,,,,,,,,,,,,,,,,,,,,,,,,,,,,,,,,,,,,,,,,,,,,,,,,,,,,,,,,,,,,left,0,0.4887,,,,,,physical,2,1,2 | 1,1,0.05,0.065,incongruent,right,0,0,0,28,1,,,,,,,,,,,,,,,,,,,,,,,,,,,,,,,,,,,,,,,,,,,,,,,,,,,,,,,,,,,,,,,,,,,,,,,,,,,,,,,,,,,
,582545690541,BAC,22/12/1999,001,2023-04-07_17h10.22.279,OS3_Mult_verification,2022.2.4,Win32,30.00480077,,,,,,,,,,,,,,,,,,,,,,,,,,,,,,,,,,,,,,,,,,,,,,,,,,,,,,,,,,,,,,,,,,,,,,left,1,0.6289,,,,,,physical,4,2,4 | 2,2,0.065,0.05,congruent,left,0,1,1,13,1,,,,,,,,,,,,,,,,,,,,,,,,,,,,,,,,,,,,,,,,,,,,,,,,,,,,,,,,,,,,,,,,,,,,,,,,,,,,,,,,,,,
,582545690541,BAC,22/12/1999,001,2023-04-07_17h10.22.279,OS3_Mult_verification,2022.2.4,Win32,30.00480077,,,,,,,,,,,,,,,,,,,,,,,,,,,,,,,,,,,,,,,,,,,,,,,,,,,,,,,,,,,,,,,,,,,,,,left,1,0.576,,,,,,physical,7,7,7 | 7,0,0.065,0.05,neutral,left,0,2,2,54,1,,,,,,,,,,,,,,,,,,,,,,,,,,,,,,,,,,,,,,,,,,,,,,,,,,,,,,,,,,,,,,,,,,,,,,,,,,,,,,,,,,,
,582545690541,BAC,22/12/1999,001,2023-04-07_17h10.22.279,OS3_Mult_verification,2022.2.4,Win32,30.00480077,,,,,,,,,,,,,,,,,,,,,,,,,,,,,,,,,,,,,,,,,,,,,,,,,,,,,,,,,,,,,,,,,,,,,,left,1,0.5266,,,,,,physical,4,3,4 | 3,1,0.065,0.05,congruent,left,0,3,3,5,1,,,,,,,,,,,,,,,,,,,,,,,,,,,,,,,,,,,,,,,,,,,,,,,,,,,,,,,,,,,,,,,,,,,,,,,,,,,,,,,,,,,
,582545690541,BAC,22/12/1999,001,2023-04-07_17h10.22.279,OS3_Mult_verification,2022.2.4,Win32,30.00480077,,,,,,,,,,,,,,,,,,,,,,,,,,,,,,,,,,,,,,,,,,,,,,,,,,,,,,,,,,,,,,,,,,,,,,right,1,0.4361,,,,,,physical,7,6,7 | 6,1,0.05,0.065,incongruent,right,0,4,4,30,1,,,,,,,,,,,,,,,,,,,,,,,,,,,,,,,,,,,,,,,,,,,,,,,,,,,,,,,,,,,,,,,,,,,,,,,,,,,,,,,,,,,
,582545690541,BAC,22/12/1999,001,2023-04-07_17h10.22.279,OS3_Mult_verification,2022.2.4,Win32,30.00480077,,,,,,,,,,,,,,,,,,,,,,,,,,,,,,,,,,,,,,,,,,,,,,,,,,,,,,,,,,,,,,,,,,,,,,left,1,0.524,,,,,,physical,8,8,8 | 8,0,0.065,0.05,neutral,left,0,5,5,70,1,,,,,,,,,,,,,,,,,,,,,,,,,,,,,,,,,,,,,,,,,,,,,,,,,,,,,,,,,,,,,,,,,,,,,,,,,,,,,,,,,,,
,582545690541,BAC,22/12/1999,001,2023-04-07_17h10.22.279,OS3_Mult_verification,2022.2.4,Win32,30.00480077,,,,,,,,,,,,,,,,,,,,,,,,,,,,,,,,,,,,,,,,,,,,,,,,,,,,,,,,,,,,,,,,,,,,,,right,1,0.5347,,,,,,physical,1,1,1 | 1,0,0.05,0.065,neutral,right,0,6,6,56,1,,,,,,,,,,,,,,,,,,,,,,,,,,,,,,,,,,,,,,,,,,,,,,,,,,,,,,,,,,,,,,,,,,,,,,,,,,,,,,,,,,,
,582545690541,BAC,22/12/1999,001,2023-04-07_17h10.22.279,OS3_Mult_verification,2022.2.4,Win32,30.00480077,,,,,,,,,,,,,,,,,,,,,,,,,,,,,,,,,,,,,,,,,,,,,,,,,,,,,,,,,,,,,,,,,,,,,,right,1,0.5861,,,,,,physical,2,7,2 | 7,5,0.05,0.065,congruent,right,0,7,7,17,1,,,,,,,,,,,,,,,,,,,,,,,,,,,,,,,,,,,,,,,,,,,,,,,,,,,,,,,,,,,,,,,,,,,,,,,,,,,,,,,,,,,
,582545690541,BAC,22/12/1999,001,2023-04-07_17h10.22.279,OS3_Mult_verification,2022.2.4,Win32,30.00480077,,,,,,,,,,,,,,,,,,,,,,,,,,,,,,,,,,,,,,,,,,,,,,,,,,,,,,,,,,,,,,,,,,,,,,right,1,0.5374,,,,,,physical,9,9,9 | 9,0,0.05,0.065,neutral,right,0,8,8,63,1,,,,,,,,,,,,,,,,,,,,,,,,,,,,,,,,,,,,,,,,,,,,,,,,,,,,,,,,,,,,,,,,,,,,,,,,,,,,,,,,,,,
,582545690541,BAC,22/12/1999,001,2023-04-07_17h10.22.279,OS3_Mult_verification,2022.2.4,Win32,30.00480077,,,,,,,,,,,,,,,,,,,,,,,,,,,,,,,,,,,,,,,,,,,,,,,,,,,,,,,,,,,,,,,,,,,,,,left,1,1.0462,,,,,,physical,6,1,6 | 1,5,0.065,0.05,congruent,left,0,9,9,20,1,,,,,,,,,,,,,,,,,,,,,,,,,,,,,,,,,,,,,,,,,,,,,,,,,,,,,,,,,,,,,,,,,,,,,,,,,,,,,,,,,,,
,582545690541,BAC,22/12/1999,001,2023-04-07_17h10.22.279,OS3_Mult_verification,2022.2.4,Win32,30.00480077,,,,,,,,,,,,,,,,,,,,,,,,,,,,,,,,,,,,,,,,,,,,,,,,,,,,,,,,,,,,,,,,,,,,,,left,1,0.5769,,,,,,physical,8,9,8 | 9,1,0.065,0.05,incongruent,left,0,10,10,27,1,,,,,,,,,,,,,,,,,,,,,,,,,,,,,,,,,,,,,,,,,,,,,,,,,,,,,,,,,,,,,,,,,,,,,,,,,,,,,,,,,,,
,582545690541,BAC,22/12/1999,001,2023-04-07_17h10.22.279,OS3_Mult_verification,2022.2.4,Win32,30.00480077,,,,,,,,,,,,,,,,,,,,,,,,,,,,,,,,,,,,,,,,,,,,,,,,,,,,,,,,,,,,,,,,,,,,,,right,1,0.7732,,,,,,physical,7,2,7 | 2,5,0.05,0.065,incongruent,right,0,11,11,45,1,,,,,,,,,,,,,,,,,,,,,,,,,,,,,,,,,,,,,,,,,,,,,,,,,,,,,,,,,,,,,,,,,,,,,,,,,,,,,,,,,,,
,582545690541,BAC,22/12/1999,001,2023-04-07_17h10.22.279,OS3_Mult_verification,2022.2.4,Win32,30.00480077,,,,,,,,,,,,,,,,,,,,,,,,,,,,,,,,,,,,,,,,,,,,,,,,,,,,,,,,,,,,,,,,,,,,,,left,1,0.5362,,,,,,physical,9,7,9 | 7,2,0.065,0.05,congruent,left,0,12,12,15,1,,,,,,,,,,,,,,,,,,,,,,,,,,,,,,,,,,,,,,,,,,,,,,,,,,,,,,,,,,,,,,,,,,,,,,,,,,,,,,,,,,,
,582545690541,BAC,22/12/1999,001,2023-04-07_17h10.22.279,OS3_Mult_verification,2022.2.4,Win32,30.00480077,,,,,,,,,,,,,,,,,,,,,,,,,,,,,,,,,,,,,,,,,,,,,,,,,,,,,,,,,,,,,,,,,,,,,,right,1,0.5318,,,,,,physical,6,6,6 | 6,0,0.05,0.065,neutral,right,0,13,13,58,1,,,,,,,,,,,,,,,,,,,,,,,,,,,,,,,,,,,,,,,,,,,,,,,,,,,,,,,,,,,,,,,,,,,,,,,,,,,,,,,,,,,
,582545690541,BAC,22/12/1999,001,2023-04-07_17h10.22.279,OS3_Mult_verification,2022.2.4,Win32,30.00480077,,,,,,,,,,,,,,,,,,,,,,,,,,,,,,,,,,,,,,,,,,,,,,,,,,,,,,,,,,,,,,,,,,,,,,left,1,0.4806,,,,,,physical,2,1,2 | 1,1,0.065,0.05,congruent,left,0,14,14,4,1,,,,,,,,,,,,,,,,,,,,,,,,,,,,,,,,,,,,,,,,,,,,,,,,,,,,,,,,,,,,,,,,,,,,,,,,,,,,,,,,,,,
,582545690541,BAC,22/12/1999,001,2023-04-07_17h10.22.279,OS3_Mult_verification,2022.2.4,Win32,30.00480077,,,,,,,,,,,,,,,,,,,,,,,,,,,,,,,,,,,,,,,,,,,,,,,,,,,,,,,,,,,,,,,,,,,,,,right,1,0.5733,,,,,,physical,2,4,2 | 4,2,0.05,0.065,congruent,right,0,15,15,9,1,,,,,,,,,,,,,,,,,,,,,,,,,,,,,,,,,,,,,,,,,,,,,,,,,,,,,,,,,,,,,,,,,,,,,,,,,,,,,,,,,,,
,582545690541,BAC,22/12/1999,001,2023-04-07_17h10.22.279,OS3_Mult_verification,2022.2.4,Win32,30.00480077,,,,,,,,,,,,,,,,,,,,,,,,,,,,,,,,,,,,,,,,,,,,,,,,,,,,,,,,,,,,,,,,,,,,,,left,1,0.4889,,,,,,physical,7,6,7 | 6,1,0.065,0.05,congruent,left,0,16,16,6,1,,,,,,,,,,,,,,,,,,,,,,,,,,,,,,,,,,,,,,,,,,,,,,,,,,,,,,,,,,,,,,,,,,,,,,,,,,,,,,,,,,,
,582545690541,BAC,22/12/1999,001,2023-04-07_17h10.22.279,OS3_Mult_verification,2022.2.4,Win32,30.00480077,,,,,,,,,,,,,,,,,,,,,,,,,,,,,,,,,,,,,,,,,,,,,,,,,,,,,,,,,,,,,,,,,,,,,,right,1,0.6367,,,,,,physical,9,7,9 | 7,2,0.05,0.065,incongruent,right,0,17,17,39,1,,,,,,,,,,,,,,,,,,,,,,,,,,,,,,,,,,,,,,,,,,,,,,,,,,,,,,,,,,,,,,,,,,,,,,,,,,,,,,,,,,,
,582545690541,BAC,22/12/1999,001,2023-04-07_17h10.22.279,OS3_Mult_verification,2022.2.4,Win32,30.00480077,,,,,,,,,,,,,,,,,,,,,,,,,,,,,,,,,,,,,,,,,,,,,,,,,,,,,,,,,,,,,,,,,,,,,,left,1,0.4888,,,,,,physical,3,3,3 | 3,0,0.065,0.05,neutral,left,0,18,18,66,1,,,,,,,,,,,,,,,,,,,,,,,,,,,,,,,,,,,,,,,,,,,,,,,,,,,,,,,,,,,,,,,,,,,,,,,,,,,,,,,,,,,
,582545690541,BAC,22/12/1999,001,2023-04-07_17h10.22.279,OS3_Mult_verification,2022.2.4,Win32,30.00480077,,,,,,,,,,,,,,,,,,,,,,,,,,,,,,,,,,,,,,,,,,,,,,,,,,,,,,,,,,,,,,,,,,,,,,left,1,0.4802,,,,,,physical,7,2,7 | 2,5,0.065,0.05,congruent,left,0,19,19,21,1,,,,,,,,,,,,,,,,,,,,,,,,,,,,,,,,,,,,,,,,,,,,,,,,,,,,,,,,,,,,,,,,,,,,,,,,,,,,,,,,,,,
,582545690541,BAC,22/12/1999,001,2023-04-07_17h10.22.279,OS3_Mult_verification,2022.2.4,Win32,30.00480077,,,,,,,,,,,,,,,,,,,,,,,,,,,,,,,,,,,,,,,,,,,,,,,,,,,,,,,,,,,,,,,,,,,,,,left,1,0.4305,,,,,,physical,8,3,8 | 3,5,0.065,0.05,congruent,left,0,20,20,22,1,,,,,,,,,,,,,,,,,,,,,,,,,,,,,,,,,,,,,,,,,,,,,,,,,,,,,,,,,,,,,,,,,,,,,,,,,,,,,,,,,,,
,582545690541,BAC,22/12/1999,001,2023-04-07_17h10.22.279,OS3_Mult_verification,2022.2.4,Win32,30.00480077,,,,,,,,,,,,,,,,,,,,,,,,,,,,,,,,,,,,,,,,,,,,,,,,,,,,,,,,,,,,,,,,,,,,,,right,1,0.5378,,,,,,physical,8,6,8 | 6,2,0.05,0.065,incongruent,right,0,21,21,38,1,,,,,,,,,,,,,,,,,,,,,,,,,,,,,,,,,,,,,,,,,,,,,,,,,,,,,,,,,,,,,,,,,,,,,,,,,,,,,,,,,,,
,582545690541,BAC,22/12/1999,001,2023-04-07_17h10.22.279,OS3_Mult_verification,2022.2.4,Win32,30.00480077,,,,,,,,,,,,,,,,,,,,,,,,,,,,,,,,,,,,,,,,,,,,,,,,,,,,,,,,,,,,,,,,,,,,,,left,1,0.487,,,,,,physical,3,8,3 | 8,5,0.065,0.05,incongruent,left,0,22,22,42,1,,,,,,,,,,,,,,,,,,,,,,,,,,,,,,,,,,,,,,,,,,,,,,,,,,,,,,,,,,,,,,,,,,,,,,,,,,,,,,,,,,,
,582545690541,BAC,22/12/1999,001,2023-04-07_17h10.22.279,OS3_Mult_verification,2022.2.4,Win32,30.00480077,,,,,,,,,,,,,,,,,,,,,,,,,,,,,,,,,,,,,,,,,,,,,,,,,,,,,,,,,,,,,,,,,,,,,,right,1,0.5323,,,,,,physical,3,4,3 | 4,1,0.05,0.065,congruent,right,0,23,23,1,1,,,,,,,,,,,,,,,,,,,,,,,,,,,,,,,,,,,,,,,,,,,,,,,,,,,,,,,,,,,,,,,,,,,,,,,,,,,,,,,,,,,
,582545690541,BAC,22/12/1999,001,2023-04-07_17h10.22.279,OS3_Mult_verification,2022.2.4,Win32,30.00480077,,,,,,,,,,,,,,,,,,,,,,,,,,,,,,,,,,,,,,,,,,,,,,,,,,,,,,,,,,,,,,,,,,,,,,left,1,0.5756,,,,,,physical,1,2,1 | 2,1,0.065,0.05,incongruent,left,0,24,24,24,1,,,,,,,,,,,,,,,,,,,,,,,,,,,,,,,,,,,,,,,,,,,,,,,,,,,,,,,,,,,,,,,,,,,,,,,,,,,,,,,,,,,
,582545690541,BAC,22/12/1999,001,2023-04-07_17h10.22.279,OS3_Mult_verification,2022.2.4,Win32,30.00480077,,,,,,,,,,,,,,,,,,,,,,,,,,,,,,,,,,,,,,,,,,,,,,,,,,,,,,,,,,,,,,,,,,,,,,left,1,0.4813,,,,,,physical,3,1,3 | 1,2,0.065,0.05,congruent,left,0,25,25,12,1,,,,,,,,,,,,,,,,,,,,,,,,,,,,,,,,,,,,,,,,,,,,,,,,,,,,,,,,,,,,,,,,,,,,,,,,,,,,,,,,,,,
,582545690541,BAC,22/12/1999,001,2023-04-07_17h10.22.279,OS3_Mult_verification,2022.2.4,Win32,30.00480077,,,,,,,,,,,,,,,,,,,,,,,,,,,,,,,,,,,,,,,,,,,,,,,,,,,,,,,,,,,,,,,,,,,,,,left,1,0.5376,,,,,,physical,1,1,1 | 1,0,0.065,0.05,neutral,left,0,26,26,48,1,,,,,,,,,,,,,,,,,,,,,,,,,,,,,,,,,,,,,,,,,,,,,,,,,,,,,,,,,,,,,,,,,,,,,,,,,,,,,,,,,,,
,582545690541,BAC,22/12/1999,001,2023-04-07_17h10.22.279,OS3_Mult_verification,2022.2.4,Win32,30.00480077,,,,,,,,,,,,,,,,,,,,,,,,,,,,,,,,,,,,,,,,,,,,,,,,,,,,,,,,,,,,,,,,,,,,,,left,1,0.7147,,,,,,physical,4,4,4 | 4,0,0.065,0.05,neutral,left,0,27,27,53,1,,,,,,,,,,,,,,,,,,,,,,,,,,,,,,,,,,,,,,,,,,,,,,,,,,,,,,,,,,,,,,,,,,,,,,,,,,,,,,,,,,,
,582545690541,BAC,22/12/1999,001,2023-04-07_17h10.22.279,OS3_Mult_verification,2022.2.4,Win32,30.00480077,,,,,,,,,,,,,,,,,,,,,,,,,,,,,,,,,,,,,,,,,,,,,,,,,,,,,,,,,,,,,,,,,,,,,,left,1,0.7294,,,,,,physical,6,6,6 | 6,0,0.065,0.05,neutral,left,0,28,28,68,1,,,,,,,,,,,,,,,,,,,,,,,,,,,,,,,,,,,,,,,,,,,,,,,,,,,,,,,,,,,,,,,,,,,,,,,,,,,,,,,,,,,
,582545690541,BAC,22/12/1999,001,2023-04-07_17h10.22.279,OS3_Mult_verification,2022.2.4,Win32,30.00480077,,,,,,,,,,,,,,,,,,,,,,,,,,,,,,,,,,,,,,,,,,,,,,,,,,,,,,,,,,,,,,,,,,,,,,right,1,0.4864,,,,,,physical,1,6,1 | 6,5,0.05,0.065,congruent,right,0,29,29,16,1,,,,,,,,,,,,,,,,,,,,,,,,,,,,,,,,,,,,,,,,,,,,,,,,,,,,,,,,,,,,,,,,,,,,,,,,,,,,,,,,,,,
,582545690541,BAC,22/12/1999,001,2023-04-07_17h10.22.279,OS3_Mult_verification,2022.2.4,Win32,30.00480077,,,,,,,,,,,,,,,,,,,,,,,,,,,,,,,,,,,,,,,,,,,,,,,,,,,,,,,,,,,,,,,,,,,,,,right,1,0.5882,,,,,,physical,2,2,2 | 2,0,0.05,0.065,neutral,right,0,30,30,65,1,,,,,,,,,,,,,,,,,,,,,,,,,,,,,,,,,,,,,,,,,,,,,,,,,,,,,,,,,,,,,,,,,,,,,,,,,,,,,,,,,,,
,582545690541,BAC,22/12/1999,001,2023-04-07_17h10.22.279,OS3_Mult_verification,2022.2.4,Win32,30.00480077,,,,,,,,,,,,,,,,,,,,,,,,,,,,,,,,,,,,,,,,,,,,,,,,,,,,,,,,,,,,,,,,,,,,,,left,1,0.4775,,,,,,physical,8,8,8 | 8,0,0.065,0.05,neutral,left,0,31,31,51,1,,,,,,,,,,,,,,,,,,,,,,,,,,,,,,,,,,,,,,,,,,,,,,,,,,,,,,,,,,,,,,,,,,,,,,,,,,,,,,,,,,,
,582545690541,BAC,22/12/1999,001,2023-04-07_17h10.22.279,OS3_Mult_verification,2022.2.4,Win32,30.00480077,,,,,,,,,,,,,,,,,,,,,,,,,,,,,,,,,,,,,,,,,,,,,,,,,,,,,,,,,,,,,,,,,,,,,,left,1,0.4368,,,,,,physical,3,3,3 | 3,0,0.065,0.05,neutral,left,0,32,32,49,1,,,,,,,,,,,,,,,,,,,,,,,,,,,,,,,,,,,,,,,,,,,,,,,,,,,,,,,,,,,,,,,,,,,,,,,,,,,,,,,,,,,
,582545690541,BAC,22/12/1999,001,2023-04-07_17h10.22.279,OS3_Mult_verification,2022.2.4,Win32,30.00480077,,,,,,,,,,,,,,,,,,,,,,,,,,,,,,,,,,,,,,,,,,,,,,,,,,,,,,,,,,,,,,,,,,,,,,left,1,0.4352,,,,,,physical,6,8,6 | 8,2,0.065,0.05,incongruent,left,0,33,33,34,1,,,,,,,,,,,,,,,,,,,,,,,,,,,,,,,,,,,,,,,,,,,,,,,,,,,,,,,,,,,,,,,,,,,,,,,,,,,,,,,,,,,
,582545690541,BAC,22/12/1999,001,2023-04-07_17h10.22.279,OS3_Mult_verification,2022.2.4,Win32,30.00480077,,,,,,,,,,,,,,,,,,,,,,,,,,,,,,,,,,,,,,,,,,,,,,,,,,,,,,,,,,,,,,,,,,,,,,right,1,0.434,,,,,,physical,4,3,4 | 3,1,0.05,0.065,incongruent,right,0,34,34,29,1,,,,,,,,,,,,,,,,,,,,,,,,,,,,,,,,,,,,,,,,,,,,,,,,,,,,,,,,,,,,,,,,,,,,,,,,,,,,,,,,,,,
,582545690541,BAC,22/12/1999,001,2023-04-07_17h10.22.279,OS3_Mult_verification,2022.2.4,Win32,30.00480077,,,,,,,,,,,,,,,,,,,,,,,,,,,,,,,,,,,,,,,,,,,,,,,,,,,,,,,,,,,,,,,,,,,,,,right,1,0.4349,,,,,,physical,4,4,4 | 4,0,0.05,0.065,neutral,right,0,35,35,67,1,,,,,,,,,,,,,,,,,,,,,,,,,,,,,,,,,,,,,,,,,,,,,,,,,,,,,,,,,,,,,,,,,,,,,,,,,,,,,,,,,,,
,582545690541,BAC,22/12/1999,001,2023-04-07_17h10.22.279,OS3_Mult_verification,2022.2.4,Win32,30.00480077,,,,,,,,,,,,,,,,,,,,,,,,,,,,,,,,,,,,,,,,,,,,,,,,,,,,,,,,,,,,,,,,,,,,,,right,1,0.5752,,,,,,physical,9,8,9 | 8,1,0.05,0.065,incongruent,right,0,36,36,31,1,,,,,,,,,,,,,,,,,,,,,,,,,,,,,,,,,,,,,,,,,,,,,,,,,,,,,,,,,,,,,,,,,,,,,,,,,,,,,,,,,,,
,582545690541,BAC,22/12/1999,001,2023-04-07_17h10.22.279,OS3_Mult_verification,2022.2.4,Win32,30.00480077,,,,,,,,,,,,,,,,,,,,,,,,,,,,,,,,,,,,,,,,,,,,,,,,,,,,,,,,,,,,,,,,,,,,,,right,1,0.5332,,,,,,physical,4,2,4 | 2,2,0.05,0.065,incongruent,right,0,37,37,37,1,,,,,,,,,,,,,,,,,,,,,,,,,,,,,,,,,,,,,,,,,,,,,,,,,,,,,,,,,,,,,,,,,,,,,,,,,,,,,,,,,,,
,582545690541,BAC,22/12/1999,001,2023-04-07_17h10.22.279,OS3_Mult_verification,2022.2.4,Win32,30.00480077,,,,,,,,,,,,,,,,,,,,,,,,,,,,,,,,,,,,,,,,,,,,,,,,,,,,,,,,,,,,,,,,,,,,,,right,1,0.4827,,,,,,physical,3,8,3 | 8,5,0.05,0.065,congruent,right,0,38,38,18,1,,,,,,,,,,,,,,,,,,,,,,,,,,,,,,,,,,,,,,,,,,,,,,,,,,,,,,,,,,,,,,,,,,,,,,,,,,,,,,,,,,,
,582545690541,BAC,22/12/1999,001,2023-04-07_17h10.22.279,OS3_Mult_verification,2022.2.4,Win32,30.00480077,,,,,,,,,,,,,,,,,,,,,,,,,,,,,,,,,,,,,,,,,,,,,,,,,,,,,,,,,,,,,,,,,,,,,,left,1,0.5332,,,,,,physical,2,7,2 | 7,5,0.065,0.05,incongruent,left,0,39,39,41,1,,,,,,,,,,,,,,,,,,,,,,,,,,,,,,,,,,,,,,,,,,,,,,,,,,,,,,,,,,,,,,,,,,,,,,,,,,,,,,,,,,,
,582545690541,BAC,22/12/1999,001,2023-04-07_17h10.22.279,OS3_Mult_verification,2022.2.4,Win32,30.00480077,,,,,,,,,,,,,,,,,,,,,,,,,,,,,,,,,,,,,,,,,,,,,,,,,,,,,,,,,,,,,,,,,,,,,,left,1,0.4784,,,,,,physical,1,3,1 | 3,2,0.065,0.05,incongruent,left,0,40,40,32,1,,,,,,,,,,,,,,,,,,,,,,,,,,,,,,,,,,,,,,,,,,,,,,,,,,,,,,,,,,,,,,,,,,,,,,,,,,,,,,,,,,,
