windowSize,participant,group,DOB (DD/MM/YEAR),session,date,expName,psychopyVersion,OS,frameRate,typing_instr_resp.keys,typing_instr_resp.rt,typing_response,typing_rt,typing_score,typingSpeed_input_resp.keys,typingSpeed_input_resp.rt,typing_speed_trials.thisRepN,typing_speed_trials.thisTrialN,typing_speed_trials.thisN,typing_speed_trials.thisIndex,typing_speed_trials.ran,typing_speed_stim,typing_report_resp.keys,typing_report_resp.rt,vpt_trial_resp1.keys,vpt_trial_resp1.rt,typedResponse,fluency_rt,fluency_score,fluencyInputResp.keys,fluencyInputResp.rt,fluencyPracLoop.thisRepN,fluencyPracLoop.thisTrialN,fluencyPracLoop.thisN,fluencyPracLoop.thisIndex,fluencyPracLoop.ran,problem,answers,fluencyLoop.thisRepN,fluencyLoop.thisTrialN,fluencyLoop.thisN,fluencyLoop.thisIndex,fluencyLoop.ran,sampleAudio_resp.keys,sampleAudio_resp.rt,subjResponse,audio_rt,DS_score,inputResp.keys,inputResp.rt,audioPracticeLoop.thisRepN,audioPracticeLoop.thisTrialN,audioPracticeLoop.thisN,audioPracticeLoop.thisIndex,audioPracticeLoop.ran,digitSpan,digits_audioStim,soundsFile,typeDS,audioTrials_Loop.thisRepN,audioTrials_Loop.thisTrialN,audioTrials_Loop.thisN,audioTrials_Loop.thisIndex,audioTrials_Loop.ran,audioBlocks_loop.thisRepN,audioBlocks_loop.thisTrialN,audioBlocks_loop.thisN,audioBlocks_loop.thisIndex,audioBlocks_loop.ran,ConditionFile,digitSpanTask_loop.thisRepN,digitSpanTask_loop.thisTrialN,digitSpanTask_loop.thisN,digitSpanTask_loop.thisIndex,digitSpanTask_loop.ran,dsFile,TASK_C.thisRepN,TASK_C.thisTrialN,TASK_C.thisN,TASK_C.thisIndex,TASK_C.ran,controlTaskOrder.thisRepN,controlTaskOrder.thisTrialN,controlTaskOrder.thisN,controlTaskOrder.thisIndex,controlTaskOrder.ran,nRepsTask1,nRepsTask2,nRepsTask3,vptCorrect,vpt_rt,respMouse.x,respMouse.y,respMouse.leftButton,respMouse.midButton,respMouse.rightButton,vptPracticeLoop.thisRepN,vptPracticeLoop.thisTrialN,vptPracticeLoop.thisN,vptPracticeLoop.thisIndex,vptPracticeLoop.ran,trialType,tiles,rows,cols,vptTrialLoop.thisRepN,vptTrialLoop.thisTrialN,vptTrialLoop.thisN,vptTrialLoop.thisIndex,vptTrialLoop.ran,noOfBlocks,TASK_B.thisRepN,TASK_B.thisTrialN,TASK_B.thisN,TASK_B.thisIndex,TASK_B.ran,stroopResp.keys,stroopResp.corr,stroopResp.rt,stroopPracLoop.thisRepN,stroopPracLoop.thisTrialN,stroopPracLoop.thisN,stroopPracLoop.thisIndex,stroopPracLoop.ran,stroopCond,leftNo,rightNo,displayProblem,numDistance,leftNo_size,rightNo_size,Dims,keyAnswer,stroopLoop.thisRepN,stroopLoop.thisTrialN,stroopLoop.thisN,stroopLoop.thisIndex,stroopLoop.ran,stroopBlocks.thisRepN,stroopBlocks.thisTrialN,stroopBlocks.thisN,stroopBlocks.thisIndex,stroopBlocks.ran,stroop_condition,stroop_pracFile,ActionInst,instrImage,TASK_A.thisRepN,TASK_A.thisTrialN,TASK_A.thisN,TASK_A.thisIndex,TASK_A.ran,veriStim_resp.keys,veriStim_resp.corr,veriStim_resp.rt,verificationPracLoop.thisRepN,verificationPracLoop.thisTrialN,verificationPracLoop.thisN,verificationPracLoop.thisIndex,verificationPracLoop.ran,mult_problem,mult_answer,mult_type,error_distance,interferenceScore,problemType,interferenceLevel,problemSize,img_leftButton,img_rightButton,veriLoop.thisRepN,veriLoop.thisTrialN,veriLoop.thisN,veriLoop.thisIndex,veriLoop.ran,veriBlock.thisRepN,veriBlock.thisTrialN,veriBlock.thisN,veriBlock.thisIndex,veriBlock.ran,verificationFiles,end_resp.keys,end_resp.rt
"[1440,821]",8242,CBA,20/06/2002,001,2023-04-20_13h49.20.135,OS3_Mult_verification,2022.2.4,MacIntel,60.0024001,,,,,,,,,,,,,,,,,,,,,,,,,,,,,,,,,,,,,,,,,,,,,,,,,,,,,,,,,,,,,,,,,,,,,,,,,,,,,,,,,,,,,,,,,,,,,,,,,,,,,,,,,,,,,,,,,,,,,,,,,,,,,,,,,,,,,,,,,,,,,,,,,,,,,,,,,,,,,,,,,,,,,,,,,,,,,,
,8242,CBA,20/06/2002,001,2023-04-20_13h49.20.135,OS3_Mult_verification,2022.2.4,MacIntel,60.0024001,,,,,,,,,,,,,,,,,,,,,,,,,,,,,,,,,,,,,,,,,,,,,,,,,,,,,,,,,,,,,,,,,,,,,,,,,,,,,,,,,,,,,,,,,,,,,,,,,,,,,,,,,,,,,,,,,,,,,,,,,,,,,,,,,,,,,,,,,,,,,,,,,,,,,,,,,,,,,,,,,,,,,,,,,,,,,,
,8242,CBA,20/06/2002,001,2023-04-20_13h49.20.135,OS3_Mult_verification,2022.2.4,MacIntel,60.0024001,space,31.2145,,,,,,,,,,,,,,,,,,,,,,,,,,,,,,,,,,,,,,,,,,,,,,,,,,,,,,,,,,,,,,,,,,,,,,,,,,,,,,,,,,,,,,,,,,,,,,,,,,,,,,,,,,,,,,,,,,,,,,,,,,,,,,,,,,,,,,,,,,,,,,,,,,,,,,,,,,,,,,,,,,,,,,,,,,,,
,8242,CBA,20/06/2002,001,2023-04-20_13h49.20.135,OS3_Mult_verification,2022.2.4,MacIntel,60.0024001,,,25,2.3675,1,"[""2"",""5"",""return""]","[1.137500000000017,1.43129999995233,2.33459999990464]",0,0,0,13,1,25,,,,,,,,,,,,,,,,,,,,,,,,,,,,,,,,,,,,,,,,,,,,,,,,,,,,,,,,,,,,,,,,,,,,,,,,,,,,,,,,,,,,,,,,,,,,,,,,,,,,,,,,,,,,,,,,,,,,,,,,,,,,,,,,,,,,,,,,,,,,,,,,,,,,,,,,,,,,,,,,,
,8242,CBA,20/06/2002,001,2023-04-20_13h49.20.135,OS3_Mult_verification,2022.2.4,MacIntel,60.0024001,,,14,1.2141,1,"[""1"",""4"",""return""]","[0.8447999999523006,1.0002000000476698,1.1779999999999973]",0,1,1,6,1,14,,,,,,,,,,,,,,,,,,,,,,,,,,,,,,,,,,,,,,,,,,,,,,,,,,,,,,,,,,,,,,,,,,,,,,,,,,,,,,,,,,,,,,,,,,,,,,,,,,,,,,,,,,,,,,,,,,,,,,,,,,,,,,,,,,,,,,,,,,,,,,,,,,,,,,,,,,,,,,,,,
,8242,CBA,20/06/2002,001,2023-04-20_13h49.20.135,OS3_Mult_verification,2022.2.4,MacIntel,60.0024001,,,12,0.8353,1,"[""1"",""2"",""return""]","[0.5158000001907226,0.6012000000476689,0.8024000000953606]",0,2,2,5,1,12,,,,,,,,,,,,,,,,,,,,,,,,,,,,,,,,,,,,,,,,,,,,,,,,,,,,,,,,,,,,,,,,,,,,,,,,,,,,,,,,,,,,,,,,,,,,,,,,,,,,,,,,,,,,,,,,,,,,,,,,,,,,,,,,,,,,,,,,,,,,,,,,,,,,,,,,,,,,,,,,,
,8242,CBA,20/06/2002,001,2023-04-20_13h49.20.135,OS3_Mult_verification,2022.2.4,MacIntel,60.0024001,,,40,2.7174,1,"[""4"",""1"",""backspace"",""0"",""return""]","[1.0013999998569432,1.1355999999046276,1.8325999999046303,2.335000000000008,2.691599999904639]",0,3,3,20,1,40,,,,,,,,,,,,,,,,,,,,,,,,,,,,,,,,,,,,,,,,,,,,,,,,,,,,,,,,,,,,,,,,,,,,,,,,,,,,,,,,,,,,,,,,,,,,,,,,,,,,,,,,,,,,,,,,,,,,,,,,,,,,,,,,,,,,,,,,,,,,,,,,,,,,,,,,,,,,,,,,,
,8242,CBA,20/06/2002,001,2023-04-20_13h49.20.135,OS3_Mult_verification,2022.2.4,MacIntel,60.0024001,,,16,1.5488,1,"[""1"",""6"",""return""]","[0.9395999999046296,1.2036999998092597,1.5192999999523238]",0,4,4,8,1,16,,,,,,,,,,,,,,,,,,,,,,,,,,,,,,,,,,,,,,,,,,,,,,,,,,,,,,,,,,,,,,,,,,,,,,,,,,,,,,,,,,,,,,,,,,,,,,,,,,,,,,,,,,,,,,,,,,,,,,,,,,,,,,,,,,,,,,,,,,,,,,,,,,,,,,,,,,,,,,,,,
,8242,CBA,20/06/2002,001,2023-04-20_13h49.20.135,OS3_Mult_verification,2022.2.4,MacIntel,60.0024001,,,56,1.2618,1,"[""5"",""6"",""return""]","[0.9997000000476817,1.0949999999999989,1.2286000001430466]",0,5,5,26,1,56,,,,,,,,,,,,,,,,,,,,,,,,,,,,,,,,,,,,,,,,,,,,,,,,,,,,,,,,,,,,,,,,,,,,,,,,,,,,,,,,,,,,,,,,,,,,,,,,,,,,,,,,,,,,,,,,,,,,,,,,,,,,,,,,,,,,,,,,,,,,,,,,,,,,,,,,,,,,,,,,,
,8242,CBA,20/06/2002,001,2023-04-20_13h49.20.135,OS3_Mult_verification,2022.2.4,MacIntel,60.0024001,,,8,1.479,1,"[""8"",""return""]","[1.2335999999046408,1.4487000000476655]",0,6,6,2,1,8,,,,,,,,,,,,,,,,,,,,,,,,,,,,,,,,,,,,,,,,,,,,,,,,,,,,,,,,,,,,,,,,,,,,,,,,,,,,,,,,,,,,,,,,,,,,,,,,,,,,,,,,,,,,,,,,,,,,,,,,,,,,,,,,,,,,,,,,,,,,,,,,,,,,,,,,,,,,,,,,,
,8242,CBA,20/06/2002,001,2023-04-20_13h49.20.135,OS3_Mult_verification,2022.2.4,MacIntel,60.0024001,,,9,1.0359,1,"[""9"",""return""]","[0.8496000001430559,1.0049000000953754]",0,7,7,3,1,9,,,,,,,,,,,,,,,,,,,,,,,,,,,,,,,,,,,,,,,,,,,,,,,,,,,,,,,,,,,,,,,,,,,,,,,,,,,,,,,,,,,,,,,,,,,,,,,,,,,,,,,,,,,,,,,,,,,,,,,,,,,,,,,,,,,,,,,,,,,,,,,,,,,,,,,,,,,,,,,,,
,8242,CBA,20/06/2002,001,2023-04-20_13h49.20.135,OS3_Mult_verification,2022.2.4,MacIntel,60.0024001,,,4,0.9975,1,"[""4"",""return""]","[0.8307000000476705,0.9679000000953693]",0,8,8,0,1,4,,,,,,,,,,,,,,,,,,,,,,,,,,,,,,,,,,,,,,,,,,,,,,,,,,,,,,,,,,,,,,,,,,,,,,,,,,,,,,,,,,,,,,,,,,,,,,,,,,,,,,,,,,,,,,,,,,,,,,,,,,,,,,,,,,,,,,,,,,,,,,,,,,,,,,,,,,,,,,,,,
,8242,CBA,20/06/2002,001,2023-04-20_13h49.20.135,OS3_Mult_verification,2022.2.4,MacIntel,60.0024001,,,54,1.2497,1,"[""5"",""4"",""return""]","[0.9837000000476621,1.0510999999046362,1.2225999999046167]",0,9,9,25,1,54,,,,,,,,,,,,,,,,,,,,,,,,,,,,,,,,,,,,,,,,,,,,,,,,,,,,,,,,,,,,,,,,,,,,,,,,,,,,,,,,,,,,,,,,,,,,,,,,,,,,,,,,,,,,,,,,,,,,,,,,,,,,,,,,,,,,,,,,,,,,,,,,,,,,,,,,,,,,,,,,,
,8242,CBA,20/06/2002,001,2023-04-20_13h49.20.135,OS3_Mult_verification,2022.2.4,MacIntel,60.0024001,,,21,0.9843,1,"[""2"",""1"",""return""]","[0.6812999999523015,0.8052000000476767,0.9485999999046157]",0,10,10,11,1,21,,,,,,,,,,,,,,,,,,,,,,,,,,,,,,,,,,,,,,,,,,,,,,,,,,,,,,,,,,,,,,,,,,,,,,,,,,,,,,,,,,,,,,,,,,,,,,,,,,,,,,,,,,,,,,,,,,,,,,,,,,,,,,,,,,,,,,,,,,,,,,,,,,,,,,,,,,,,,,,,,
,8242,CBA,20/06/2002,001,2023-04-20_13h49.20.135,OS3_Mult_verification,2022.2.4,MacIntel,60.0024001,,,81,1.3846,1,"[""8"",""1"",""return""]","[0.9042999999523147,1.200200000047687,1.350500000000011]",0,11,11,30,1,81,,,,,,,,,,,,,,,,,,,,,,,,,,,,,,,,,,,,,,,,,,,,,,,,,,,,,,,,,,,,,,,,,,,,,,,,,,,,,,,,,,,,,,,,,,,,,,,,,,,,,,,,,,,,,,,,,,,,,,,,,,,,,,,,,,,,,,,,,,,,,,,,,,,,,,,,,,,,,,,,,
,8242,CBA,20/06/2002,001,2023-04-20_13h49.20.135,OS3_Mult_verification,2022.2.4,MacIntel,60.0024001,,,6,1.0844,1,"[""6"",""return""]","[0.883499999999998,1.05639999985695]",0,12,12,1,1,6,,,,,,,,,,,,,,,,,,,,,,,,,,,,,,,,,,,,,,,,,,,,,,,,,,,,,,,,,,,,,,,,,,,,,,,,,,,,,,,,,,,,,,,,,,,,,,,,,,,,,,,,,,,,,,,,,,,,,,,,,,,,,,,,,,,,,,,,,,,,,,,,,,,,,,,,,,,,,,,,,
,8242,CBA,20/06/2002,001,2023-04-20_13h49.20.135,OS3_Mult_verification,2022.2.4,MacIntel,60.0024001,,,35,1.7681,1,"[""3"",""5"",""return""]","[1.434799999952304,1.5678999998569338,1.7342999999523272]",0,13,13,18,1,35,,,,,,,,,,,,,,,,,,,,,,,,,,,,,,,,,,,,,,,,,,,,,,,,,,,,,,,,,,,,,,,,,,,,,,,,,,,,,,,,,,,,,,,,,,,,,,,,,,,,,,,,,,,,,,,,,,,,,,,,,,,,,,,,,,,,,,,,,,,,,,,,,,,,,,,,,,,,,,,,,
,8242,CBA,20/06/2002,001,2023-04-20_13h49.20.135,OS3_Mult_verification,2022.2.4,MacIntel,60.0024001,,,32,0.953,1,"[""3"",""2"",""return""]","[0.6845999999046342,0.7848999998569468,0.915899999856947]",0,14,14,17,1,32,,,,,,,,,,,,,,,,,,,,,,,,,,,,,,,,,,,,,,,,,,,,,,,,,,,,,,,,,,,,,,,,,,,,,,,,,,,,,,,,,,,,,,,,,,,,,,,,,,,,,,,,,,,,,,,,,,,,,,,,,,,,,,,,,,,,,,,,,,,,,,,,,,,,,,,,,,,,,,,,,
,8242,CBA,20/06/2002,001,2023-04-20_13h49.20.135,OS3_Mult_verification,2022.2.4,MacIntel,60.0024001,,,63,1.3326,1,"[""6"",""3"",""return""]","[0.851299999952289,1.0834999999999866,1.3009000000953677]",0,15,15,27,1,63,,,,,,,,,,,,,,,,,,,,,,,,,,,,,,,,,,,,,,,,,,,,,,,,,,,,,,,,,,,,,,,,,,,,,,,,,,,,,,,,,,,,,,,,,,,,,,,,,,,,,,,,,,,,,,,,,,,,,,,,,,,,,,,,,,,,,,,,,,,,,,,,,,,,,,,,,,,,,,,,,
,8242,CBA,20/06/2002,001,2023-04-20_13h49.20.135,OS3_Mult_verification,2022.2.4,MacIntel,60.0024001,,,18,1.1684,1,"[""1"",""8"",""return""]","[0.7147000000476851,1.0159999999999911,1.1330000000000098]",0,16,16,9,1,18,,,,,,,,,,,,,,,,,,,,,,,,,,,,,,,,,,,,,,,,,,,,,,,,,,,,,,,,,,,,,,,,,,,,,,,,,,,,,,,,,,,,,,,,,,,,,,,,,,,,,,,,,,,,,,,,,,,,,,,,,,,,,,,,,,,,,,,,,,,,,,,,,,,,,,,,,,,,,,,,,
,8242,CBA,20/06/2002,001,2023-04-20_13h49.20.135,OS3_Mult_verification,2022.2.4,MacIntel,60.0024001,,,30,1.7652,1,"[""3"",""0"",""return""]","[1.4180999999046264,1.549799999952313,1.734599999904617]",0,17,17,16,1,30,,,,,,,,,,,,,,,,,,,,,,,,,,,,,,,,,,,,,,,,,,,,,,,,,,,,,,,,,,,,,,,,,,,,,,,,,,,,,,,,,,,,,,,,,,,,,,,,,,,,,,,,,,,,,,,,,,,,,,,,,,,,,,,,,,,,,,,,,,,,,,,,,,,,,,,,,,,,,,,,,
,8242,CBA,20/06/2002,001,2023-04-20_13h49.20.135,OS3_Mult_verification,2022.2.4,MacIntel,60.0024001,,,64,1.8674,1,"[""6"",""4"",""return""]","[1.573799999952314,1.6831999998092897,1.8326999998092788]",0,18,18,28,1,64,,,,,,,,,,,,,,,,,,,,,,,,,,,,,,,,,,,,,,,,,,,,,,,,,,,,,,,,,,,,,,,,,,,,,,,,,,,,,,,,,,,,,,,,,,,,,,,,,,,,,,,,,,,,,,,,,,,,,,,,,,,,,,,,,,,,,,,,,,,,,,,,,,,,,,,,,,,,,,,,,
,8242,CBA,20/06/2002,001,2023-04-20_13h49.20.135,OS3_Mult_verification,2022.2.4,MacIntel,60.0024001,,,42,1.2698,1,"[""4"",""2"",""return""]","[0.9526000001430361,1.0679000000953636,1.2340000000000089]",0,19,19,21,1,42,,,,,,,,,,,,,,,,,,,,,,,,,,,,,,,,,,,,,,,,,,,,,,,,,,,,,,,,,,,,,,,,,,,,,,,,,,,,,,,,,,,,,,,,,,,,,,,,,,,,,,,,,,,,,,,,,,,,,,,,,,,,,,,,,,,,,,,,,,,,,,,,,,,,,,,,,,,,,,,,,
,8242,CBA,20/06/2002,001,2023-04-20_13h49.20.135,OS3_Mult_verification,2022.2.4,MacIntel,60.0024001,,,36,1.6827,1,"[""3"",""6"",""return""]","[1.0039000000953706,1.4235999999046385,1.649000000000001]",0,20,20,19,1,36,,,,,,,,,,,,,,,,,,,,,,,,,,,,,,,,,,,,,,,,,,,,,,,,,,,,,,,,,,,,,,,,,,,,,,,,,,,,,,,,,,,,,,,,,,,,,,,,,,,,,,,,,,,,,,,,,,,,,,,,,,,,,,,,,,,,,,,,,,,,,,,,,,,,,,,,,,,,,,,,,
,8242,CBA,20/06/2002,001,2023-04-20_13h49.20.135,OS3_Mult_verification,2022.2.4,MacIntel,60.0024001,,,72,1.4658,1,"[""7"",""2"",""return""]","[1.0662000000477008,1.2392000000477026,1.4308999998569618]",0,21,21,29,1,72,,,,,,,,,,,,,,,,,,,,,,,,,,,,,,,,,,,,,,,,,,,,,,,,,,,,,,,,,,,,,,,,,,,,,,,,,,,,,,,,,,,,,,,,,,,,,,,,,,,,,,,,,,,,,,,,,,,,,,,,,,,,,,,,,,,,,,,,,,,,,,,,,,,,,,,,,,,,,,,,,
,8242,CBA,20/06/2002,001,2023-04-20_13h49.20.135,OS3_Mult_verification,2022.2.4,MacIntel,60.0024001,,,28,1.2659,1,"[""2"",""8"",""return""]","[0.9334000000953608,1.06870000004767,1.2306000001430561]",0,22,22,15,1,28,,,,,,,,,,,,,,,,,,,,,,,,,,,,,,,,,,,,,,,,,,,,,,,,,,,,,,,,,,,,,,,,,,,,,,,,,,,,,,,,,,,,,,,,,,,,,,,,,,,,,,,,,,,,,,,,,,,,,,,,,,,,,,,,,,,,,,,,,,,,,,,,,,,,,,,,,,,,,,,,,
,8242,CBA,20/06/2002,001,2023-04-20_13h49.20.135,OS3_Mult_verification,2022.2.4,MacIntel,60.0024001,,,20,1.6503,1,"[""2"",""0"",""return""]","[1.0831000001430482,1.3002000000476812,1.615800000190717]",0,23,23,10,1,20,,,,,,,,,,,,,,,,,,,,,,,,,,,,,,,,,,,,,,,,,,,,,,,,,,,,,,,,,,,,,,,,,,,,,,,,,,,,,,,,,,,,,,,,,,,,,,,,,,,,,,,,,,,,,,,,,,,,,,,,,,,,,,,,,,,,,,,,,,,,,,,,,,,,,,,,,,,,,,,,,
,8242,CBA,20/06/2002,001,2023-04-20_13h49.20.135,OS3_Mult_verification,2022.2.4,MacIntel,60.0024001,,,49,1.7679,1,"[""4"",""9"",""return""]","[1.3169000000953588,1.5840000000000032,1.7347999999523154]",0,24,24,24,1,49,,,,,,,,,,,,,,,,,,,,,,,,,,,,,,,,,,,,,,,,,,,,,,,,,,,,,,,,,,,,,,,,,,,,,,,,,,,,,,,,,,,,,,,,,,,,,,,,,,,,,,,,,,,,,,,,,,,,,,,,,,,,,,,,,,,,,,,,,,,,,,,,,,,,,,,,,,,,,,,,,
,8242,CBA,20/06/2002,001,2023-04-20_13h49.20.135,OS3_Mult_verification,2022.2.4,MacIntel,60.0024001,,,24,1.3503,1,"[""2"",""4"",""return""]","[0.8332999999523167,1.1665000000000134,1.3174999999999955]",0,25,25,12,1,24,,,,,,,,,,,,,,,,,,,,,,,,,,,,,,,,,,,,,,,,,,,,,,,,,,,,,,,,,,,,,,,,,,,,,,,,,,,,,,,,,,,,,,,,,,,,,,,,,,,,,,,,,,,,,,,,,,,,,,,,,,,,,,,,,,,,,,,,,,,,,,,,,,,,,,,,,,,,,,,,,
,8242,CBA,20/06/2002,001,2023-04-20_13h49.20.135,OS3_Mult_verification,2022.2.4,MacIntel,60.0024001,,,27,1.1334,1,"[""2"",""7"",""return""]","[0.6182000000476933,0.953000000000003,1.100900000095379]",0,26,26,14,1,27,,,,,,,,,,,,,,,,,,,,,,,,,,,,,,,,,,,,,,,,,,,,,,,,,,,,,,,,,,,,,,,,,,,,,,,,,,,,,,,,,,,,,,,,,,,,,,,,,,,,,,,,,,,,,,,,,,,,,,,,,,,,,,,,,,,,,,,,,,,,,,,,,,,,,,,,,,,,,,,,,
,8242,CBA,20/06/2002,001,2023-04-20_13h49.20.135,OS3_Mult_verification,2022.2.4,MacIntel,60.0024001,,,15,1.1338,1,"[""1"",""5"",""return""]","[0.8174999999999955,0.9849000000953652,1.1002000000476642]",0,27,27,7,1,15,,,,,,,,,,,,,,,,,,,,,,,,,,,,,,,,,,,,,,,,,,,,,,,,,,,,,,,,,,,,,,,,,,,,,,,,,,,,,,,,,,,,,,,,,,,,,,,,,,,,,,,,,,,,,,,,,,,,,,,,,,,,,,,,,,,,,,,,,,,,,,,,,,,,,,,,,,,,,,,,,
,8242,CBA,20/06/2002,001,2023-04-20_13h49.20.135,OS3_Mult_verification,2022.2.4,MacIntel,60.0024001,,,48,1.7664,1,"[""4"",""8"",""return""]","[1.3659000000953654,1.5994000000953577,1.7352000000476835]",0,28,28,23,1,48,,,,,,,,,,,,,,,,,,,,,,,,,,,,,,,,,,,,,,,,,,,,,,,,,,,,,,,,,,,,,,,,,,,,,,,,,,,,,,,,,,,,,,,,,,,,,,,,,,,,,,,,,,,,,,,,,,,,,,,,,,,,,,,,,,,,,,,,,,,,,,,,,,,,,,,,,,,,,,,,,
,8242,CBA,20/06/2002,001,2023-04-20_13h49.20.135,OS3_Mult_verification,2022.2.4,MacIntel,60.0024001,,,10,1.2327,1,"[""1"",""0"",""return""]","[0.8356000001430459,1.0995000000000061,1.20140000009539]",0,29,29,4,1,10,,,,,,,,,,,,,,,,,,,,,,,,,,,,,,,,,,,,,,,,,,,,,,,,,,,,,,,,,,,,,,,,,,,,,,,,,,,,,,,,,,,,,,,,,,,,,,,,,,,,,,,,,,,,,,,,,,,,,,,,,,,,,,,,,,,,,,,,,,,,,,,,,,,,,,,,,,,,,,,,,
,8242,CBA,20/06/2002,001,2023-04-20_13h49.20.135,OS3_Mult_verification,2022.2.4,MacIntel,60.0024001,,,45,1.702,1,"[""4"",""5"",""return""]","[0.9566000001430552,1.234700000047667,1.6727000000476835]",0,30,30,22,1,45,,,,,,,,,,,,,,,,,,,,,,,,,,,,,,,,,,,,,,,,,,,,,,,,,,,,,,,,,,,,,,,,,,,,,,,,,,,,,,,,,,,,,,,,,,,,,,,,,,,,,,,,,,,,,,,,,,,,,,,,,,,,,,,,,,,,,,,,,,,,,,,,,,,,,,,,,,,,,,,,,
,8242,CBA,20/06/2002,001,2023-04-20_13h49.20.135,OS3_Mult_verification,2022.2.4,MacIntel,60.0024001,,,24,1.8187,1,"[""2"",""4"",""return""]","[0.9819999999999993,1.6329000000953613,1.7858000001907328]",1,0,31,12,1,24,,,,,,,,,,,,,,,,,,,,,,,,,,,,,,,,,,,,,,,,,,,,,,,,,,,,,,,,,,,,,,,,,,,,,,,,,,,,,,,,,,,,,,,,,,,,,,,,,,,,,,,,,,,,,,,,,,,,,,,,,,,,,,,,,,,,,,,,,,,,,,,,,,,,,,,,,,,,,,,,,
,8242,CBA,20/06/2002,001,2023-04-20_13h49.20.135,OS3_Mult_verification,2022.2.4,MacIntel,60.0024001,,,4,0.9312,1,"[""4"",""return""]","[0.7980999999046219,0.8999000000953572]",1,1,32,0,1,4,,,,,,,,,,,,,,,,,,,,,,,,,,,,,,,,,,,,,,,,,,,,,,,,,,,,,,,,,,,,,,,,,,,,,,,,,,,,,,,,,,,,,,,,,,,,,,,,,,,,,,,,,,,,,,,,,,,,,,,,,,,,,,,,,,,,,,,,,,,,,,,,,,,,,,,,,,,,,,,,,
,8242,CBA,20/06/2002,001,2023-04-20_13h49.20.135,OS3_Mult_verification,2022.2.4,MacIntel,60.0024001,,,72,1.4015,1,"[""7"",""2"",""return""]","[0.9866000001430564,1.1974000000953708,1.3697999999523063]",1,2,33,29,1,72,,,,,,,,,,,,,,,,,,,,,,,,,,,,,,,,,,,,,,,,,,,,,,,,,,,,,,,,,,,,,,,,,,,,,,,,,,,,,,,,,,,,,,,,,,,,,,,,,,,,,,,,,,,,,,,,,,,,,,,,,,,,,,,,,,,,,,,,,,,,,,,,,,,,,,,,,,,,,,,,,
,8242,CBA,20/06/2002,001,2023-04-20_13h49.20.135,OS3_Mult_verification,2022.2.4,MacIntel,60.0024001,,,36,1.7862,1,"[""3"",""6"",""return""]","[1.1184000000953631,1.6322000000476748,1.7572999999523233]",1,3,34,19,1,36,,,,,,,,,,,,,,,,,,,,,,,,,,,,,,,,,,,,,,,,,,,,,,,,,,,,,,,,,,,,,,,,,,,,,,,,,,,,,,,,,,,,,,,,,,,,,,,,,,,,,,,,,,,,,,,,,,,,,,,,,,,,,,,,,,,,,,,,,,,,,,,,,,,,,,,,,,,,,,,,,
,8242,CBA,20/06/2002,001,2023-04-20_13h49.20.135,OS3_Mult_verification,2022.2.4,MacIntel,60.0024001,,,32,1.3822,1,"[""3"",""2"",""return""]","[0.9170000000000016,1.1333000001907294,1.3484000000953813]",1,4,35,17,1,32,,,,,,,,,,,,,,,,,,,,,,,,,,,,,,,,,,,,,,,,,,,,,,,,,,,,,,,,,,,,,,,,,,,,,,,,,,,,,,,,,,,,,,,,,,,,,,,,,,,,,,,,,,,,,,,,,,,,,,,,,,,,,,,,,,,,,,,,,,,,,,,,,,,,,,,,,,,,,,,,,
,8242,CBA,20/06/2002,001,2023-04-20_13h49.20.135,OS3_Mult_verification,2022.2.4,MacIntel,60.0024001,,,49,1.5311,1,"[""4"",""9"",""return""]","[0.8977000000476778,1.3649000000953606,1.503499999999974]",1,5,36,24,1,49,,,,,,,,,,,,,,,,,,,,,,,,,,,,,,,,,,,,,,,,,,,,,,,,,,,,,,,,,,,,,,,,,,,,,,,,,,,,,,,,,,,,,,,,,,,,,,,,,,,,,,,,,,,,,,,,,,,,,,,,,,,,,,,,,,,,,,,,,,,,,,,,,,,,,,,,,,,,,,,,,
,8242,CBA,20/06/2002,001,2023-04-20_13h49.20.135,OS3_Mult_verification,2022.2.4,MacIntel,60.0024001,,,20,1.4656,1,"[""2"",""0"",""return""]","[0.9671999998092531,1.2505999999046082,1.4339999999999975]",1,6,37,10,1,20,,,,,,,,,,,,,,,,,,,,,,,,,,,,,,,,,,,,,,,,,,,,,,,,,,,,,,,,,,,,,,,,,,,,,,,,,,,,,,,,,,,,,,,,,,,,,,,,,,,,,,,,,,,,,,,,,,,,,,,,,,,,,,,,,,,,,,,,,,,,,,,,,,,,,,,,,,,,,,,,,
,8242,CBA,20/06/2002,001,2023-04-20_13h49.20.135,OS3_Mult_verification,2022.2.4,MacIntel,60.0024001,,,28,1.2149,1,"[""2"",""8"",""return""]","[0.6681000001430561,1.0720000000000027,1.1895000000000095]",1,7,38,15,1,28,,,,,,,,,,,,,,,,,,,,,,,,,,,,,,,,,,,,,,,,,,,,,,,,,,,,,,,,,,,,,,,,,,,,,,,,,,,,,,,,,,,,,,,,,,,,,,,,,,,,,,,,,,,,,,,,,,,,,,,,,,,,,,,,,,,,,,,,,,,,,,,,,,,,,,,,,,,,,,,,,
,8242,CBA,20/06/2002,001,2023-04-20_13h49.20.135,OS3_Mult_verification,2022.2.4,MacIntel,60.0024001,,,18,1.5161,1,"[""1"",""8"",""return""]","[1.1185000000000116,1.350299999952341,1.4901999998092776]",1,8,39,9,1,18,,,,,,,,,,,,,,,,,,,,,,,,,,,,,,,,,,,,,,,,,,,,,,,,,,,,,,,,,,,,,,,,,,,,,,,,,,,,,,,,,,,,,,,,,,,,,,,,,,,,,,,,,,,,,,,,,,,,,,,,,,,,,,,,,,,,,,,,,,,,,,,,,,,,,,,,,,,,,,,,,
,8242,CBA,20/06/2002,001,2023-04-20_13h49.20.135,OS3_Mult_verification,2022.2.4,MacIntel,60.0024001,,,56,1.4506,1,"[""5"",""6"",""return""]","[1.135100000143069,1.2724000000953595,1.4179000000953579]",1,9,40,26,1,56,,,,,,,,,,,,,,,,,,,,,,,,,,,,,,,,,,,,,,,,,,,,,,,,,,,,,,,,,,,,,,,,,,,,,,,,,,,,,,,,,,,,,,,,,,,,,,,,,,,,,,,,,,,,,,,,,,,,,,,,,,,,,,,,,,,,,,,,,,,,,,,,,,,,,,,,,,,,,,,,,
,8242,CBA,20/06/2002,001,2023-04-20_13h49.20.135,OS3_Mult_verification,2022.2.4,MacIntel,60.0024001,,,42,1.3469,1,"[""4"",""2"",""return""]","[1.099099999904638,1.164999999999992,1.3153999998569361]",1,10,41,21,1,42,,,,,,,,,,,,,,,,,,,,,,,,,,,,,,,,,,,,,,,,,,,,,,,,,,,,,,,,,,,,,,,,,,,,,,,,,,,,,,,,,,,,,,,,,,,,,,,,,,,,,,,,,,,,,,,,,,,,,,,,,,,,,,,,,,,,,,,,,,,,,,,,,,,,,,,,,,,,,,,,,
,8242,CBA,20/06/2002,001,2023-04-20_13h49.20.135,OS3_Mult_verification,2022.2.4,MacIntel,60.0024001,,,6,0.9855,1,"[""6"",""return""]","[0.8349000000953595,0.9509999999999934]",1,11,42,1,1,6,,,,,,,,,,,,,,,,,,,,,,,,,,,,,,,,,,,,,,,,,,,,,,,,,,,,,,,,,,,,,,,,,,,,,,,,,,,,,,,,,,,,,,,,,,,,,,,,,,,,,,,,,,,,,,,,,,,,,,,,,,,,,,,,,,,,,,,,,,,,,,,,,,,,,,,,,,,,,,,,,
,8242,CBA,20/06/2002,001,2023-04-20_13h49.20.135,OS3_Mult_verification,2022.2.4,MacIntel,60.0024001,,,30,1.6491,1,"[""3"",""0"",""return""]","[1.0024000000953492,1.4384999999999764,1.6144999999999925]",1,12,43,16,1,30,,,,,,,,,,,,,,,,,,,,,,,,,,,,,,,,,,,,,,,,,,,,,,,,,,,,,,,,,,,,,,,,,,,,,,,,,,,,,,,,,,,,,,,,,,,,,,,,,,,,,,,,,,,,,,,,,,,,,,,,,,,,,,,,,,,,,,,,,,,,,,,,,,,,,,,,,,,,,,,,,
,8242,CBA,20/06/2002,001,2023-04-20_13h49.20.135,OS3_Mult_verification,2022.2.4,MacIntel,60.0024001,,,10,1.1193,1,"[""1"",""0"",""return""]","[0.6837999999523277,0.9505000000000052,1.0848999998569582]",1,13,44,4,1,10,,,,,,,,,,,,,,,,,,,,,,,,,,,,,,,,,,,,,,,,,,,,,,,,,,,,,,,,,,,,,,,,,,,,,,,,,,,,,,,,,,,,,,,,,,,,,,,,,,,,,,,,,,,,,,,,,,,,,,,,,,,,,,,,,,,,,,,,,,,,,,,,,,,,,,,,,,,,,,,,,
,8242,CBA,20/06/2002,001,2023-04-20_13h49.20.135,OS3_Mult_verification,2022.2.4,MacIntel,60.0024001,,,48,1.5524,1,"[""4"",""8"",""return""]","[1.0177000000476824,1.3914000000953592,1.5196000001430434]",1,14,45,23,1,48,,,,,,,,,,,,,,,,,,,,,,,,,,,,,,,,,,,,,,,,,,,,,,,,,,,,,,,,,,,,,,,,,,,,,,,,,,,,,,,,,,,,,,,,,,,,,,,,,,,,,,,,,,,,,,,,,,,,,,,,,,,,,,,,,,,,,,,,,,,,,,,,,,,,,,,,,,,,,,,,,
,8242,CBA,20/06/2002,001,2023-04-20_13h49.20.135,OS3_Mult_verification,2022.2.4,MacIntel,60.0024001,,,15,1.334,1,"[""1"",""5"",""return""]","[0.9174000000953697,1.2012000000476917,1.3022999999523108]",1,15,46,7,1,15,,,,,,,,,,,,,,,,,,,,,,,,,,,,,,,,,,,,,,,,,,,,,,,,,,,,,,,,,,,,,,,,,,,,,,,,,,,,,,,,,,,,,,,,,,,,,,,,,,,,,,,,,,,,,,,,,,,,,,,,,,,,,,,,,,,,,,,,,,,,,,,,,,,,,,,,,,,,,,,,,
,8242,CBA,20/06/2002,001,2023-04-20_13h49.20.135,OS3_Mult_verification,2022.2.4,MacIntel,60.0024001,,,63,1.3639,1,"[""6"",""3"",""return""]","[0.9298999998569286,1.1968999998569245,1.3328999998569486]",1,16,47,27,1,63,,,,,,,,,,,,,,,,,,,,,,,,,,,,,,,,,,,,,,,,,,,,,,,,,,,,,,,,,,,,,,,,,,,,,,,,,,,,,,,,,,,,,,,,,,,,,,,,,,,,,,,,,,,,,,,,,,,,,,,,,,,,,,,,,,,,,,,,,,,,,,,,,,,,,,,,,,,,,,,,,
,8242,CBA,20/06/2002,001,2023-04-20_13h49.20.135,OS3_Mult_verification,2022.2.4,MacIntel,60.0024001,,,35,1.0688,1,"[""3"",""5"",""return""]","[0.7515999999046414,0.884399999856953,1.0345000000000084]",1,17,48,18,1,35,,,,,,,,,,,,,,,,,,,,,,,,,,,,,,,,,,,,,,,,,,,,,,,,,,,,,,,,,,,,,,,,,,,,,,,,,,,,,,,,,,,,,,,,,,,,,,,,,,,,,,,,,,,,,,,,,,,,,,,,,,,,,,,,,,,,,,,,,,,,,,,,,,,,,,,,,,,,,,,,,
,8242,CBA,20/06/2002,001,2023-04-20_13h49.20.135,OS3_Mult_verification,2022.2.4,MacIntel,60.0024001,,,12,1.8842,1,"[""2"",""2"",""backspace"",""backspace"",""backspace"",""1"",""2"",""return""]","[0.5395000000000039,0.6027000000476903,1.2988999998569568,1.4654999999999916,1.5847999999523097,1.6008999998569493,1.734599999904617,1.853399999856947]",1,18,49,5,1,12,,,,,,,,,,,,,,,,,,,,,,,,,,,,,,,,,,,,,,,,,,,,,,,,,,,,,,,,,,,,,,,,,,,,,,,,,,,,,,,,,,,,,,,,,,,,,,,,,,,,,,,,,,,,,,,,,,,,,,,,,,,,,,,,,,,,,,,,,,,,,,,,,,,,,,,,,,,,,,,,,
,8242,CBA,20/06/2002,001,2023-04-20_13h49.20.135,OS3_Mult_verification,2022.2.4,MacIntel,60.0024001,,,54,1.732,1,"[""5"",""4"",""return""]","[1.0964999999999634,1.2469999999999857,1.697900000095359]",1,19,50,25,1,54,,,,,,,,,,,,,,,,,,,,,,,,,,,,,,,,,,,,,,,,,,,,,,,,,,,,,,,,,,,,,,,,,,,,,,,,,,,,,,,,,,,,,,,,,,,,,,,,,,,,,,,,,,,,,,,,,,,,,,,,,,,,,,,,,,,,,,,,,,,,,,,,,,,,,,,,,,,,,,,,,
,8242,CBA,20/06/2002,001,2023-04-20_13h49.20.135,OS3_Mult_verification,2022.2.4,MacIntel,60.0024001,,,9,1.0499,1,"[""9"",""return""]","[0.833199999809267,1.015599999904623]",1,20,51,3,1,9,,,,,,,,,,,,,,,,,,,,,,,,,,,,,,,,,,,,,,,,,,,,,,,,,,,,,,,,,,,,,,,,,,,,,,,,,,,,,,,,,,,,,,,,,,,,,,,,,,,,,,,,,,,,,,,,,,,,,,,,,,,,,,,,,,,,,,,,,,,,,,,,,,,,,,,,,,,,,,,,,
,8242,CBA,20/06/2002,001,2023-04-20_13h49.20.135,OS3_Mult_verification,2022.2.4,MacIntel,60.0024001,,,81,1.452,1,"[""8"",""1"",""return""]","[1.0042000000476605,1.2556000001430334,1.4187000000476928]",1,21,52,30,1,81,,,,,,,,,,,,,,,,,,,,,,,,,,,,,,,,,,,,,,,,,,,,,,,,,,,,,,,,,,,,,,,,,,,,,,,,,,,,,,,,,,,,,,,,,,,,,,,,,,,,,,,,,,,,,,,,,,,,,,,,,,,,,,,,,,,,,,,,,,,,,,,,,,,,,,,,,,,,,,,,,
,8242,CBA,20/06/2002,001,2023-04-20_13h49.20.135,OS3_Mult_verification,2022.2.4,MacIntel,60.0024001,,,21,1.0679,1,"[""2"",""1"",""return""]","[0.72199999999998,0.9007999999523122,1.0335000000000036]",1,22,53,11,1,21,,,,,,,,,,,,,,,,,,,,,,,,,,,,,,,,,,,,,,,,,,,,,,,,,,,,,,,,,,,,,,,,,,,,,,,,,,,,,,,,,,,,,,,,,,,,,,,,,,,,,,,,,,,,,,,,,,,,,,,,,,,,,,,,,,,,,,,,,,,,,,,,,,,,,,,,,,,,,,,,,
,8242,CBA,20/06/2002,001,2023-04-20_13h49.20.135,OS3_Mult_verification,2022.2.4,MacIntel,60.0024001,,,40,1.5833,1,"[""4"",""0"",""return""]","[1.2002999999523354,1.3984000000953642,1.5517999999523227]",1,23,54,20,1,40,,,,,,,,,,,,,,,,,,,,,,,,,,,,,,,,,,,,,,,,,,,,,,,,,,,,,,,,,,,,,,,,,,,,,,,,,,,,,,,,,,,,,,,,,,,,,,,,,,,,,,,,,,,,,,,,,,,,,,,,,,,,,,,,,,,,,,,,,,,,,,,,,,,,,,,,,,,,,,,,,
,8242,CBA,20/06/2002,001,2023-04-20_13h49.20.135,OS3_Mult_verification,2022.2.4,MacIntel,60.0024001,,,25,1.1984,1,"[""2"",""5"",""return""]","[0.6846999998092542,1.0491999998092751,1.1667999999523317]",1,24,55,13,1,25,,,,,,,,,,,,,,,,,,,,,,,,,,,,,,,,,,,,,,,,,,,,,,,,,,,,,,,,,,,,,,,,,,,,,,,,,,,,,,,,,,,,,,,,,,,,,,,,,,,,,,,,,,,,,,,,,,,,,,,,,,,,,,,,,,,,,,,,,,,,,,,,,,,,,,,,,,,,,,,,,
,8242,CBA,20/06/2002,001,2023-04-20_13h49.20.135,OS3_Mult_verification,2022.2.4,MacIntel,60.0024001,,,64,1.6343,1,"[""6"",""4"",""return""]","[0.9317000000476696,1.3845000000000027,1.5991000001430393]",1,25,56,28,1,64,,,,,,,,,,,,,,,,,,,,,,,,,,,,,,,,,,,,,,,,,,,,,,,,,,,,,,,,,,,,,,,,,,,,,,,,,,,,,,,,,,,,,,,,,,,,,,,,,,,,,,,,,,,,,,,,,,,,,,,,,,,,,,,,,,,,,,,,,,,,,,,,,,,,,,,,,,,,,,,,,
,8242,CBA,20/06/2002,001,2023-04-20_13h49.20.135,OS3_Mult_verification,2022.2.4,MacIntel,60.0024001,,,16,1.2843,1,"[""1"",""6"",""return""]","[0.9054000000953693,1.0823000001907417,1.2495000000000118]",1,26,57,8,1,16,,,,,,,,,,,,,,,,,,,,,,,,,,,,,,,,,,,,,,,,,,,,,,,,,,,,,,,,,,,,,,,,,,,,,,,,,,,,,,,,,,,,,,,,,,,,,,,,,,,,,,,,,,,,,,,,,,,,,,,,,,,,,,,,,,,,,,,,,,,,,,,,,,,,,,,,,,,,,,,,,
,8242,CBA,20/06/2002,001,2023-04-20_13h49.20.135,OS3_Mult_verification,2022.2.4,MacIntel,60.0024001,,,8,0.9827,1,"[""8"",""return""]","[0.8319999999999936,0.9522000000476964]",1,27,58,2,1,8,,,,,,,,,,,,,,,,,,,,,,,,,,,,,,,,,,,,,,,,,,,,,,,,,,,,,,,,,,,,,,,,,,,,,,,,,,,,,,,,,,,,,,,,,,,,,,,,,,,,,,,,,,,,,,,,,,,,,,,,,,,,,,,,,,,,,,,,,,,,,,,,,,,,,,,,,,,,,,,,,
,8242,CBA,20/06/2002,001,2023-04-20_13h49.20.135,OS3_Mult_verification,2022.2.4,MacIntel,60.0024001,,,27,1.3993,1,"[""2"",""7"",""return""]","[1.1015999999046358,1.232500000000016,1.3621999998092633]",1,28,59,14,1,27,,,,,,,,,,,,,,,,,,,,,,,,,,,,,,,,,,,,,,,,,,,,,,,,,,,,,,,,,,,,,,,,,,,,,,,,,,,,,,,,,,,,,,,,,,,,,,,,,,,,,,,,,,,,,,,,,,,,,,,,,,,,,,,,,,,,,,,,,,,,,,,,,,,,,,,,,,,,,,,,,
,8242,CBA,20/06/2002,001,2023-04-20_13h49.20.135,OS3_Mult_verification,2022.2.4,MacIntel,60.0024001,,,45,1.3155,1,"[""4"",""5"",""return""]","[1.0494999999999663,1.1477000000476778,1.2835000000000036]",1,29,60,22,1,45,,,,,,,,,,,,,,,,,,,,,,,,,,,,,,,,,,,,,,,,,,,,,,,,,,,,,,,,,,,,,,,,,,,,,,,,,,,,,,,,,,,,,,,,,,,,,,,,,,,,,,,,,,,,,,,,,,,,,,,,,,,,,,,,,,,,,,,,,,,,,,,,,,,,,,,,,,,,,,,,,
,8242,CBA,20/06/2002,001,2023-04-20_13h49.20.135,OS3_Mult_verification,2022.2.4,MacIntel,60.0024001,,,14,1.133,1,"[""1"",""4"",""return""]","[0.7495999999046603,0.984599999904674,1.1037999999523436]",1,30,61,6,1,14,,,,,,,,,,,,,,,,,,,,,,,,,,,,,,,,,,,,,,,,,,,,,,,,,,,,,,,,,,,,,,,,,,,,,,,,,,,,,,,,,,,,,,,,,,,,,,,,,,,,,,,,,,,,,,,,,,,,,,,,,,,,,,,,,,,,,,,,,,,,,,,,,,,,,,,,,,,,,,,,,
,8242,CBA,20/06/2002,001,2023-04-20_13h49.20.135,OS3_Mult_verification,2022.2.4,MacIntel,60.0024001,,,,,,,,,,,,,,space,4.2803,,,,,,,,,,,,,,,,,,,,,,,,,,,,,,,,,,,,,,,,,,,,,,,,,,,,,,,,,,,,,,,,,,,,,,,,,,,,,,,,,,,,,,,,,,,,,,,,,,,,,,,,,,,,,,,,,,,,,,,,,,,,,,,,,,,,,,,,,,,,,,,,,,,,,,,,,,,,,,,
,8242,CBA,20/06/2002,001,2023-04-20_13h49.20.135,OS3_Mult_verification,2022.2.4,MacIntel,60.0024001,,,,,,,,,,,,,,,,,,,,,,,,,,,,,,,,,,,,,,,,,,,,,,,,,,,,,,,,,,,,,,,,,,,,,,,,,,,,,,,,,,,,,,,,,,,,,,,,,,,,,,,,,,,,,,,,,,,,,,,,,,,,,,,,,,,,,,,,,,,,,,,,,,,,,,,,,,,,,,,,,,,,,,,,,,,,,,
,8242,CBA,20/06/2002,001,2023-04-20_13h49.20.135,OS3_Mult_verification,2022.2.4,MacIntel,60.0024001,,,,,,,,,,,,,,,,space,3.4318,,,,,,,,,,,,,,,,,,,,,,,,,,,,,,,,,,,,,,,,,,,,,,,,,,,,,,,,,,,,,,,,,,,,,,,,,,,,,,,,,,,,,,,,,,,,,,,,,,,,,,,,,,,,,,,,,,,,,,,,,,,,,,,,,,,,,,,,,,,,,,,,,,,,,,,,,,,,,
,8242,CBA,20/06/2002,001,2023-04-20_13h49.20.135,OS3_Mult_verification,2022.2.4,MacIntel,60.0024001,,,,,,,,,,,,,,,,,,7,1.6687,1,"[""7"",""return""]","[1.2629000000953283,1.3754999999999882]",0,0,0,0,1,1 × 7 =,7,,,,,,,,,,,,,,,,,,,,,,,,,,,,,,,,,,,,,,,,,,,,,,,,,,,,,,,,,,,,,,,,,,,,,,,,,,,,,,,,,,,,,,,,,,,,,,,,,,,,,,,,,,,,,,,,,,,,,,,,,,,,,,,,,,,,,,,,,,,,,,,,,
,8242,CBA,20/06/2002,001,2023-04-20_13h49.20.135,OS3_Mult_verification,2022.2.4,MacIntel,60.0024001,,,,,,,,,,,,,,,,,,10,2.0065,0,"[""1"",""0"",""return""]","[1.2507000000476864,1.531499999999994,1.7164000000954047]",0,1,1,1,1,2 × 10 =,20,,,,,,,,,,,,,,,,,,,,,,,,,,,,,,,,,,,,,,,,,,,,,,,,,,,,,,,,,,,,,,,,,,,,,,,,,,,,,,,,,,,,,,,,,,,,,,,,,,,,,,,,,,,,,,,,,,,,,,,,,,,,,,,,,,,,,,,,,,,,,,,,,
,8242,CBA,20/06/2002,001,2023-04-20_13h49.20.135,OS3_Mult_verification,2022.2.4,MacIntel,60.0024001,,,,,,,,,,,,,,,,,,22,1.7495,1,"[""2"",""2"",""return""]","[1.1567000000476924,1.3650999999046007,1.4550999999046326]",0,2,2,2,1,2 × 11 =,22,,,,,,,,,,,,,,,,,,,,,,,,,,,,,,,,,,,,,,,,,,,,,,,,,,,,,,,,,,,,,,,,,,,,,,,,,,,,,,,,,,,,,,,,,,,,,,,,,,,,,,,,,,,,,,,,,,,,,,,,,,,,,,,,,,,,,,,,,,,,,,,,,
,8242,CBA,20/06/2002,001,2023-04-20_13h49.20.135,OS3_Mult_verification,2022.2.4,MacIntel,60.0024001,,,,,,,,,,,,,,,,,,,,,,,,,,,,,,,,,,,,,,,,,,,,,,,,,,,,,,,,,,,,,,,,,,,,,,,,,,,,,,,,,,,,,,,,,,,,,,,,,,,,,,,,,,,,,,,,,,,,,,,,,,,,,,,,,,,,,,,,,,,,,,,,,,,,,,,,,,,,,,,,,,,,,,,,,,,,,,
,8242,CBA,20/06/2002,001,2023-04-20_13h49.20.135,OS3_Mult_verification,2022.2.4,MacIntel,60.0024001,,,,,,,,,,,,,,,,,,,,,,,,,,,,,,,,,,,,,,,,,,,,,,,,,,,,,,,,,,,,,,,,,,,,,,,,,,,,,,,,,,,,,,,,,,,,,,,,,,,,,,,,,,,,,,,,,,,,,,,,,,,,,,,,,,,,,,,,,,,,,,,,,,,,,,,,,,,,,,,,,,,,,,,,,,,,,,
,8242,CBA,20/06/2002,001,2023-04-20_13h49.20.135,OS3_Mult_verification,2022.2.4,MacIntel,60.0024001,,,,,,,,,,,,,,,,,,6,1.7878,1,"[""6"",""return""]","[1.2857000000476546,1.5063000001907199]",,,,,,2 × 3 =,6,0,0,0,0,1,,,,,,,,,,,,,,,,,,,,,,,,,,,,,,,,,,,,,,,,,,,,,,,,,,,,,,,,,,,,,,,,,,,,,,,,,,,,,,,,,,,,,,,,,,,,,,,,,,,,,,,,,,,,,,,,,,,,,,,,,,,,,,,,,,,,,,,,,,,,
,8242,CBA,20/06/2002,001,2023-04-20_13h49.20.135,OS3_Mult_verification,2022.2.4,MacIntel,60.0024001,,,,,,,,,,,,,,,,,,40,2.4819,1,"[""4"",""0"",""return""]","[1.4679000000953693,1.6162999999523322,2.1822999999523063]",,,,,,5 × 8 =,40,0,1,1,1,1,,,,,,,,,,,,,,,,,,,,,,,,,,,,,,,,,,,,,,,,,,,,,,,,,,,,,,,,,,,,,,,,,,,,,,,,,,,,,,,,,,,,,,,,,,,,,,,,,,,,,,,,,,,,,,,,,,,,,,,,,,,,,,,,,,,,,,,,,,,,
,8242,CBA,20/06/2002,001,2023-04-20_13h49.20.135,OS3_Mult_verification,2022.2.4,MacIntel,60.0024001,,,,,,,,,,,,,,,,,,12,1.5546,1,"[""1"",""2"",""return""]","[0.9165999999046335,1.0351999998092651,1.2670999999045875]",,,,,,3 × 4 =,12,0,2,2,2,1,,,,,,,,,,,,,,,,,,,,,,,,,,,,,,,,,,,,,,,,,,,,,,,,,,,,,,,,,,,,,,,,,,,,,,,,,,,,,,,,,,,,,,,,,,,,,,,,,,,,,,,,,,,,,,,,,,,,,,,,,,,,,,,,,,,,,,,,,,,,
,8242,CBA,20/06/2002,001,2023-04-20_13h49.20.135,OS3_Mult_verification,2022.2.4,MacIntel,60.0024001,,,,,,,,,,,,,,,,,,15,1.4173,1,"[""1"",""5"",""return""]","[0.9017999999522885,1.0157000000476728,1.132000000000005]",,,,,,5 × 3 =,15,0,3,3,3,1,,,,,,,,,,,,,,,,,,,,,,,,,,,,,,,,,,,,,,,,,,,,,,,,,,,,,,,,,,,,,,,,,,,,,,,,,,,,,,,,,,,,,,,,,,,,,,,,,,,,,,,,,,,,,,,,,,,,,,,,,,,,,,,,,,,,,,,,,,,,
,8242,CBA,20/06/2002,001,2023-04-20_13h49.20.135,OS3_Mult_verification,2022.2.4,MacIntel,60.0024001,,,,,,,,,,,,,,,,,,8,1.6314,1,"[""8"",""return""]","[1.2161000001430011,1.333300000190718]",,,,,,2 × 4 =,8,0,4,4,4,1,,,,,,,,,,,,,,,,,,,,,,,,,,,,,,,,,,,,,,,,,,,,,,,,,,,,,,,,,,,,,,,,,,,,,,,,,,,,,,,,,,,,,,,,,,,,,,,,,,,,,,,,,,,,,,,,,,,,,,,,,,,,,,,,,,,,,,,,,,,,
,8242,CBA,20/06/2002,001,2023-04-20_13h49.20.135,OS3_Mult_verification,2022.2.4,MacIntel,60.0024001,,,,,,,,,,,,,,,,,,4,1.3827,1,"[""4"",""return""]","[1.016999999999996,1.1001000001430725]",,,,,,2 × 2 =,4,0,5,5,5,1,,,,,,,,,,,,,,,,,,,,,,,,,,,,,,,,,,,,,,,,,,,,,,,,,,,,,,,,,,,,,,,,,,,,,,,,,,,,,,,,,,,,,,,,,,,,,,,,,,,,,,,,,,,,,,,,,,,,,,,,,,,,,,,,,,,,,,,,,,,,
,8242,CBA,20/06/2002,001,2023-04-20_13h49.20.135,OS3_Mult_verification,2022.2.4,MacIntel,60.0024001,,,,,,,,,,,,,,,,,,20,1.8512,1,"[""2"",""0"",""return""]","[1.1132999999522895,1.3976999998092765,1.56279999995229]",,,,,,4 × 5 =,20,0,6,6,6,1,,,,,,,,,,,,,,,,,,,,,,,,,,,,,,,,,,,,,,,,,,,,,,,,,,,,,,,,,,,,,,,,,,,,,,,,,,,,,,,,,,,,,,,,,,,,,,,,,,,,,,,,,,,,,,,,,,,,,,,,,,,,,,,,,,,,,,,,,,,,
,8242,CBA,20/06/2002,001,2023-04-20_13h49.20.135,OS3_Mult_verification,2022.2.4,MacIntel,60.0024001,,,,,,,,,,,,,,,,,,9,1.3976,1,"[""9"",""return""]","[0.9828999998569543,1.103899999856992]",,,,,,3 × 3 =,9,0,7,7,7,1,,,,,,,,,,,,,,,,,,,,,,,,,,,,,,,,,,,,,,,,,,,,,,,,,,,,,,,,,,,,,,,,,,,,,,,,,,,,,,,,,,,,,,,,,,,,,,,,,,,,,,,,,,,,,,,,,,,,,,,,,,,,,,,,,,,,,,,,,,,,
,8242,CBA,20/06/2002,001,2023-04-20_13h49.20.135,OS3_Mult_verification,2022.2.4,MacIntel,60.0024001,,,,,,,,,,,,,,,,,,10,1.699,1,"[""1"",""0"",""return""]","[0.9537999999523095,1.2195999999046307,1.3982999999523145]",,,,,,5 × 2 =,10,0,8,8,8,1,,,,,,,,,,,,,,,,,,,,,,,,,,,,,,,,,,,,,,,,,,,,,,,,,,,,,,,,,,,,,,,,,,,,,,,,,,,,,,,,,,,,,,,,,,,,,,,,,,,,,,,,,,,,,,,,,,,,,,,,,,,,,,,,,,,,,,,,,,,,
,8242,CBA,20/06/2002,001,2023-04-20_13h49.20.135,OS3_Mult_verification,2022.2.4,MacIntel,60.0024001,,,,,,,,,,,,,,,,,,16,1.7672,1,"[""1"",""6"",""return""]","[1.0338999998569989,1.3016999998092729,1.4801999998093152]",,,,,,4 × 4 =,16,0,9,9,9,1,,,,,,,,,,,,,,,,,,,,,,,,,,,,,,,,,,,,,,,,,,,,,,,,,,,,,,,,,,,,,,,,,,,,,,,,,,,,,,,,,,,,,,,,,,,,,,,,,,,,,,,,,,,,,,,,,,,,,,,,,,,,,,,,,,,,,,,,,,,,
,8242,CBA,20/06/2002,001,2023-04-20_13h49.20.135,OS3_Mult_verification,2022.2.4,MacIntel,60.0024001,,,,,,,,,,,,,,,,,,24,1.8305,1,"[""2"",""4"",""return""]","[1.0800999999046326,1.4332999999523395,1.5312999999523527]",,,,,,8 × 3 =,24,0,10,10,10,1,,,,,,,,,,,,,,,,,,,,,,,,,,,,,,,,,,,,,,,,,,,,,,,,,,,,,,,,,,,,,,,,,,,,,,,,,,,,,,,,,,,,,,,,,,,,,,,,,,,,,,,,,,,,,,,,,,,,,,,,,,,,,,,,,,,,,,,,,,,,
,8242,CBA,20/06/2002,001,2023-04-20_13h49.20.135,OS3_Mult_verification,2022.2.4,MacIntel,60.0024001,,,,,,,,,,,,,,,,,,30,2.0002,1,"[""3"",""0"",""return""]","[1.2136999998092506,1.4977999999522922,1.712799999952324]",,,,,,6 × 5 =,30,0,11,11,11,1,,,,,,,,,,,,,,,,,,,,,,,,,,,,,,,,,,,,,,,,,,,,,,,,,,,,,,,,,,,,,,,,,,,,,,,,,,,,,,,,,,,,,,,,,,,,,,,,,,,,,,,,,,,,,,,,,,,,,,,,,,,,,,,,,,,,,,,,,,,,
,8242,CBA,20/06/2002,001,2023-04-20_13h49.20.135,OS3_Mult_verification,2022.2.4,MacIntel,60.0024001,,,,,,,,,,,,,,,,,,14,1.4676,1,"[""1"",""4"",""return""]","[0.8825999999046417,1.0480999999046503,1.164599999904624]",,,,,,7 × 2 =,14,0,12,12,12,1,,,,,,,,,,,,,,,,,,,,,,,,,,,,,,,,,,,,,,,,,,,,,,,,,,,,,,,,,,,,,,,,,,,,,,,,,,,,,,,,,,,,,,,,,,,,,,,,,,,,,,,,,,,,,,,,,,,,,,,,,,,,,,,,,,,,,,,,,,,,
,8242,CBA,20/06/2002,001,2023-04-20_13h49.20.135,OS3_Mult_verification,2022.2.4,MacIntel,60.0024001,,,,,,,,,,,,,,,,,,27,2.1325,1,"[""2"",""7"",""return""]","[1.3818999998569552,1.7335999999046408,1.8340000000000032]",,,,,,3 × 9 =,27,0,13,13,13,1,,,,,,,,,,,,,,,,,,,,,,,,,,,,,,,,,,,,,,,,,,,,,,,,,,,,,,,,,,,,,,,,,,,,,,,,,,,,,,,,,,,,,,,,,,,,,,,,,,,,,,,,,,,,,,,,,,,,,,,,,,,,,,,,,,,,,,,,,,,,
,8242,CBA,20/06/2002,001,2023-04-20_13h49.20.135,OS3_Mult_verification,2022.2.4,MacIntel,60.0024001,,,,,,,,,,,,,,,,,,16,1.6645,1,"[""1"",""6"",""return""]","[0.8990999999046494,1.2487999999523254,1.366599999904679]",,,,,,2 × 8 =,16,0,14,14,14,1,,,,,,,,,,,,,,,,,,,,,,,,,,,,,,,,,,,,,,,,,,,,,,,,,,,,,,,,,,,,,,,,,,,,,,,,,,,,,,,,,,,,,,,,,,,,,,,,,,,,,,,,,,,,,,,,,,,,,,,,,,,,,,,,,,,,,,,,,,,,
,8242,CBA,20/06/2002,001,2023-04-20_13h49.20.135,OS3_Mult_verification,2022.2.4,MacIntel,60.0024001,,,,,,,,,,,,,,,,,,24,1.7635,1,"[""2"",""4"",""return""]","[1.167100000143023,1.3327999999523286,1.4756000001430607]",,,,,,4 × 6 =,24,0,15,15,15,1,,,,,,,,,,,,,,,,,,,,,,,,,,,,,,,,,,,,,,,,,,,,,,,,,,,,,,,,,,,,,,,,,,,,,,,,,,,,,,,,,,,,,,,,,,,,,,,,,,,,,,,,,,,,,,,,,,,,,,,,,,,,,,,,,,,,,,,,,,,,
,8242,CBA,20/06/2002,001,2023-04-20_13h49.20.135,OS3_Mult_verification,2022.2.4,MacIntel,60.0024001,,,,,,,,,,,,,,,,,,21,1.4669,1,"[""2"",""1"",""return""]","[0.8403999998569134,1.0014999999999645,1.1827999999522945]",,,,,,7 × 3 =,21,0,16,16,16,1,,,,,,,,,,,,,,,,,,,,,,,,,,,,,,,,,,,,,,,,,,,,,,,,,,,,,,,,,,,,,,,,,,,,,,,,,,,,,,,,,,,,,,,,,,,,,,,,,,,,,,,,,,,,,,,,,,,,,,,,,,,,,,,,,,,,,,,,,,,,
,8242,CBA,20/06/2002,001,2023-04-20_13h49.20.135,OS3_Mult_verification,2022.2.4,MacIntel,60.0024001,,,,,,,,,,,,,,,,,,27,2.4343,1,"[""2"",""7"",""return""]","[1.6999999999999886,2.0177000000476824,2.150400000095374]",,,,,,9 × 3 =,27,0,17,17,17,1,,,,,,,,,,,,,,,,,,,,,,,,,,,,,,,,,,,,,,,,,,,,,,,,,,,,,,,,,,,,,,,,,,,,,,,,,,,,,,,,,,,,,,,,,,,,,,,,,,,,,,,,,,,,,,,,,,,,,,,,,,,,,,,,,,,,,,,,,,,,
,8242,CBA,20/06/2002,001,2023-04-20_13h49.20.135,OS3_Mult_verification,2022.2.4,MacIntel,60.0024001,,,,,,,,,,,,,,,,,,28,1.797,1,"[""2"",""8"",""return""]","[1.0955000000000155,1.4139999999999873,1.5147000000476964]",,,,,,4 × 7 =,28,0,18,18,18,1,,,,,,,,,,,,,,,,,,,,,,,,,,,,,,,,,,,,,,,,,,,,,,,,,,,,,,,,,,,,,,,,,,,,,,,,,,,,,,,,,,,,,,,,,,,,,,,,,,,,,,,,,,,,,,,,,,,,,,,,,,,,,,,,,,,,,,,,,,,,
,8242,CBA,20/06/2002,001,2023-04-20_13h49.20.135,OS3_Mult_verification,2022.2.4,MacIntel,60.0024001,,,,,,,,,,,,,,,,,,18,1.6678,1,"[""1"",""8"",""return""]","[0.9331999998092897,1.2487999999523254,1.3677999999523536]",,,,,,2 × 9 =,18,0,19,19,19,1,,,,,,,,,,,,,,,,,,,,,,,,,,,,,,,,,,,,,,,,,,,,,,,,,,,,,,,,,,,,,,,,,,,,,,,,,,,,,,,,,,,,,,,,,,,,,,,,,,,,,,,,,,,,,,,,,,,,,,,,,,,,,,,,,,,,,,,,,,,,
,8242,CBA,20/06/2002,001,2023-04-20_13h49.20.135,OS3_Mult_verification,2022.2.4,MacIntel,60.0024001,,,,,,,,,,,,,,,,,,72,2.6809,1,"[""7"",""2"",""return""]","[2.1000000000000227,2.2359000000953984,2.3882999999523236]",,,,,,9 × 8 =,72,0,20,20,20,1,,,,,,,,,,,,,,,,,,,,,,,,,,,,,,,,,,,,,,,,,,,,,,,,,,,,,,,,,,,,,,,,,,,,,,,,,,,,,,,,,,,,,,,,,,,,,,,,,,,,,,,,,,,,,,,,,,,,,,,,,,,,,,,,,,,,,,,,,,,,
,8242,CBA,20/06/2002,001,2023-04-20_13h49.20.135,OS3_Mult_verification,2022.2.4,MacIntel,60.0024001,,,,,,,,,,,,,,,,,,42,2.3644,1,"[""4"",""2"",""return""]","[1.8503999998569611,1.952799999952333,2.0846999998092883]",,,,,,7 × 6 =,42,0,21,21,21,1,,,,,,,,,,,,,,,,,,,,,,,,,,,,,,,,,,,,,,,,,,,,,,,,,,,,,,,,,,,,,,,,,,,,,,,,,,,,,,,,,,,,,,,,,,,,,,,,,,,,,,,,,,,,,,,,,,,,,,,,,,,,,,,,,,,,,,,,,,,,
,8242,CBA,20/06/2002,001,2023-04-20_13h49.20.135,OS3_Mult_verification,2022.2.4,MacIntel,60.0024001,,,,,,,,,,,,,,,,,,54,2.4099,1,"[""5"",""4"",""return""]","[1.904900000095381,2.033400000095355,2.1195000000000164]",,,,,,6 × 9 =,54,0,22,22,22,1,,,,,,,,,,,,,,,,,,,,,,,,,,,,,,,,,,,,,,,,,,,,,,,,,,,,,,,,,,,,,,,,,,,,,,,,,,,,,,,,,,,,,,,,,,,,,,,,,,,,,,,,,,,,,,,,,,,,,,,,,,,,,,,,,,,,,,,,,,,,
,8242,CBA,20/06/2002,001,2023-04-20_13h49.20.135,OS3_Mult_verification,2022.2.4,MacIntel,60.0024001,,,,,,,,,,,,,,,,,,45,1.5623,1,"[""4"",""5"",""return""]","[1.0550000000000068,1.164900000095372,1.2702999999523286]",,,,,,9 × 5 =,45,0,23,23,23,1,,,,,,,,,,,,,,,,,,,,,,,,,,,,,,,,,,,,,,,,,,,,,,,,,,,,,,,,,,,,,,,,,,,,,,,,,,,,,,,,,,,,,,,,,,,,,,,,,,,,,,,,,,,,,,,,,,,,,,,,,,,,,,,,,,,,,,,,,,,,
,8242,CBA,20/06/2002,001,2023-04-20_13h49.20.135,OS3_Mult_verification,2022.2.4,MacIntel,60.0024001,,,,,,,,,,,,,,,,,,56,1.7195,1,"[""5"",""6"",""return""]","[1.1823000001907644,1.2657000000476728,1.434500000000014]",,,,,,8 × 7 =,56,0,24,24,24,1,,,,,,,,,,,,,,,,,,,,,,,,,,,,,,,,,,,,,,,,,,,,,,,,,,,,,,,,,,,,,,,,,,,,,,,,,,,,,,,,,,,,,,,,,,,,,,,,,,,,,,,,,,,,,,,,,,,,,,,,,,,,,,,,,,,,,,,,,,,,
,8242,CBA,20/06/2002,001,2023-04-20_13h49.20.135,OS3_Mult_verification,2022.2.4,MacIntel,60.0024001,,,,,,,,,,,,,,,,,,36,1.8132,1,"[""3"",""6"",""return""]","[1.1380999999046253,1.333799999952305,1.5184999999999604]",,,,,,6 × 6 =,36,0,25,25,25,1,,,,,,,,,,,,,,,,,,,,,,,,,,,,,,,,,,,,,,,,,,,,,,,,,,,,,,,,,,,,,,,,,,,,,,,,,,,,,,,,,,,,,,,,,,,,,,,,,,,,,,,,,,,,,,,,,,,,,,,,,,,,,,,,,,,,,,,,,,,,
,8242,CBA,20/06/2002,001,2023-04-20_13h49.20.135,OS3_Mult_verification,2022.2.4,MacIntel,60.0024001,,,,,,,,,,,,,,,,,,35,1.7032,1,"[""3"",""5"",""return""]","[1.072999999999979,1.2678999998569225,1.4200999999046076]",,,,,,5 × 7 =,35,0,26,26,26,1,,,,,,,,,,,,,,,,,,,,,,,,,,,,,,,,,,,,,,,,,,,,,,,,,,,,,,,,,,,,,,,,,,,,,,,,,,,,,,,,,,,,,,,,,,,,,,,,,,,,,,,,,,,,,,,,,,,,,,,,,,,,,,,,,,,,,,,,,,,,
,8242,CBA,20/06/2002,001,2023-04-20_13h49.20.135,OS3_Mult_verification,2022.2.4,MacIntel,60.0024001,,,,,,,,,,,,,,,,,,36,1.9628,1,"[""3"",""6"",""return""]","[1.3059000000953347,1.5175999999046326,1.6712000000476905]",,,,,,4 × 9 =,36,0,27,27,27,1,,,,,,,,,,,,,,,,,,,,,,,,,,,,,,,,,,,,,,,,,,,,,,,,,,,,,,,,,,,,,,,,,,,,,,,,,,,,,,,,,,,,,,,,,,,,,,,,,,,,,,,,,,,,,,,,,,,,,,,,,,,,,,,,,,,,,,,,,,,,
,8242,CBA,20/06/2002,001,2023-04-20_13h49.20.135,OS3_Mult_verification,2022.2.4,MacIntel,60.0024001,,,,,,,,,,,,,,,,,,48,1.8852,1,"[""4"",""8"",""return""]","[1.1840999999046176,1.5008999998569266,1.600999999999999]",,,,,,8 × 6 =,48,0,28,28,28,1,,,,,,,,,,,,,,,,,,,,,,,,,,,,,,,,,,,,,,,,,,,,,,,,,,,,,,,,,,,,,,,,,,,,,,,,,,,,,,,,,,,,,,,,,,,,,,,,,,,,,,,,,,,,,,,,,,,,,,,,,,,,,,,,,,,,,,,,,,,,
,8242,CBA,20/06/2002,001,2023-04-20_13h49.20.135,OS3_Mult_verification,2022.2.4,MacIntel,60.0024001,,,,,,,,,,,,,,,,,,63,2.8124,1,"[""6"",""3"",""return""]","[2.0678000001907435,2.381700000047715,2.5149000000953947]",,,,,,9 × 7 =,63,0,29,29,29,1,,,,,,,,,,,,,,,,,,,,,,,,,,,,,,,,,,,,,,,,,,,,,,,,,,,,,,,,,,,,,,,,,,,,,,,,,,,,,,,,,,,,,,,,,,,,,,,,,,,,,,,,,,,,,,,,,,,,,,,,,,,,,,,,,,,,,,,,,,,,
,8242,CBA,20/06/2002,001,2023-04-20_13h49.20.135,OS3_Mult_verification,2022.2.4,MacIntel,60.0024001,,,,,,,,,,,,,,,,,,12,1.4762,1,"[""1"",""2"",""return""]","[0.8505000000000109,1.016200000047661,1.1829999999999927]",,,,,,4 × 3 =,12,0,30,30,30,1,,,,,,,,,,,,,,,,,,,,,,,,,,,,,,,,,,,,,,,,,,,,,,,,,,,,,,,,,,,,,,,,,,,,,,,,,,,,,,,,,,,,,,,,,,,,,,,,,,,,,,,,,,,,,,,,,,,,,,,,,,,,,,,,,,,,,,,,,,,,
,8242,CBA,20/06/2002,001,2023-04-20_13h49.20.135,OS3_Mult_verification,2022.2.4,MacIntel,60.0024001,,,,,,,,,,,,,,,,,,25,1.4324,1,"[""2"",""5"",""return""]","[0.8502000000476642,1.0008000001907362,1.1304999999999836]",,,,,,5 × 5 =,25,0,31,31,31,1,,,,,,,,,,,,,,,,,,,,,,,,,,,,,,,,,,,,,,,,,,,,,,,,,,,,,,,,,,,,,,,,,,,,,,,,,,,,,,,,,,,,,,,,,,,,,,,,,,,,,,,,,,,,,,,,,,,,,,,,,,,,,,,,,,,,,,,,,,,,
,8242,CBA,20/06/2002,001,2023-04-20_13h49.20.135,OS3_Mult_verification,2022.2.4,MacIntel,60.0024001,,,,,,,,,,,,,,,,,,6,2.5813,1,"[""5"",""backspace"",""6"",""return""]","[1.3478999998569634,1.9667000000476946,2.1647000000476737,2.2835000000000036]",,,,,,3 × 2 =,6,0,32,32,32,1,,,,,,,,,,,,,,,,,,,,,,,,,,,,,,,,,,,,,,,,,,,,,,,,,,,,,,,,,,,,,,,,,,,,,,,,,,,,,,,,,,,,,,,,,,,,,,,,,,,,,,,,,,,,,,,,,,,,,,,,,,,,,,,,,,,,,,,,,,,,
,8242,CBA,20/06/2002,001,2023-04-20_13h49.20.135,OS3_Mult_verification,2022.2.4,MacIntel,60.0024001,,,,,,,,,,,,,,,,,,20,1.6505,1,"[""2"",""0"",""return""]","[0.8318999998569439,1.198799999952314,1.3500999999046712]",,,,,,5 × 4 =,20,0,33,33,33,1,,,,,,,,,,,,,,,,,,,,,,,,,,,,,,,,,,,,,,,,,,,,,,,,,,,,,,,,,,,,,,,,,,,,,,,,,,,,,,,,,,,,,,,,,,,,,,,,,,,,,,,,,,,,,,,,,,,,,,,,,,,,,,,,,,,,,,,,,,,,
,8242,CBA,20/06/2002,001,2023-04-20_13h49.20.135,OS3_Mult_verification,2022.2.4,MacIntel,60.0024001,,,,,,,,,,,,,,,,,,8,1.549,1,"[""8"",""return""]","[1.164100000143037,1.2491000001430734]",,,,,,4 × 2 =,8,0,34,34,34,1,,,,,,,,,,,,,,,,,,,,,,,,,,,,,,,,,,,,,,,,,,,,,,,,,,,,,,,,,,,,,,,,,,,,,,,,,,,,,,,,,,,,,,,,,,,,,,,,,,,,,,,,,,,,,,,,,,,,,,,,,,,,,,,,,,,,,,,,,,,,
,8242,CBA,20/06/2002,001,2023-04-20_13h49.20.135,OS3_Mult_verification,2022.2.4,MacIntel,60.0024001,,,,,,,,,,,,,,,,,,12,1.4139,1,"[""1"",""2"",""return""]","[0.8342000000477015,0.9834999999999923,1.1148999998569593]",,,,,,2 × 6 =,12,0,35,35,35,1,,,,,,,,,,,,,,,,,,,,,,,,,,,,,,,,,,,,,,,,,,,,,,,,,,,,,,,,,,,,,,,,,,,,,,,,,,,,,,,,,,,,,,,,,,,,,,,,,,,,,,,,,,,,,,,,,,,,,,,,,,,,,,,,,,,,,,,,,,,,
,8242,CBA,20/06/2002,001,2023-04-20_13h49.20.135,OS3_Mult_verification,2022.2.4,MacIntel,60.0024001,,,,,,,,,,,,,,,,,,15,1.4836,1,"[""1"",""5"",""return""]","[0.8659999999999854,1.081599999904654,1.184500000000014]",,,,,,3 × 5 =,15,0,36,36,36,1,,,,,,,,,,,,,,,,,,,,,,,,,,,,,,,,,,,,,,,,,,,,,,,,,,,,,,,,,,,,,,,,,,,,,,,,,,,,,,,,,,,,,,,,,,,,,,,,,,,,,,,,,,,,,,,,,,,,,,,,,,,,,,,,,,,,,,,,,,,,
,8242,CBA,20/06/2002,001,2023-04-20_13h49.20.135,OS3_Mult_verification,2022.2.4,MacIntel,60.0024001,,,,,,,,,,,,,,,,,,18,1.8507,1,"[""1"",""8"",""return""]","[0.9992999999523136,1.41729999995232,1.549000000000035]",,,,,,6 × 3 =,18,0,37,37,37,1,,,,,,,,,,,,,,,,,,,,,,,,,,,,,,,,,,,,,,,,,,,,,,,,,,,,,,,,,,,,,,,,,,,,,,,,,,,,,,,,,,,,,,,,,,,,,,,,,,,,,,,,,,,,,,,,,,,,,,,,,,,,,,,,,,,,,,,,,,,,
,8242,CBA,20/06/2002,001,2023-04-20_13h49.20.135,OS3_Mult_verification,2022.2.4,MacIntel,60.0024001,,,,,,,,,,,,,,,,,,10,1.6327,1,"[""1"",""0"",""return""]","[0.8817000000476582,1.1975999999045825,1.3322999999522835]",,,,,,2 × 5 =,10,0,38,38,38,1,,,,,,,,,,,,,,,,,,,,,,,,,,,,,,,,,,,,,,,,,,,,,,,,,,,,,,,,,,,,,,,,,,,,,,,,,,,,,,,,,,,,,,,,,,,,,,,,,,,,,,,,,,,,,,,,,,,,,,,,,,,,,,,,,,,,,,,,,,,,
,8242,CBA,20/06/2002,001,2023-04-20_13h49.20.135,OS3_Mult_verification,2022.2.4,MacIntel,60.0024001,,,,,,,,,,,,,,,,,,32,1.8647,1,"[""3"",""2"",""return""]","[1.3002999999523581,1.3982999999523145,1.5651999998092947]",,,,,,4 × 8 =,32,0,39,39,39,1,,,,,,,,,,,,,,,,,,,,,,,,,,,,,,,,,,,,,,,,,,,,,,,,,,,,,,,,,,,,,,,,,,,,,,,,,,,,,,,,,,,,,,,,,,,,,,,,,,,,,,,,,,,,,,,,,,,,,,,,,,,,,,,,,,,,,,,,,,,,
,8242,CBA,20/06/2002,001,2023-04-20_13h49.20.135,OS3_Mult_verification,2022.2.4,MacIntel,60.0024001,,,,,,,,,,,,,,,,,,24,1.85,1,"[""2"",""4"",""return""]","[1.1177999999522967,1.453099999904623,1.5537999999523322]",,,,,,3 × 8 =,24,0,40,40,40,1,,,,,,,,,,,,,,,,,,,,,,,,,,,,,,,,,,,,,,,,,,,,,,,,,,,,,,,,,,,,,,,,,,,,,,,,,,,,,,,,,,,,,,,,,,,,,,,,,,,,,,,,,,,,,,,,,,,,,,,,,,,,,,,,,,,,,,,,,,,,
,8242,CBA,20/06/2002,001,2023-04-20_13h49.20.135,OS3_Mult_verification,2022.2.4,MacIntel,60.0024001,,,,,,,,,,,,,,,,,,30,1.865,1,"[""3"",""0"",""return""]","[1.1158000001906885,1.3986000001430057,1.5644999999999527]",,,,,,5 × 6 =,30,0,41,41,41,1,,,,,,,,,,,,,,,,,,,,,,,,,,,,,,,,,,,,,,,,,,,,,,,,,,,,,,,,,,,,,,,,,,,,,,,,,,,,,,,,,,,,,,,,,,,,,,,,,,,,,,,,,,,,,,,,,,,,,,,,,,,,,,,,,,,,,,,,,,,,
,8242,CBA,20/06/2002,001,2023-04-20_13h49.20.135,OS3_Mult_verification,2022.2.4,MacIntel,60.0024001,,,,,,,,,,,,,,,,,,14,1.3484,1,"[""1"",""4"",""return""]","[0.8167000000476605,0.9495000000000005,1.047200000047667]",,,,,,2 × 7 =,14,0,42,42,42,1,,,,,,,,,,,,,,,,,,,,,,,,,,,,,,,,,,,,,,,,,,,,,,,,,,,,,,,,,,,,,,,,,,,,,,,,,,,,,,,,,,,,,,,,,,,,,,,,,,,,,,,,,,,,,,,,,,,,,,,,,,,,,,,,,,,,,,,,,,,,
,8242,CBA,20/06/2002,001,2023-04-20_13h49.20.135,OS3_Mult_verification,2022.2.4,MacIntel,60.0024001,,,,,,,,,,,,,,,,,,24,1.5328,1,"[""2"",""4"",""return""]","[1.0003000001906912,1.1331000001430311,1.2328000001907071]",,,,,,6 × 4 =,24,0,43,43,43,1,,,,,,,,,,,,,,,,,,,,,,,,,,,,,,,,,,,,,,,,,,,,,,,,,,,,,,,,,,,,,,,,,,,,,,,,,,,,,,,,,,,,,,,,,,,,,,,,,,,,,,,,,,,,,,,,,,,,,,,,,,,,,,,,,,,,,,,,,,,,
,8242,CBA,20/06/2002,001,2023-04-20_13h49.20.135,OS3_Mult_verification,2022.2.4,MacIntel,60.0024001,,,,,,,,,,,,,,,,,,21,1.2988,1,"[""2"",""1"",""return""]","[0.7490999999046153,0.8832000000476796,0.9987000000476769]",,,,,,3 × 7 =,21,0,44,44,44,1,,,,,,,,,,,,,,,,,,,,,,,,,,,,,,,,,,,,,,,,,,,,,,,,,,,,,,,,,,,,,,,,,,,,,,,,,,,,,,,,,,,,,,,,,,,,,,,,,,,,,,,,,,,,,,,,,,,,,,,,,,,,,,,,,,,,,,,,,,,,
,8242,CBA,20/06/2002,001,2023-04-20_13h49.20.135,OS3_Mult_verification,2022.2.4,MacIntel,60.0024001,,,,,,,,,,,,,,,,,,81,1.7965,1,"[""8"",""1"",""return""]","[1.004000000000019,1.2654999999999745,1.4989000000953752]",,,,,,9 × 9 =,81,0,45,45,45,1,,,,,,,,,,,,,,,,,,,,,,,,,,,,,,,,,,,,,,,,,,,,,,,,,,,,,,,,,,,,,,,,,,,,,,,,,,,,,,,,,,,,,,,,,,,,,,,,,,,,,,,,,,,,,,,,,,,,,,,,,,,,,,,,,,,,,,,,,,,,
,8242,CBA,20/06/2002,001,2023-04-20_13h49.20.135,OS3_Mult_verification,2022.2.4,MacIntel,60.0024001,,,,,,,,,,,,,,,,,,16,1.465,1,"[""1"",""6"",""return""]","[0.7304000000953579,1.0484000000953415,1.185400000095342]",,,,,,8 × 2 =,16,0,46,46,46,1,,,,,,,,,,,,,,,,,,,,,,,,,,,,,,,,,,,,,,,,,,,,,,,,,,,,,,,,,,,,,,,,,,,,,,,,,,,,,,,,,,,,,,,,,,,,,,,,,,,,,,,,,,,,,,,,,,,,,,,,,,,,,,,,,,,,,,,,,,,,
,8242,CBA,20/06/2002,001,2023-04-20_13h49.20.135,OS3_Mult_verification,2022.2.4,MacIntel,60.0024001,,,,,,,,,,,,,,,,,,48,1.7647,1,"[""4"",""8"",""return""]","[0.9652000000476733,1.3165999999046676,1.4834999999999923]",,,,,,6 × 8 =,48,0,47,47,47,1,,,,,,,,,,,,,,,,,,,,,,,,,,,,,,,,,,,,,,,,,,,,,,,,,,,,,,,,,,,,,,,,,,,,,,,,,,,,,,,,,,,,,,,,,,,,,,,,,,,,,,,,,,,,,,,,,,,,,,,,,,,,,,,,,,,,,,,,,,,,
,8242,CBA,20/06/2002,001,2023-04-20_13h49.20.135,OS3_Mult_verification,2022.2.4,MacIntel,60.0024001,,,,,,,,,,,,,,,,,,28,1.7158,1,"[""2"",""8"",""return""]","[0.9192000000477378,1.319200000047715,1.4370000000000118]",,,,,,7 × 4 =,28,0,48,48,48,1,,,,,,,,,,,,,,,,,,,,,,,,,,,,,,,,,,,,,,,,,,,,,,,,,,,,,,,,,,,,,,,,,,,,,,,,,,,,,,,,,,,,,,,,,,,,,,,,,,,,,,,,,,,,,,,,,,,,,,,,,,,,,,,,,,,,,,,,,,,,
,8242,CBA,20/06/2002,001,2023-04-20_13h49.20.135,OS3_Mult_verification,2022.2.4,MacIntel,60.0024001,,,,,,,,,,,,,,,,,,18,1.6029,1,"[""1"",""8"",""return""]","[0.7849000000953197,1.1844999999999573,1.3205999999046298]",,,,,,9 × 2 =,18,0,49,49,49,1,,,,,,,,,,,,,,,,,,,,,,,,,,,,,,,,,,,,,,,,,,,,,,,,,,,,,,,,,,,,,,,,,,,,,,,,,,,,,,,,,,,,,,,,,,,,,,,,,,,,,,,,,,,,,,,,,,,,,,,,,,,,,,,,,,,,,,,,,,,,
,8242,CBA,20/06/2002,001,2023-04-20_13h49.20.135,OS3_Mult_verification,2022.2.4,MacIntel,60.0024001,,,,,,,,,,,,,,,,,,,0.6489,0,,,,,,,,7 × 5 =,35,0,50,50,50,1,,,,,,,,,,,,,,,,,,,,,,,,,,,,,,,,,,,,,,,,,,,,,,,,,,,,,,,,,,,,,,,,,,,,,,,,,,,,,,,,,,,,,,,,,,,,,,,,,,,,,,,,,,,,,,,,,,,,,,,,,,,,,,,,,,,,,,,,,,,,
,8242,CBA,20/06/2002,001,2023-04-20_13h49.20.135,OS3_Mult_verification,2022.2.4,MacIntel,60.0024001,,,,,,,,,,,,,,,,space,2.202,,,,,,,,,,,,,,,,,,space,8.9271,123,1.3776,1,"[""1"",""2"",""3"",""return""]","[0.5824999999999818,0.7480000000000473,0.9664999999999964,1.3502999999523126]",0,0,0,0,1,3,123,Audio/123.mp3,practice,,,,,,,,,,,,,,,,,,,,,,,,,,,,,,,,,,,,,,,,,,,,,,,,,,,,,,,,,,,,,,,,,,,,,,,,,,,,,,,,,,,,,,,,,,,,,,,,,,,,,,,,,,,,,,,,,,,,,,,,,,,,
,8242,CBA,20/06/2002,001,2023-04-20_13h49.20.135,OS3_Mult_verification,2022.2.4,MacIntel,60.0024001,,,,,,,,,,,,,,,,,,,,,,,,,,,,,,,,,,,,,911,1.2827,1,"[""9"",""1"",""1"",""return""]","[0.6482999999523145,0.8155000000000427,1.070799999952328,1.2495000000000118]",0,1,1,2,1,3,911,Audio/911.mp3,practice,,,,,,,,,,,,,,,,,,,,,,,,,,,,,,,,,,,,,,,,,,,,,,,,,,,,,,,,,,,,,,,,,,,,,,,,,,,,,,,,,,,,,,,,,,,,,,,,,,,,,,,,,,,,,,,,,,,,,,,,,,,,
,8242,CBA,20/06/2002,001,2023-04-20_13h49.20.135,OS3_Mult_verification,2022.2.4,MacIntel,60.0024001,,,,,,,,,,,,,,,,,,,,,,,,,,,,,,,,,,,,,321,1.1473,1,"[""3"",""2"",""1"",""return""]","[0.6332000000476228,0.7049999999999272,0.8848999998568843,1.1178999998569452]",0,2,2,1,1,3,321,Audio/321.mp3,practice,,,,,,,,,,,,,,,,,,,,,,,,,,,,,,,,,,,,,,,,,,,,,,,,,,,,,,,,,,,,,,,,,,,,,,,,,,,,,,,,,,,,,,,,,,,,,,,,,,,,,,,,,,,,,,,,,,,,,,,,,,,,
,8242,CBA,20/06/2002,001,2023-04-20_13h49.20.135,OS3_Mult_verification,2022.2.4,MacIntel,60.0024001,,,,,,,,,,,,,,,,,,,,,,,,,,,,,,,,,,,,,46,0.9644,1,"[""4"",""6"",""return""]","[0.5812000000477155,0.7186000001430557,0.9341000001430757]",,,,,,2,46,Audio/46.mp3,EGNER,0,0,0,0,1,,,,,,,,,,,,,,,,,,,,,,,,,,,,,,,,,,,,,,,,,,,,,,,,,,,,,,,,,,,,,,,,,,,,,,,,,,,,,,,,,,,,,,,,,,,,,,,,,,,,,,,,,,,,,,,,,,,,,,,
,8242,CBA,20/06/2002,001,2023-04-20_13h49.20.135,OS3_Mult_verification,2022.2.4,MacIntel,60.0024001,,,,,,,,,,,,,,,,,,,,,,,,,,,,,,,,,,,,,82,0.9966,1,"[""8"",""2"",""return""]","[0.4679999999999609,0.5482999999522917,0.9679999999999609]",,,,,,2,82,Audio/82.mp3,EGNER,0,1,1,1,1,,,,,,,,,,,,,,,,,,,,,,,,,,,,,,,,,,,,,,,,,,,,,,,,,,,,,,,,,,,,,,,,,,,,,,,,,,,,,,,,,,,,,,,,,,,,,,,,,,,,,,,,,,,,,,,,,,,,,,,
,8242,CBA,20/06/2002,001,2023-04-20_13h49.20.135,OS3_Mult_verification,2022.2.4,MacIntel,60.0024001,,,,,,,,,,,,,,,,,,,,,,,,,,,,,,,,,,,,,,,,,,,,,,,,,,,,,,,,0,0,0,0,1,digitSpan_stim/twoAudio.xlsx,,,,,,,,,,,,,,,,,,,,,,,,,,,,,,,,,,,,,,,,,,,,,,,,,,,,,,,,,,,,,,,,,,,,,,,,,,,,,,,,,,,,,,,,,,,,,,,,,,,,,,,,,,,,,,,,,
,8242,CBA,20/06/2002,001,2023-04-20_13h49.20.135,OS3_Mult_verification,2022.2.4,MacIntel,60.0024001,,,,,,,,,,,,,,,,,,,,,,,,,,,,,,,,,,,,,157,0.8988,1,"[""1"",""5"",""7"",""return""]","[0.3832000000476228,0.5172999999523427,0.6835999999045725,0.8659000000953938]",,,,,,3,157,Audio/157.mp3,EGNER,0,0,0,0,1,,,,,,,,,,,,,,,,,,,,,,,,,,,,,,,,,,,,,,,,,,,,,,,,,,,,,,,,,,,,,,,,,,,,,,,,,,,,,,,,,,,,,,,,,,,,,,,,,,,,,,,,,,,,,,,,,,,,,,,
,8242,CBA,20/06/2002,001,2023-04-20_13h49.20.135,OS3_Mult_verification,2022.2.4,MacIntel,60.0024001,,,,,,,,,,,,,,,,,,,,,,,,,,,,,,,,,,,,,397,0.95,1,"[""3"",""9"",""7"",""return""]","[0.38720000004775557,0.5182000000477274,0.7012999999523117,0.9184999999999945]",,,,,,3,397,Audio/397.mp3,EGNER,0,1,1,1,1,,,,,,,,,,,,,,,,,,,,,,,,,,,,,,,,,,,,,,,,,,,,,,,,,,,,,,,,,,,,,,,,,,,,,,,,,,,,,,,,,,,,,,,,,,,,,,,,,,,,,,,,,,,,,,,,,,,,,,,
,8242,CBA,20/06/2002,001,2023-04-20_13h49.20.135,OS3_Mult_verification,2022.2.4,MacIntel,60.0024001,,,,,,,,,,,,,,,,,,,,,,,,,,,,,,,,,,,,,,,,,,,,,,,,,,,,,,,,0,1,1,1,1,digitSpan_stim/threeAudio.xlsx,,,,,,,,,,,,,,,,,,,,,,,,,,,,,,,,,,,,,,,,,,,,,,,,,,,,,,,,,,,,,,,,,,,,,,,,,,,,,,,,,,,,,,,,,,,,,,,,,,,,,,,,,,,,,,,,,
,8242,CBA,20/06/2002,001,2023-04-20_13h49.20.135,OS3_Mult_verification,2022.2.4,MacIntel,60.0024001,,,,,,,,,,,,,,,,,,,,,,,,,,,,,,,,,,,,,6352,2.5169,1,"[""6"",""3"",""5"",""1"",""backspace"",""2"",""return""]","[0.532299999952329,0.6822000000477146,0.9342000000476673,1.317900000095392,2.0532000000476955,2.3672999999523654,2.48629999995228]",,,,,,4,6352,Audio/6352.mp3,EGNER,0,0,0,0,1,,,,,,,,,,,,,,,,,,,,,,,,,,,,,,,,,,,,,,,,,,,,,,,,,,,,,,,,,,,,,,,,,,,,,,,,,,,,,,,,,,,,,,,,,,,,,,,,,,,,,,,,,,,,,,,,,,,,,,,
,8242,CBA,20/06/2002,001,2023-04-20_13h49.20.135,OS3_Mult_verification,2022.2.4,MacIntel,60.0024001,,,,,,,,,,,,,,,,,,,,,,,,,,,,,,,,,,,,,9184,1.3162,1,"[""9"",""1"",""8"",""4"",""return""]","[0.5827999999522717,0.8022000000477192,0.9826000001430657,1.1329000000953329,1.2836000001429966]",,,,,,4,9184,Audio/9184.mp3,EGNER,0,1,1,1,1,,,,,,,,,,,,,,,,,,,,,,,,,,,,,,,,,,,,,,,,,,,,,,,,,,,,,,,,,,,,,,,,,,,,,,,,,,,,,,,,,,,,,,,,,,,,,,,,,,,,,,,,,,,,,,,,,,,,,,,
,8242,CBA,20/06/2002,001,2023-04-20_13h49.20.135,OS3_Mult_verification,2022.2.4,MacIntel,60.0024001,,,,,,,,,,,,,,,,,,,,,,,,,,,,,,,,,,,,,,,,,,,,,,,,,,,,,,,,0,2,2,2,1,digitSpan_stim/fourAudio.xlsx,,,,,,,,,,,,,,,,,,,,,,,,,,,,,,,,,,,,,,,,,,,,,,,,,,,,,,,,,,,,,,,,,,,,,,,,,,,,,,,,,,,,,,,,,,,,,,,,,,,,,,,,,,,,,,,,,
,8242,CBA,20/06/2002,001,2023-04-20_13h49.20.135,OS3_Mult_verification,2022.2.4,MacIntel,60.0024001,,,,,,,,,,,,,,,,,,,,,,,,,,,,,,,,,,,,,59281,1.4512,1,"[""5"",""9"",""2"",""8"",""1"",""return""]","[0.5687000000476701,0.7497000000477101,0.9185999999045862,1.1078999998569543,1.2503999998568815,1.4218999998569188]",,,,,,5,59281,Audio/59281.mp3,EGNER,0,0,0,0,1,,,,,,,,,,,,,,,,,,,,,,,,,,,,,,,,,,,,,,,,,,,,,,,,,,,,,,,,,,,,,,,,,,,,,,,,,,,,,,,,,,,,,,,,,,,,,,,,,,,,,,,,,,,,,,,,,,,,,,,
,8242,CBA,20/06/2002,001,2023-04-20_13h49.20.135,OS3_Mult_verification,2022.2.4,MacIntel,60.0024001,,,,,,,,,,,,,,,,,,,,,,,,,,,,,,,,,,,,,64738,2.4347,1,"[""6"",""4"",""7"",""3"",""8"",""return""]","[0.9689000000953456,1.150799999952369,1.6577999999523172,1.8850999999046962,2.0904000000954284,2.407799999952317]",,,,,,5,64738,Audio/64738.mp3,EGNER,0,1,1,1,1,,,,,,,,,,,,,,,,,,,,,,,,,,,,,,,,,,,,,,,,,,,,,,,,,,,,,,,,,,,,,,,,,,,,,,,,,,,,,,,,,,,,,,,,,,,,,,,,,,,,,,,,,,,,,,,,,,,,,,,
,8242,CBA,20/06/2002,001,2023-04-20_13h49.20.135,OS3_Mult_verification,2022.2.4,MacIntel,60.0024001,,,,,,,,,,,,,,,,,,,,,,,,,,,,,,,,,,,,,,,,,,,,,,,,,,,,,,,,0,3,3,3,1,digitSpan_stim/fiveAudio.xlsx,,,,,,,,,,,,,,,,,,,,,,,,,,,,,,,,,,,,,,,,,,,,,,,,,,,,,,,,,,,,,,,,,,,,,,,,,,,,,,,,,,,,,,,,,,,,,,,,,,,,,,,,,,,,,,,,,
,8242,CBA,20/06/2002,001,2023-04-20_13h49.20.135,OS3_Mult_verification,2022.2.4,MacIntel,60.0024001,,,,,,,,,,,,,,,,,,,,,,,,,,,,,,,,,,,,,396172,2.866,1,"[""3"",""9"",""6"",""1"",""7"",""3"",""backspace"",""2"",""return""]","[0.36690000009537016,0.705600000143022,0.9672000000476828,1.2186000001430557,1.4827999999523627,1.7162000000477065,2.4476000001430975,2.668700000047693,2.8322999999522835]",,,,,,6,396172,Audio/396172.mp3,EGNER,0,0,0,0,1,,,,,,,,,,,,,,,,,,,,,,,,,,,,,,,,,,,,,,,,,,,,,,,,,,,,,,,,,,,,,,,,,,,,,,,,,,,,,,,,,,,,,,,,,,,,,,,,,,,,,,,,,,,,,,,,,,,,,,,
,8242,CBA,20/06/2002,001,2023-04-20_13h49.20.135,OS3_Mult_verification,2022.2.4,MacIntel,60.0024001,,,,,,,,,,,,,,,,,,,,,,,,,,,,,,,,,,,,,594631,3.6497,1,"[""5"",""9"",""4"",""6"",""3"",""1"",""return""]","[1.3690000000000282,1.7189000000953456,2.0346000001430866,2.335400000095433,2.9502000000477437,3.0815000000000055,3.6153000001907003]",,,,,,6,594631,Audio/594631.mp3,EGNER,0,1,1,1,1,,,,,,,,,,,,,,,,,,,,,,,,,,,,,,,,,,,,,,,,,,,,,,,,,,,,,,,,,,,,,,,,,,,,,,,,,,,,,,,,,,,,,,,,,,,,,,,,,,,,,,,,,,,,,,,,,,,,,,,
,8242,CBA,20/06/2002,001,2023-04-20_13h49.20.135,OS3_Mult_verification,2022.2.4,MacIntel,60.0024001,,,,,,,,,,,,,,,,,,,,,,,,,,,,,,,,,,,,,,,,,,,,,,,,,,,,,,,,0,4,4,4,1,digitSpan_stim/sixAudio.xlsx,,,,,,,,,,,,,,,,,,,,,,,,,,,,,,,,,,,,,,,,,,,,,,,,,,,,,,,,,,,,,,,,,,,,,,,,,,,,,,,,,,,,,,,,,,,,,,,,,,,,,,,,,,,,,,,,,
,8242,CBA,20/06/2002,001,2023-04-20_13h49.20.135,OS3_Mult_verification,2022.2.4,MacIntel,60.0024001,,,,,,,,,,,,,,,,,,,,,,,,,,,,,,,,,,,,,8241973,5.0524,1,"[""4"",""2"",""backspace"",""backspace"",""backspace"",""8"",""2"",""4"",""1"",""9"",""7"",""3"",""return""]","[0.5205999999046753,0.9691999998092342,1.7569999999999482,1.9517999999523,2.134399999856896,2.4847999999523154,2.83429999995235,3.283399999856897,3.5359999999999445,4.052599999904601,4.624500000000012,4.839099999904647,5.025599999904671]",,,,,,7,8241973,Audio/8241973.mp3,EGNER,0,0,0,0,1,,,,,,,,,,,,,,,,,,,,,,,,,,,,,,,,,,,,,,,,,,,,,,,,,,,,,,,,,,,,,,,,,,,,,,,,,,,,,,,,,,,,,,,,,,,,,,,,,,,,,,,,,,,,,,,,,,,,,,,
,8242,CBA,20/06/2002,001,2023-04-20_13h49.20.135,OS3_Mult_verification,2022.2.4,MacIntel,60.0024001,,,,,,,,,,,,,,,,,,,,,,,,,,,,,,,,,,,,,3829147,2.7325,0,"[""3"",""8"",""2"",""9"",""1"",""4"",""7"",""return""]","[0.4982999999523372,0.8498999998569161,1.2659999999999627,1.6030000000000655,1.8697000000477146,2.116899999856969,2.4180000000000064,2.6988999998569625]",,,,,,7,2814367,Audio/2814367.mp3,EGNER,0,1,1,1,1,,,,,,,,,,,,,,,,,,,,,,,,,,,,,,,,,,,,,,,,,,,,,,,,,,,,,,,,,,,,,,,,,,,,,,,,,,,,,,,,,,,,,,,,,,,,,,,,,,,,,,,,,,,,,,,,,,,,,,,
,8242,CBA,20/06/2002,001,2023-04-20_13h49.20.135,OS3_Mult_verification,2022.2.4,MacIntel,60.0024001,,,,,,,,,,,,,,,,,,,,,,,,,,,,,,,,,,,,,,,,,,,,,,,,,,,,,,,,0,5,5,5,1,digitSpan_stim/sevenAudio.xlsx,,,,,,,,,,,,,,,,,,,,,,,,,,,,,,,,,,,,,,,,,,,,,,,,,,,,,,,,,,,,,,,,,,,,,,,,,,,,,,,,,,,,,,,,,,,,,,,,,,,,,,,,,,,,,,,,,
,8242,CBA,20/06/2002,001,2023-04-20_13h49.20.135,OS3_Mult_verification,2022.2.4,MacIntel,60.0024001,,,,,,,,,,,,,,,,,,,,,,,,,,,,,,,,,,,,,53827164,4.3187,1,"[""5"",""3"",""8"",""2"",""7"",""1"",""6"",""4"",""return""]","[0.7347999999523154,1.1166000001430803,1.63250000000005,2.0352999999523718,2.5686000001430784,3.0325000000000273,3.4347000000476555,3.918400000095403,4.2827000000477256]",,,,,,8,53827164,Audio/53827164.mp3,EGNER,0,0,0,0,1,,,,,,,,,,,,,,,,,,,,,,,,,,,,,,,,,,,,,,,,,,,,,,,,,,,,,,,,,,,,,,,,,,,,,,,,,,,,,,,,,,,,,,,,,,,,,,,,,,,,,,,,,,,,,,,,,,,,,,,
,8242,CBA,20/06/2002,001,2023-04-20_13h49.20.135,OS3_Mult_verification,2022.2.4,MacIntel,60.0024001,,,,,,,,,,,,,,,,,,,,,,,,,,,,,,,,,,,,,75421593,5.2158,0,"[""7"",""5"",""4"",""2"",""1"",""5"",""9"",""3"",""return""]","[0.5327000000477256,1.0677000000476937,1.5007999999523918,2.3842999999523045,2.872299999952361,4.06840000009538,4.350599999904716,4.652099999904635,5.184099999904674]",,,,,,8,75241739,Audio/75241739.mp3,EGNER,0,1,1,1,1,,,,,,,,,,,,,,,,,,,,,,,,,,,,,,,,,,,,,,,,,,,,,,,,,,,,,,,,,,,,,,,,,,,,,,,,,,,,,,,,,,,,,,,,,,,,,,,,,,,,,,,,,,,,,,,,,,,,,,,
,8242,CBA,20/06/2002,001,2023-04-20_13h49.20.135,OS3_Mult_verification,2022.2.4,MacIntel,60.0024001,,,,,,,,,,,,,,,,,,,,,,,,,,,,,,,,,,,,,,,,,,,,,,,,,,,,,,,,0,6,6,6,1,digitSpan_stim/eightAudio.xlsx,,,,,,,,,,,,,,,,,,,,,,,,,,,,,,,,,,,,,,,,,,,,,,,,,,,,,,,,,,,,,,,,,,,,,,,,,,,,,,,,,,,,,,,,,,,,,,,,,,,,,,,,,,,,,,,,,
,8242,CBA,20/06/2002,001,2023-04-20_13h49.20.135,OS3_Mult_verification,2022.2.4,MacIntel,60.0024001,,,,,,,,,,,,,,,,,,,,,,,,,,,,,,,,,,,,,68251436,5.1477,0,"[""6"",""8"",""2"",""5"",""1"",""4"",""3"",""6"",""return""]","[0.6567999999523408,1.0496999998092633,1.4305999999046435,1.7565999999046653,2.180699999809235,2.7167999999522863,3.2972999999523154,4.947699999809288,5.114299999952323]",,,,,,9,682594316,Audio/682594316.mp3,EGNER,0,0,0,0,1,,,,,,,,,,,,,,,,,,,,,,,,,,,,,,,,,,,,,,,,,,,,,,,,,,,,,,,,,,,,,,,,,,,,,,,,,,,,,,,,,,,,,,,,,,,,,,,,,,,,,,,,,,,,,,,,,,,,,,,
,8242,CBA,20/06/2002,001,2023-04-20_13h49.20.135,OS3_Mult_verification,2022.2.4,MacIntel,60.0024001,,,,,,,,,,,,,,,,,,,,,,,,,,,,,,,,,,,,,1429678,7.3171,0,"[""1"",""4"",""2"",""9"",""6"",""7"",""8"",""return""]","[1.2825000000000273,1.5202999999523854,1.8487999999523481,4.016700000047649,4.516599999904656,4.9669999999999845,6.934299999952373,7.282799999952317]",,,,,,9,142963758,Audio/142963758.mp3,EGNER,0,1,1,1,1,,,,,,,,,,,,,,,,,,,,,,,,,,,,,,,,,,,,,,,,,,,,,,,,,,,,,,,,,,,,,,,,,,,,,,,,,,,,,,,,,,,,,,,,,,,,,,,,,,,,,,,,,,,,,,,,,,,,,,,
,8242,CBA,20/06/2002,001,2023-04-20_13h49.20.135,OS3_Mult_verification,2022.2.4,MacIntel,60.0024001,,,,,,,,,,,,,,,,,,,,,,,,,,,,,,,,,,,,,,,,,,,,,,,Egner,,,,,,,,,,,,,,,0,0,0,0,1,digitSpan_stim/Egner.xlsx,,,,,,,,,,,,,,,,,,,,,,,,,,,,,,,,,,,,,,,,,,,,,,,,,,,,,,,,,,,,,,,,,,,,,,,,,,,,,,,,,,,,,,,,,,,,,,,,,,,,,,,,,,,
,8242,CBA,20/06/2002,001,2023-04-20_13h49.20.135,OS3_Mult_verification,2022.2.4,MacIntel,60.0024001,,,,,,,,,,,,,,,,,,,,,,,,,,,,,,,,,,,,,97,1.079,1,"[""9"",""7"",""return""]","[0.5003999998569952,0.6987999999523709,1.0477999999523036]",,,,,,2,97,Audio/97.mp3,WAIS,0,0,0,0,1,,,,,,,,,,,,,,,,,,,,,,,,,,,,,,,,,,,,,,,,,,,,,,,,,,,,,,,,,,,,,,,,,,,,,,,,,,,,,,,,,,,,,,,,,,,,,,,,,,,,,,,,,,,,,,,,,,,,,,,
,8242,CBA,20/06/2002,001,2023-04-20_13h49.20.135,OS3_Mult_verification,2022.2.4,MacIntel,60.0024001,,,,,,,,,,,,,,,,,,,,,,,,,,,,,,,,,,,,,63,0.8803,1,"[""6"",""3"",""return""]","[0.48110000014310117,0.5663000001908358,0.8496000001431412]",,,,,,2,63,Audio/63.mp3,WAIS,0,1,1,1,1,,,,,,,,,,,,,,,,,,,,,,,,,,,,,,,,,,,,,,,,,,,,,,,,,,,,,,,,,,,,,,,,,,,,,,,,,,,,,,,,,,,,,,,,,,,,,,,,,,,,,,,,,,,,,,,,,,,,,,,
,8242,CBA,20/06/2002,001,2023-04-20_13h49.20.135,OS3_Mult_verification,2022.2.4,MacIntel,60.0024001,,,,,,,,,,,,,,,,,,,,,,,,,,,,,,,,,,,,,,,,,,,,,,,,,,,,,,,,0,0,0,0,1,digitSpan_stim/twoWAIS.xlsx,,,,,,,,,,,,,,,,,,,,,,,,,,,,,,,,,,,,,,,,,,,,,,,,,,,,,,,,,,,,,,,,,,,,,,,,,,,,,,,,,,,,,,,,,,,,,,,,,,,,,,,,,,,,,,,,,
,8242,CBA,20/06/2002,001,2023-04-20_13h49.20.135,OS3_Mult_verification,2022.2.4,MacIntel,60.0024001,,,,,,,,,,,,,,,,,,,,,,,,,,,,,,,,,,,,,582,1.252,1,"[""5"",""8"",""2"",""return""]","[0.5739999999999554,0.7984000000952847,1.0177999999522171,1.2204999999999018]",,,,,,3,582,Audio/582.mp3,WAIS,0,0,0,0,1,,,,,,,,,,,,,,,,,,,,,,,,,,,,,,,,,,,,,,,,,,,,,,,,,,,,,,,,,,,,,,,,,,,,,,,,,,,,,,,,,,,,,,,,,,,,,,,,,,,,,,,,,,,,,,,,,,,,,,,
,8242,CBA,20/06/2002,001,2023-04-20_13h49.20.135,OS3_Mult_verification,2022.2.4,MacIntel,60.0024001,,,,,,,,,,,,,,,,,,,,,,,,,,,,,,,,,,,,,694,1.2135,1,"[""6"",""9"",""4"",""return""]","[0.6992999999522453,0.8667000000476719,0.9802999999523081,1.1842000000476673]",,,,,,3,694,Audio/694.mp3,WAIS,0,1,1,1,1,,,,,,,,,,,,,,,,,,,,,,,,,,,,,,,,,,,,,,,,,,,,,,,,,,,,,,,,,,,,,,,,,,,,,,,,,,,,,,,,,,,,,,,,,,,,,,,,,,,,,,,,,,,,,,,,,,,,,,,
,8242,CBA,20/06/2002,001,2023-04-20_13h49.20.135,OS3_Mult_verification,2022.2.4,MacIntel,60.0024001,,,,,,,,,,,,,,,,,,,,,,,,,,,,,,,,,,,,,,,,,,,,,,,,,,,,,,,,0,1,1,1,1,digitSpan_stim/threeWAIS.xlsx,,,,,,,,,,,,,,,,,,,,,,,,,,,,,,,,,,,,,,,,,,,,,,,,,,,,,,,,,,,,,,,,,,,,,,,,,,,,,,,,,,,,,,,,,,,,,,,,,,,,,,,,,,,,,,,,,
,8242,CBA,20/06/2002,001,2023-04-20_13h49.20.135,OS3_Mult_verification,2022.2.4,MacIntel,60.0024001,,,,,,,,,,,,,,,,,,,,,,,,,,,,,,,,,,,,,7286,1.4658,1,"[""7"",""2"",""8"",""6"",""return""]","[0.5007999999522781,0.6325999999046417,0.9647999999523336,1.2330999999046526,1.4382000000476864]",,,,,,4,7286,Audio/7286.mp3,WAIS,0,0,0,0,1,,,,,,,,,,,,,,,,,,,,,,,,,,,,,,,,,,,,,,,,,,,,,,,,,,,,,,,,,,,,,,,,,,,,,,,,,,,,,,,,,,,,,,,,,,,,,,,,,,,,,,,,,,,,,,,,,,,,,,,
,8242,CBA,20/06/2002,001,2023-04-20_13h49.20.135,OS3_Mult_verification,2022.2.4,MacIntel,60.0024001,,,,,,,,,,,,,,,,,,,,,,,,,,,,,,,,,,,,,6439,1.2976,1,"[""6"",""4"",""3"",""9"",""return""]","[0.5477999999523036,0.6494999999999891,0.8042999999523772,0.9809999999999945,1.2682000000477274]",,,,,,4,6439,Audio/6439.mp3,WAIS,0,1,1,1,1,,,,,,,,,,,,,,,,,,,,,,,,,,,,,,,,,,,,,,,,,,,,,,,,,,,,,,,,,,,,,,,,,,,,,,,,,,,,,,,,,,,,,,,,,,,,,,,,,,,,,,,,,,,,,,,,,,,,,,,
,8242,CBA,20/06/2002,001,2023-04-20_13h49.20.135,OS3_Mult_verification,2022.2.4,MacIntel,60.0024001,,,,,,,,,,,,,,,,,,,,,,,,,,,,,,,,,,,,,,,,,,,,,,,,,,,,,,,,0,2,2,2,1,digitSpan_stim/fourWAIS.xlsx,,,,,,,,,,,,,,,,,,,,,,,,,,,,,,,,,,,,,,,,,,,,,,,,,,,,,,,,,,,,,,,,,,,,,,,,,,,,,,,,,,,,,,,,,,,,,,,,,,,,,,,,,,,,,,,,,
,8242,CBA,20/06/2002,001,2023-04-20_13h49.20.135,OS3_Mult_verification,2022.2.4,MacIntel,60.0024001,,,,,,,,,,,,,,,,,,,,,,,,,,,,,,,,,,,,,427321,1.997,0,"[""4"",""2"",""7"",""3"",""2"",""1"",""return""]","[0.6499000000953856,0.8009000000953392,1.0502000000476528,1.2570000000000618,1.4878000001907594,1.6164999999999736,1.9667000000476946]",,,,,,5,42731,Audio/42731.mp3,WAIS,0,0,0,0,1,,,,,,,,,,,,,,,,,,,,,,,,,,,,,,,,,,,,,,,,,,,,,,,,,,,,,,,,,,,,,,,,,,,,,,,,,,,,,,,,,,,,,,,,,,,,,,,,,,,,,,,,,,,,,,,,,,,,,,,
,8242,CBA,20/06/2002,001,2023-04-20_13h49.20.135,OS3_Mult_verification,2022.2.4,MacIntel,60.0024001,,,,,,,,,,,,,,,,,,,,,,,,,,,,,,,,,,,,,75836,2.7495,1,"[""7"",""5"",""8"",""3"",""6"",""return""]","[0.7339000000954456,1.3489000000954547,1.8170000000000073,2.217200000047683,2.500499999999988,2.7167000000476946]",,,,,,5,75836,Audio/75836.mp3,WAIS,0,1,1,1,1,,,,,,,,,,,,,,,,,,,,,,,,,,,,,,,,,,,,,,,,,,,,,,,,,,,,,,,,,,,,,,,,,,,,,,,,,,,,,,,,,,,,,,,,,,,,,,,,,,,,,,,,,,,,,,,,,,,,,,,
,8242,CBA,20/06/2002,001,2023-04-20_13h49.20.135,OS3_Mult_verification,2022.2.4,MacIntel,60.0024001,,,,,,,,,,,,,,,,,,,,,,,,,,,,,,,,,,,,,,,,,,,,,,,,,,,,,,,,0,3,3,3,1,digitSpan_stim/fiveWAIS.xlsx,,,,,,,,,,,,,,,,,,,,,,,,,,,,,,,,,,,,,,,,,,,,,,,,,,,,,,,,,,,,,,,,,,,,,,,,,,,,,,,,,,,,,,,,,,,,,,,,,,,,,,,,,,,,,,,,,
,8242,CBA,20/06/2002,001,2023-04-20_13h49.20.135,OS3_Mult_verification,2022.2.4,MacIntel,60.0024001,,,,,,,,,,,,,,,,,,,,,,,,,,,,,,,,,,,,,938487,3.8511,0,"[""9"",""3"",""8"",""4"",""8"",""7"",""return""]","[0.8838999998569079,1.2048999998569343,1.7170999999046899,1.9842999999523272,2.6989999999999554,3.3500000000000227,3.8235999999046726]",,,,,,6,392487,Audio/392487.mp3,WAIS,0,0,0,0,1,,,,,,,,,,,,,,,,,,,,,,,,,,,,,,,,,,,,,,,,,,,,,,,,,,,,,,,,,,,,,,,,,,,,,,,,,,,,,,,,,,,,,,,,,,,,,,,,,,,,,,,,,,,,,,,,,,,,,,,
,8242,CBA,20/06/2002,001,2023-04-20_13h49.20.135,OS3_Mult_verification,2022.2.4,MacIntel,60.0024001,,,,,,,,,,,,,,,,,,,,,,,,,,,,,,,,,,,,,619473,2.504,1,"[""6"",""1"",""9"",""4"",""7"",""3"",""return""]","[0.7018999998568916,1.0052999999522854,1.3244999999999436,1.6833999998568743,2.000699999809285,2.2021999998091815,2.4680999999045525]",,,,,,6,619473,Audio/619473.mp3,WAIS,0,1,1,1,1,,,,,,,,,,,,,,,,,,,,,,,,,,,,,,,,,,,,,,,,,,,,,,,,,,,,,,,,,,,,,,,,,,,,,,,,,,,,,,,,,,,,,,,,,,,,,,,,,,,,,,,,,,,,,,,,,,,,,,,
,8242,CBA,20/06/2002,001,2023-04-20_13h49.20.135,OS3_Mult_verification,2022.2.4,MacIntel,60.0024001,,,,,,,,,,,,,,,,,,,,,,,,,,,,,,,,,,,,,,,,,,,,,,,,,,,,,,,,0,4,4,4,1,digitSpan_stim/sixWAIS.xlsx,,,,,,,,,,,,,,,,,,,,,,,,,,,,,,,,,,,,,,,,,,,,,,,,,,,,,,,,,,,,,,,,,,,,,,,,,,,,,,,,,,,,,,,,,,,,,,,,,,,,,,,,,,,,,,,,,
,8242,CBA,20/06/2002,001,2023-04-20_13h49.20.135,OS3_Mult_verification,2022.2.4,MacIntel,60.0024001,,,,,,,,,,,,,,,,,,,,,,,,,,,,,,,,,,,,,6197428,3.6307,0,"[""6"",""1"",""9"",""7"",""4"",""2"",""8"",""return""]","[0.5991000001430393,1.2894000000953838,1.7669000000953474,2.382100000143055,2.8647000000476055,3.0017999999522544,3.248499999999922,3.6000000000000227]",,,,,,7,6917428,Audio/6917428.mp3,WAIS,0,0,0,0,1,,,,,,,,,,,,,,,,,,,,,,,,,,,,,,,,,,,,,,,,,,,,,,,,,,,,,,,,,,,,,,,,,,,,,,,,,,,,,,,,,,,,,,,,,,,,,,,,,,,,,,,,,,,,,,,,,,,,,,,
,8242,CBA,20/06/2002,001,2023-04-20_13h49.20.135,OS3_Mult_verification,2022.2.4,MacIntel,60.0024001,,,,,,,,,,,,,,,,,,,,,,,,,,,,,,,,,,,,,4971386,4.9649,0,"[""4"",""9"",""7"",""1"",""3"",""8"",""6"",""return""]","[2.2697999999522835,2.537099999904626,2.821099999904618,3.1714999999999236,3.523099999904616,4.458499999999958,4.7075999999045735,4.939999999999941]",,,,,,7,4179386,Audio/4179386.mp3,WAIS,0,1,1,1,1,,,,,,,,,,,,,,,,,,,,,,,,,,,,,,,,,,,,,,,,,,,,,,,,,,,,,,,,,,,,,,,,,,,,,,,,,,,,,,,,,,,,,,,,,,,,,,,,,,,,,,,,,,,,,,,,,,,,,,,
,8242,CBA,20/06/2002,001,2023-04-20_13h49.20.135,OS3_Mult_verification,2022.2.4,MacIntel,60.0024001,,,,,,,,,,,,,,,,,,,,,,,,,,,,,,,,,,,,,,,,,,,,,,,WAIS,,,,,,,,,,,,,,,0,1,1,1,1,digitSpan_stim/WAIS.xlsx,,,,,,,,,,,,,,,,,,,,,,,,,,,,,,,,,,,,,,,,,,,,,,,,,,,,,,,,,,,,,,,,,,,,,,,,,,,,,,,,,,,,,,,,,,,,,,,,,,,,,,,,,,,
,8242,CBA,20/06/2002,001,2023-04-20_13h49.20.135,OS3_Mult_verification,2022.2.4,MacIntel,60.0024001,,,,,,,,,,,,,,,,,,,,,,,,,,,,,,,,,,,,,,,,,,,,,,,,,,,,,,,,,,,,,,,,,,,,0,0,0,0,1,,,,,,,,,,,,,,,,,,,,,,,,,,,,,,,,,,,,,,,,,,,,,,,,,,,,,,,,,,,,,,,,,,,,,,,,,,,,,,,,,,,,,,,,,,,,,,,,,,,,,,
,8242,CBA,20/06/2002,001,2023-04-20_13h49.20.135,OS3_Mult_verification,2022.2.4,MacIntel,60.0024001,,,,,,,,,,,,,,,,,,,,,,,,,,,,,,,,,,,,,,,,,,,,,,,,,,,,,,,,,,,,,,,,,,,,,,,,,0,0,0,0,1,0,0,1,,,,,,,,,,,,,,,,,,,,,,,,,,,,,,,,,,,,,,,,,,,,,,,,,,,,,,,,,,,,,,,,,,,,,,,,,,,,,,,,,,,,,,,,,,,,,,
,8242,CBA,20/06/2002,001,2023-04-20_13h49.20.135,OS3_Mult_verification,2022.2.4,MacIntel,60.0024001,,,,,,,,,,,,,,,,space,1.6362,,,,,,,,,,,,,,,,,,,,,,,,,,,,,,,,,,,,,,,,,,,,,,,,,,,,,,,,,,,,,,,,TRUE,9.3834,0.045616319,-0.351697049,1,0,0,0,0,0,1,1,practice trial,,3,3,,,,,,,,,,,,,,,,,,,,,,,,,,,,,,,,,,,,,,,,,,,,,,,,,,,,,,,,,,,,,,,,,,,,,,,,,,,,,,
,8242,CBA,20/06/2002,001,2023-04-20_13h49.20.135,OS3_Mult_verification,2022.2.4,MacIntel,60.0024001,,,,,,,,,,,,,,,,,,,,,,,,,,,,,,,,,,,,,,,,,,,,,,,,,,,,,,,,,,,,,,,,,,,,,,,,,,,,,,,,,TRUE,4.7479,0.054539931,-0.369097222,1,0,0,0,1,1,2,1,practice trial,,3,3,,,,,,,,,,,,,,,,,,,,,,,,,,,,,,,,,,,,,,,,,,,,,,,,,,,,,,,,,,,,,,,,,,,,,,,,,,,,,,
,8242,CBA,20/06/2002,001,2023-04-20_13h49.20.135,OS3_Mult_verification,2022.2.4,MacIntel,60.0024001,,,,,,,,,,,,,,,,,,,,,,,,,,,,,,,,,,,,,,,,,,,,,,,,,,,,,,,,,,,,,,,,,,,,,,,,,,,,,,,,,TRUE,3.6357,0.036744792,-0.346102431,1,0,0,0,2,2,0,1,practice trial,,3,3,,,,,,,,,,,,,,,,,,,,,,,,,,,,,,,,,,,,,,,,,,,,,,,,,,,,,,,,,,,,,,,,,,,,,,,,,,,,,,
,8242,CBA,20/06/2002,001,2023-04-20_13h49.20.135,OS3_Mult_verification,2022.2.4,MacIntel,60.0024001,,,,,,,,,,,,,,,,,,,,,,,,,,,,,,,,,,,,,,,,,,,,,,,,,,,,,,,,,,,,,,,,,,,,,,,,,,,,,,,,,TRUE,1.9521,0.040164931,-0.360056424,1,0,0,,,,,,Trial #1,,2,2,0,0,0,0,1,2,,,,,,,,,,,,,,,,,,,,,,,,,,,,,,,,,,,,,,,,,,,,,,,,,,,,,,,,,,,,,,,,,,,,,,,,
,8242,CBA,20/06/2002,001,2023-04-20_13h49.20.135,OS3_Mult_verification,2022.2.4,MacIntel,60.0024001,,,,,,,,,,,,,,,,,,,,,,,,,,,,,,,,,,,,,,,,,,,,,,,,,,,,,,,,,,,,,,,,,,,,,,,,,,,,,,,,,TRUE,2.1161,0.029973958,-0.355008681,1,0,0,,,,,,Trial #1,,2,2,0,1,1,1,1,2,,,,,,,,,,,,,,,,,,,,,,,,,,,,,,,,,,,,,,,,,,,,,,,,,,,,,,,,,,,,,,,,,,,,,,,,
,8242,CBA,20/06/2002,001,2023-04-20_13h49.20.135,OS3_Mult_verification,2022.2.4,MacIntel,60.0024001,,,,,,,,,,,,,,,,,,,,,,,,,,,,,,,,,,,,,,,,,,,,,,,,,,,,,,,,,,,,,,,,,,,,,,,,,,,,,,,,,TRUE,2.1656,0.026961806,-0.35234375,1,0,0,,,,,,Trial #1,,2,2,0,2,2,2,1,2,,,,,,,,,,,,,,,,,,,,,,,,,,,,,,,,,,,,,,,,,,,,,,,,,,,,,,,,,,,,,,,,,,,,,,,,
,8242,CBA,20/06/2002,001,2023-04-20_13h49.20.135,OS3_Mult_verification,2022.2.4,MacIntel,60.0024001,,,,,,,,,,,,,,,,,,,,,,,,,,,,,,,,,,,,,,,,,,,,,,,,,,,,,,,,,,,,,,,,,,,,,,,,,,,,,,,,,TRUE,2.3835,0.010616319,-0.347643229,1,0,0,,,,,,Trial #2,,3,3,0,0,0,0,1,3,,,,,,,,,,,,,,,,,,,,,,,,,,,,,,,,,,,,,,,,,,,,,,,,,,,,,,,,,,,,,,,,,,,,,,,,
,8242,CBA,20/06/2002,001,2023-04-20_13h49.20.135,OS3_Mult_verification,2022.2.4,MacIntel,60.0024001,,,,,,,,,,,,,,,,,,,,,,,,,,,,,,,,,,,,,,,,,,,,,,,,,,,,,,,,,,,,,,,,,,,,,,,,,,,,,,,,,TRUE,2.6196,0.016367188,-0.372456597,1,0,0,,,,,,Trial #2,,3,3,0,1,1,1,1,3,,,,,,,,,,,,,,,,,,,,,,,,,,,,,,,,,,,,,,,,,,,,,,,,,,,,,,,,,,,,,,,,,,,,,,,,
,8242,CBA,20/06/2002,001,2023-04-20_13h49.20.135,OS3_Mult_verification,2022.2.4,MacIntel,60.0024001,,,,,,,,,,,,,,,,,,,,,,,,,,,,,,,,,,,,,,,,,,,,,,,,,,,,,,,,,,,,,,,,,,,,,,,,,,,,,,,,,TRUE,2.5491,0.010203993,-0.374010417,1,0,0,,,,,,Trial #2,,3,3,0,2,2,2,1,3,,,,,,,,,,,,,,,,,,,,,,,,,,,,,,,,,,,,,,,,,,,,,,,,,,,,,,,,,,,,,,,,,,,,,,,,
,8242,CBA,20/06/2002,001,2023-04-20_13h49.20.135,OS3_Mult_verification,2022.2.4,MacIntel,60.0024001,,,,,,,,,,,,,,,,,,,,,,,,,,,,,,,,,,,,,,,,,,,,,,,,,,,,,,,,,,,,,,,,,,,,,,,,,,,,,,,,,TRUE,2.7347,0.067586806,-0.337842882,1,0,0,,,,,,Trial #3,,3,3,0,0,0,0,1,4,,,,,,,,,,,,,,,,,,,,,,,,,,,,,,,,,,,,,,,,,,,,,,,,,,,,,,,,,,,,,,,,,,,,,,,,
,8242,CBA,20/06/2002,001,2023-04-20_13h49.20.135,OS3_Mult_verification,2022.2.4,MacIntel,60.0024001,,,,,,,,,,,,,,,,,,,,,,,,,,,,,,,,,,,,,,,,,,,,,,,,,,,,,,,,,,,,,,,,,,,,,,,,,,,,,,,,,TRUE,3.0844,0.006684028,-0.331940104,1,0,0,,,,,,Trial #3,,3,3,0,1,1,1,1,4,,,,,,,,,,,,,,,,,,,,,,,,,,,,,,,,,,,,,,,,,,,,,,,,,,,,,,,,,,,,,,,,,,,,,,,,
,8242,CBA,20/06/2002,001,2023-04-20_13h49.20.135,OS3_Mult_verification,2022.2.4,MacIntel,60.0024001,,,,,,,,,,,,,,,,,,,,,,,,,,,,,,,,,,,,,,,,,,,,,,,,,,,,,,,,,,,,,,,,,,,,,,,,,,,,,,,,,TRUE,3.0307,0.066914062,-0.372100694,1,0,0,,,,,,Trial #3,,3,3,0,2,2,2,1,4,,,,,,,,,,,,,,,,,,,,,,,,,,,,,,,,,,,,,,,,,,,,,,,,,,,,,,,,,,,,,,,,,,,,,,,,
,8242,CBA,20/06/2002,001,2023-04-20_13h49.20.135,OS3_Mult_verification,2022.2.4,MacIntel,60.0024001,,,,,,,,,,,,,,,,,,,,,,,,,,,,,,,,,,,,,,,,,,,,,,,,,,,,,,,,,,,,,,,,,,,,,,,,,,,,,,,,,TRUE,3.4338,0.038103299,-0.359674479,1,0,0,,,,,,Trial #4,,4,4,0,0,0,0,1,5,,,,,,,,,,,,,,,,,,,,,,,,,,,,,,,,,,,,,,,,,,,,,,,,,,,,,,,,,,,,,,,,,,,,,,,,
,8242,CBA,20/06/2002,001,2023-04-20_13h49.20.135,OS3_Mult_verification,2022.2.4,MacIntel,60.0024001,,,,,,,,,,,,,,,,,,,,,,,,,,,,,,,,,,,,,,,,,,,,,,,,,,,,,,,,,,,,,,,,,,,,,,,,,,,,,,,,,TRUE,3.9488,-0.042118056,-0.370789931,1,0,0,,,,,,Trial #4,,4,4,0,1,1,1,1,5,,,,,,,,,,,,,,,,,,,,,,,,,,,,,,,,,,,,,,,,,,,,,,,,,,,,,,,,,,,,,,,,,,,,,,,,
,8242,CBA,20/06/2002,001,2023-04-20_13h49.20.135,OS3_Mult_verification,2022.2.4,MacIntel,60.0024001,,,,,,,,,,,,,,,,,,,,,,,,,,,,,,,,,,,,,,,,,,,,,,,,,,,,,,,,,,,,,,,,,,,,,,,,,,,,,,,,,TRUE,3.4013,0.015221354,-0.3453125,1,0,0,,,,,,Trial #4,,4,4,0,2,2,2,1,5,,,,,,,,,,,,,,,,,,,,,,,,,,,,,,,,,,,,,,,,,,,,,,,,,,,,,,,,,,,,,,,,,,,,,,,,
,8242,CBA,20/06/2002,001,2023-04-20_13h49.20.135,OS3_Mult_verification,2022.2.4,MacIntel,60.0024001,,,,,,,,,,,,,,,,,,,,,,,,,,,,,,,,,,,,,,,,,,,,,,,,,,,,,,,,,,,,,,,,,,,,,,,,,,,,,,,,,TRUE,3.5998,0.043980035,-0.352886285,1,0,0,,,,,,Trial #5,,4,4,0,0,0,0,1,6,,,,,,,,,,,,,,,,,,,,,,,,,,,,,,,,,,,,,,,,,,,,,,,,,,,,,,,,,,,,,,,,,,,,,,,,
,8242,CBA,20/06/2002,001,2023-04-20_13h49.20.135,OS3_Mult_verification,2022.2.4,MacIntel,60.0024001,,,,,,,,,,,,,,,,,,,,,,,,,,,,,,,,,,,,,,,,,,,,,,,,,,,,,,,,,,,,,,,,,,,,,,,,,,,,,,,,,TRUE,3.8488,0.007018229,-0.359353299,1,0,0,,,,,,Trial #5,,4,4,0,1,1,1,1,6,,,,,,,,,,,,,,,,,,,,,,,,,,,,,,,,,,,,,,,,,,,,,,,,,,,,,,,,,,,,,,,,,,,,,,,,
,8242,CBA,20/06/2002,001,2023-04-20_13h49.20.135,OS3_Mult_verification,2022.2.4,MacIntel,60.0024001,,,,,,,,,,,,,,,,,,,,,,,,,,,,,,,,,,,,,,,,,,,,,,,,,,,,,,,,,,,,,,,,,,,,,,,,,,,,,,,,,TRUE,3.4673,0.0553125,-0.311393229,1,0,0,,,,,,Trial #5,,4,4,0,2,2,2,1,6,,,,,,,,,,,,,,,,,,,,,,,,,,,,,,,,,,,,,,,,,,,,,,,,,,,,,,,,,,,,,,,,,,,,,,,,
,8242,CBA,20/06/2002,001,2023-04-20_13h49.20.135,OS3_Mult_verification,2022.2.4,MacIntel,60.0024001,,,,,,,,,,,,,,,,,,,,,,,,,,,,,,,,,,,,,,,,,,,,,,,,,,,,,,,,,,,,,,,,,,,,,,,,,,,,,,,,,TRUE,5.85,0.033042535,-0.337669271,1,0,0,,,,,,Trial #6,,4,4,0,0,0,0,1,7,,,,,,,,,,,,,,,,,,,,,,,,,,,,,,,,,,,,,,,,,,,,,,,,,,,,,,,,,,,,,,,,,,,,,,,,
,8242,CBA,20/06/2002,001,2023-04-20_13h49.20.135,OS3_Mult_verification,2022.2.4,MacIntel,60.0024001,,,,,,,,,,,,,,,,,,,,,,,,,,,,,,,,,,,,,,,,,,,,,,,,,,,,,,,,,,,,,,,,,,,,,,,,,,,,,,,,,FALSE,5.152,0.01453125,-0.364097222,1,0,0,,,,,,Trial #6,,4,4,0,1,1,1,1,7,,,,,,,,,,,,,,,,,,,,,,,,,,,,,,,,,,,,,,,,,,,,,,,,,,,,,,,,,,,,,,,,,,,,,,,,
,8242,CBA,20/06/2002,001,2023-04-20_13h49.20.135,OS3_Mult_verification,2022.2.4,MacIntel,60.0024001,,,,,,,,,,,,,,,,,,,,,,,,,,,,,,,,,,,,,,,,,,,,,,,,,,,,,,,,,,,,,,,,,,,,,,,,,,,,,,,,,TRUE,4.9011,0.048667535,-0.370798611,1,0,0,,,,,,Trial #6,,4,4,0,2,2,2,1,7,,,,,,,,,,,,,,,,,,,,,,,,,,,,,,,,,,,,,,,,,,,,,,,,,,,,,,,,,,,,,,,,,,,,,,,,
,8242,CBA,20/06/2002,001,2023-04-20_13h49.20.135,OS3_Mult_verification,2022.2.4,MacIntel,60.0024001,,,,,,,,,,,,,,,,,,,,,,,,,,,,,,,,,,,,,,,,,,,,,,,,,,,,,,,,,,,,,,,,,,,,,,,,,,,,,,,,,TRUE,4.3849,0.013090278,-0.369088542,1,0,0,,,,,,Trial #7,,4,4,0,0,0,0,1,8,,,,,,,,,,,,,,,,,,,,,,,,,,,,,,,,,,,,,,,,,,,,,,,,,,,,,,,,,,,,,,,,,,,,,,,,
,8242,CBA,20/06/2002,001,2023-04-20_13h49.20.135,OS3_Mult_verification,2022.2.4,MacIntel,60.0024001,,,,,,,,,,,,,,,,,,,,,,,,,,,,,,,,,,,,,,,,,,,,,,,,,,,,,,,,,,,,,,,,,,,,,,,,,,,,,,,,,TRUE,7.816,0.075386285,-0.367634549,1,0,0,,,,,,Trial #7,,4,4,0,1,1,1,1,8,,,,,,,,,,,,,,,,,,,,,,,,,,,,,,,,,,,,,,,,,,,,,,,,,,,,,,,,,,,,,,,,,,,,,,,,
,8242,CBA,20/06/2002,001,2023-04-20_13h49.20.135,OS3_Mult_verification,2022.2.4,MacIntel,60.0024001,,,,,,,,,,,,,,,,,,,,,,,,,,,,,,,,,,,,,,,,,,,,,,,,,,,,,,,,,,,,,,,,,,,,,,,,,,,,,,,,,TRUE,5.1824,0.070251736,-0.349908854,1,0,0,,,,,,Trial #7,,4,4,0,2,2,2,1,8,,,,,,,,,,,,,,,,,,,,,,,,,,,,,,,,,,,,,,,,,,,,,,,,,,,,,,,,,,,,,,,,,,,,,,,,
,8242,CBA,20/06/2002,001,2023-04-20_13h49.20.135,OS3_Mult_verification,2022.2.4,MacIntel,60.0024001,,,,,,,,,,,,,,,,,,,,,,,,,,,,,,,,,,,,,,,,,,,,,,,,,,,,,,,,,,,,,,,,,,,,,,,,,,,,,,,,,FALSE,7.1365,0.083506944,-0.328802083,1,0,0,,,,,,Trial #8,,5,5,0,0,0,0,1,9,,,,,,,,,,,,,,,,,,,,,,,,,,,,,,,,,,,,,,,,,,,,,,,,,,,,,,,,,,,,,,,,,,,,,,,,
,8242,CBA,20/06/2002,001,2023-04-20_13h49.20.135,OS3_Mult_verification,2022.2.4,MacIntel,60.0024001,,,,,,,,,,,,,,,,,,,,,,,,,,,,,,,,,,,,,,,,,,,,,,,,,,,,,,,,,,,,,,,,,,,,,,,,,,,,,,,,,TRUE,6.4831,-0.028975694,-0.335056424,1,0,0,,,,,,Trial #8,,5,5,0,1,1,1,1,9,,,,,,,,,,,,,,,,,,,,,,,,,,,,,,,,,,,,,,,,,,,,,,,,,,,,,,,,,,,,,,,,,,,,,,,,
,8242,CBA,20/06/2002,001,2023-04-20_13h49.20.135,OS3_Mult_verification,2022.2.4,MacIntel,60.0024001,,,,,,,,,,,,,,,,,,,,,,,,,,,,,,,,,,,,,,,,,,,,,,,,,,,,,,,,,,,,,,,,,,,,,,,,,,,,,,,,,TRUE,7.8009,0.075234375,-0.339574653,1,0,0,,,,,,Trial #8,,5,5,0,2,2,2,1,9,,,,,,,,,,,,,,,,,,,,,,,,,,,,,,,,,,,,,,,,,,,,,,,,,,,,,,,,,,,,,,,,,,,,,,,,
,8242,CBA,20/06/2002,001,2023-04-20_13h49.20.135,OS3_Mult_verification,2022.2.4,MacIntel,60.0024001,,,,,,,,,,,,,,,,,,,,,,,,,,,,,,,,,,,,,,,,,,,,,,,,,,,,,,,,,,,,,,,,,,,,,,,,,,,,,,,,,TRUE,5.9806,-0.007013889,-0.337625868,1,0,0,,,,,,Trial #9,,5,5,0,0,0,0,1,10,,,,,,,,,,,,,,,,,,,,,,,,,,,,,,,,,,,,,,,,,,,,,,,,,,,,,,,,,,,,,,,,,,,,,,,,
,8242,CBA,20/06/2002,001,2023-04-20_13h49.20.135,OS3_Mult_verification,2022.2.4,MacIntel,60.0024001,,,,,,,,,,,,,,,,,,,,,,,,,,,,,,,,,,,,,,,,,,,,,,,,,,,,,,,,,,,,,,,,,,,,,,,,,,,,,,,,,TRUE,6.1846,-0.036896701,-0.336297743,1,0,0,,,,,,Trial #9,,5,5,0,1,1,1,1,10,,,,,,,,,,,,,,,,,,,,,,,,,,,,,,,,,,,,,,,,,,,,,,,,,,,,,,,,,,,,,,,,,,,,,,,,
,8242,CBA,20/06/2002,001,2023-04-20_13h49.20.135,OS3_Mult_verification,2022.2.4,MacIntel,60.0024001,,,,,,,,,,,,,,,,,,,,,,,,,,,,,,,,,,,,,,,,,,,,,,,,,,,,,,,,,,,,,,,,,,,,,,,,,,,,,,,,,FALSE,6.049,0.049079861,-0.338710937,1,0,0,,,,,,Trial #9,,5,5,0,2,2,2,1,10,,,,,,,,,,,,,,,,,,,,,,,,,,,,,,,,,,,,,,,,,,,,,,,,,,,,,,,,,,,,,,,,,,,,,,,,
,8242,CBA,20/06/2002,001,2023-04-20_13h49.20.135,OS3_Mult_verification,2022.2.4,MacIntel,60.0024001,,,,,,,,,,,,,,,,,,,,,,,,,,,,,,,,,,,,,,,,,,,,,,,,,,,,,,,,,,,,,,,,,,,,,,,,,,,,,,,,,FALSE,6.3494,0.056184896,-0.385190972,1,0,0,,,,,,Trial #10,,5,5,0,0,0,0,1,11,,,,,,,,,,,,,,,,,,,,,,,,,,,,,,,,,,,,,,,,,,,,,,,,,,,,,,,,,,,,,,,,,,,,,,,,
,8242,CBA,20/06/2002,001,2023-04-20_13h49.20.135,OS3_Mult_verification,2022.2.4,MacIntel,60.0024001,,,,,,,,,,,,,,,,,,,,,,,,,,,,,,,,,,,,,,,,,,,,,,,,,,,,,,,,,,,,,,,,,,,,,,,,,,,,,,,,,FALSE,7.8636,0.057586806,-0.325703125,1,0,0,,,,,,Trial #10,,5,5,0,1,1,1,1,11,,,,,,,,,,,,,,,,,,,,,,,,,,,,,,,,,,,,,,,,,,,,,,,,,,,,,,,,,,,,,,,,,,,,,,,,
,8242,CBA,20/06/2002,001,2023-04-20_13h49.20.135,OS3_Mult_verification,2022.2.4,MacIntel,60.0024001,,,,,,,,,,,,,,,,,,,,,,,,,,,,,,,,,,,,,,,,,,,,,,,,,,,,,,,,,,,,,,,,,,,,,,,,,,,,,,,,,FALSE,8.3359,0.037543403,-0.372144097,1,0,0,,,,,,Trial #10,,5,5,0,2,2,2,1,11,,,,,,,,,,,,,,,,,,,,,,,,,,,,,,,,,,,,,,,,,,,,,,,,,,,,,,,,,,,,,,,,,,,,,,,,
,8242,CBA,20/06/2002,001,2023-04-20_13h49.20.135,OS3_Mult_verification,2022.2.4,MacIntel,60.0024001,,,,,,,,,,,,,,,,,,,,,,,,,,,,,,,,,,,,,,,,,,,,,,,,,,,,,,,,,,,,,,,,,,,,,,,,,,,,,,,,,,,,,,,,,,,,,,,,,,,,,,,0,0,0,0,1,,,,,,,,,,,,,,,,,,,,,,,,,,,,,,,,,,,,,,,,,,,,,,,,,,,,,,,,,,,,,,,,,,,
,8242,CBA,20/06/2002,001,2023-04-20_13h49.20.135,OS3_Mult_verification,2022.2.4,MacIntel,60.0024001,,,,,,,,,,,,,,,,,,,,,,,,,,,,,,,,,,,,,,,,,,,,,,,,,,,,,,,,,,,,,,,,,,,,,,,,,0,1,1,1,1,0,1,0,,,,,,,,,,,,,,,,,,,,,,,,,,,,,,,,,,,,,,,,,,,,,,,,,,,,,,,,,,,,,,,,,,,,,,,,,,,,,,,,,,,,,,,,,,,,,,
,8242,CBA,20/06/2002,001,2023-04-20_13h49.20.135,OS3_Mult_verification,2022.2.4,MacIntel,60.0024001,,,,,,,,,,,,,,,,space,0.8986,,,,,,,,,,,,,,,,,,,,,,,,,,,,,,,,,,,,,,,,,,,,,,,,,,,,,,,,,,,,,,,,,,,,,,,,,,,,,,,,,,,,,,,,,,,right,1,2.2584,0,0,0,1,1,practice,4,3,4 | 3,1,0.05,0.065,incongruent,right,,,,,,,,,,,,,,,,,,,,,,,,,,,,,,,,,,,,,,,,,,,,,,,,,,
,8242,CBA,20/06/2002,001,2023-04-20_13h49.20.135,OS3_Mult_verification,2022.2.4,MacIntel,60.0024001,,,,,,,,,,,,,,,,,,,,,,,,,,,,,,,,,,,,,,,,,,,,,,,,,,,,,,,,,,,,,,,,,,,,,,,,,,,,,,,,,,,,,,,,,,,,,,,,,,,,,,,,,,,,left,1,0.6471,0,1,1,0,1,practice,9,8,9 | 8,1,0.065,0.05,congruent,left,,,,,,,,,,,,,,,,,,,,,,,,,,,,,,,,,,,,,,,,,,,,,,,,,,
,8242,CBA,20/06/2002,001,2023-04-20_13h49.20.135,OS3_Mult_verification,2022.2.4,MacIntel,60.0024001,,,,,,,,,,,,,,,,,,,,,,,,,,,,,,,,,,,,,,,,,,,,,,,,,,,,,,,,,,,,,,,,,,,,,,,,,,,,,,,,,,,,,,,,,,,,,,,,,,,,,,,,,,,,right,1,0.4692,0,2,2,2,1,practice,9,9,9 | 9,0,0.05,0.065,neutral,right,,,,,,,,,,,,,,,,,,,,,,,,,,,,,,,,,,,,,,,,,,,,,,,,,,
,8242,CBA,20/06/2002,001,2023-04-20_13h49.20.135,OS3_Mult_verification,2022.2.4,MacIntel,60.0024001,,,,,,,,,,,,,,,,,,,,,,,,,,,,,,,,,,,,,,,,,,,,,,,,,,,,,,,,,,,,,,,,,,,,,,,,,,,,,,,,,,,,,,,,,,,,,,,,,,,,,,,,,,,,right,1,0.548,,,,,,physical,3,3,3 | 3,0,0.05,0.065,neutral,right,0,0,0,60,1,,,,,,,,,,,,,,,,,,,,,,,,,,,,,,,,,,,,,,,,,,,,,
,8242,CBA,20/06/2002,001,2023-04-20_13h49.20.135,OS3_Mult_verification,2022.2.4,MacIntel,60.0024001,,,,,,,,,,,,,,,,,,,,,,,,,,,,,,,,,,,,,,,,,,,,,,,,,,,,,,,,,,,,,,,,,,,,,,,,,,,,,,,,,,,,,,,,,,,,,,,,,,,,,,,,,,,,right,1,0.4515,,,,,,physical,1,1,1 | 1,0,0.05,0.065,neutral,right,0,1,1,56,1,,,,,,,,,,,,,,,,,,,,,,,,,,,,,,,,,,,,,,,,,,,,,
,8242,CBA,20/06/2002,001,2023-04-20_13h49.20.135,OS3_Mult_verification,2022.2.4,MacIntel,60.0024001,,,,,,,,,,,,,,,,,,,,,,,,,,,,,,,,,,,,,,,,,,,,,,,,,,,,,,,,,,,,,,,,,,,,,,,,,,,,,,,,,,,,,,,,,,,,,,,,,,,,,,,,,,,,left,0,0.3996,,,,,,physical,6,1,6 | 1,5,0.05,0.065,incongruent,right,0,2,2,44,1,,,,,,,,,,,,,,,,,,,,,,,,,,,,,,,,,,,,,,,,,,,,,
,8242,CBA,20/06/2002,001,2023-04-20_13h49.20.135,OS3_Mult_verification,2022.2.4,MacIntel,60.0024001,,,,,,,,,,,,,,,,,,,,,,,,,,,,,,,,,,,,,,,,,,,,,,,,,,,,,,,,,,,,,,,,,,,,,,,,,,,,,,,,,,,,,,,,,,,,,,,,,,,,,,,,,,,,right,1,0.5131,,,,,,physical,6,6,6 | 6,0,0.05,0.065,neutral,right,0,3,3,58,1,,,,,,,,,,,,,,,,,,,,,,,,,,,,,,,,,,,,,,,,,,,,,
,8242,CBA,20/06/2002,001,2023-04-20_13h49.20.135,OS3_Mult_verification,2022.2.4,MacIntel,60.0024001,,,,,,,,,,,,,,,,,,,,,,,,,,,,,,,,,,,,,,,,,,,,,,,,,,,,,,,,,,,,,,,,,,,,,,,,,,,,,,,,,,,,,,,,,,,,,,,,,,,,,,,,,,,,right,1,0.4984,,,,,,physical,7,7,7 | 7,0,0.05,0.065,neutral,right,0,4,4,59,1,,,,,,,,,,,,,,,,,,,,,,,,,,,,,,,,,,,,,,,,,,,,,
,8242,CBA,20/06/2002,001,2023-04-20_13h49.20.135,OS3_Mult_verification,2022.2.4,MacIntel,60.0024001,,,,,,,,,,,,,,,,,,,,,,,,,,,,,,,,,,,,,,,,,,,,,,,,,,,,,,,,,,,,,,,,,,,,,,,,,,,,,,,,,,,,,,,,,,,,,,,,,,,,,,,,,,,,left,1,0.4483,,,,,,physical,2,4,2 | 4,2,0.065,0.05,incongruent,left,0,5,5,33,1,,,,,,,,,,,,,,,,,,,,,,,,,,,,,,,,,,,,,,,,,,,,,
,8242,CBA,20/06/2002,001,2023-04-20_13h49.20.135,OS3_Mult_verification,2022.2.4,MacIntel,60.0024001,,,,,,,,,,,,,,,,,,,,,,,,,,,,,,,,,,,,,,,,,,,,,,,,,,,,,,,,,,,,,,,,,,,,,,,,,,,,,,,,,,,,,,,,,,,,,,,,,,,,,,,,,,,,left,1,0.5631,,,,,,physical,3,3,3 | 3,0,0.065,0.05,neutral,left,0,6,6,49,1,,,,,,,,,,,,,,,,,,,,,,,,,,,,,,,,,,,,,,,,,,,,,
,8242,CBA,20/06/2002,001,2023-04-20_13h49.20.135,OS3_Mult_verification,2022.2.4,MacIntel,60.0024001,,,,,,,,,,,,,,,,,,,,,,,,,,,,,,,,,,,,,,,,,,,,,,,,,,,,,,,,,,,,,,,,,,,,,,,,,,,,,,,,,,,,,,,,,,,,,,,,,,,,,,,,,,,,right,1,0.4021,,,,,,physical,9,4,9 | 4,5,0.05,0.065,incongruent,right,0,7,7,47,1,,,,,,,,,,,,,,,,,,,,,,,,,,,,,,,,,,,,,,,,,,,,,
,8242,CBA,20/06/2002,001,2023-04-20_13h49.20.135,OS3_Mult_verification,2022.2.4,MacIntel,60.0024001,,,,,,,,,,,,,,,,,,,,,,,,,,,,,,,,,,,,,,,,,,,,,,,,,,,,,,,,,,,,,,,,,,,,,,,,,,,,,,,,,,,,,,,,,,,,,,,,,,,,,,,,,,,,left,1,0.5661,,,,,,physical,4,9,4 | 9,5,0.065,0.05,incongruent,left,0,8,8,43,1,,,,,,,,,,,,,,,,,,,,,,,,,,,,,,,,,,,,,,,,,,,,,
,8242,CBA,20/06/2002,001,2023-04-20_13h49.20.135,OS3_Mult_verification,2022.2.4,MacIntel,60.0024001,,,,,,,,,,,,,,,,,,,,,,,,,,,,,,,,,,,,,,,,,,,,,,,,,,,,,,,,,,,,,,,,,,,,,,,,,,,,,,,,,,,,,,,,,,,,,,,,,,,,,,,,,,,,left,1,0.549,,,,,,physical,1,2,1 | 2,1,0.065,0.05,incongruent,left,0,9,9,24,1,,,,,,,,,,,,,,,,,,,,,,,,,,,,,,,,,,,,,,,,,,,,,
,8242,CBA,20/06/2002,001,2023-04-20_13h49.20.135,OS3_Mult_verification,2022.2.4,MacIntel,60.0024001,,,,,,,,,,,,,,,,,,,,,,,,,,,,,,,,,,,,,,,,,,,,,,,,,,,,,,,,,,,,,,,,,,,,,,,,,,,,,,,,,,,,,,,,,,,,,,,,,,,,,,,,,,,,left,1,0.5497,,,,,,physical,3,3,3 | 3,0,0.065,0.05,neutral,left,0,10,10,66,1,,,,,,,,,,,,,,,,,,,,,,,,,,,,,,,,,,,,,,,,,,,,,
,8242,CBA,20/06/2002,001,2023-04-20_13h49.20.135,OS3_Mult_verification,2022.2.4,MacIntel,60.0024001,,,,,,,,,,,,,,,,,,,,,,,,,,,,,,,,,,,,,,,,,,,,,,,,,,,,,,,,,,,,,,,,,,,,,,,,,,,,,,,,,,,,,,,,,,,,,,,,,,,,,,,,,,,,right,1,0.4774,,,,,,physical,2,1,2 | 1,1,0.05,0.065,incongruent,right,0,11,11,28,1,,,,,,,,,,,,,,,,,,,,,,,,,,,,,,,,,,,,,,,,,,,,,
,8242,CBA,20/06/2002,001,2023-04-20_13h49.20.135,OS3_Mult_verification,2022.2.4,MacIntel,60.0024001,,,,,,,,,,,,,,,,,,,,,,,,,,,,,,,,,,,,,,,,,,,,,,,,,,,,,,,,,,,,,,,,,,,,,,,,,,,,,,,,,,,,,,,,,,,,,,,,,,,,,,,,,,,,left,1,0.4635,,,,,,physical,6,8,6 | 8,2,0.065,0.05,incongruent,left,0,12,12,34,1,,,,,,,,,,,,,,,,,,,,,,,,,,,,,,,,,,,,,,,,,,,,,
,8242,CBA,20/06/2002,001,2023-04-20_13h49.20.135,OS3_Mult_verification,2022.2.4,MacIntel,60.0024001,,,,,,,,,,,,,,,,,,,,,,,,,,,,,,,,,,,,,,,,,,,,,,,,,,,,,,,,,,,,,,,,,,,,,,,,,,,,,,,,,,,,,,,,,,,,,,,,,,,,,,,,,,,,right,1,0.3814,,,,,,physical,6,7,6 | 7,1,0.05,0.065,congruent,right,0,13,13,2,1,,,,,,,,,,,,,,,,,,,,,,,,,,,,,,,,,,,,,,,,,,,,,
,8242,CBA,20/06/2002,001,2023-04-20_13h49.20.135,OS3_Mult_verification,2022.2.4,MacIntel,60.0024001,,,,,,,,,,,,,,,,,,,,,,,,,,,,,,,,,,,,,,,,,,,,,,,,,,,,,,,,,,,,,,,,,,,,,,,,,,,,,,,,,,,,,,,,,,,,,,,,,,,,,,,,,,,,left,1,0.5643,,,,,,physical,1,1,1 | 1,0,0.065,0.05,neutral,left,0,14,14,48,1,,,,,,,,,,,,,,,,,,,,,,,,,,,,,,,,,,,,,,,,,,,,,
,8242,CBA,20/06/2002,001,2023-04-20_13h49.20.135,OS3_Mult_verification,2022.2.4,MacIntel,60.0024001,,,,,,,,,,,,,,,,,,,,,,,,,,,,,,,,,,,,,,,,,,,,,,,,,,,,,,,,,,,,,,,,,,,,,,,,,,,,,,,,,,,,,,,,,,,,,,,,,,,,,,,,,,,,right,1,0.4855,,,,,,physical,6,8,6 | 8,2,0.05,0.065,congruent,right,0,15,15,10,1,,,,,,,,,,,,,,,,,,,,,,,,,,,,,,,,,,,,,,,,,,,,,
,8242,CBA,20/06/2002,001,2023-04-20_13h49.20.135,OS3_Mult_verification,2022.2.4,MacIntel,60.0024001,,,,,,,,,,,,,,,,,,,,,,,,,,,,,,,,,,,,,,,,,,,,,,,,,,,,,,,,,,,,,,,,,,,,,,,,,,,,,,,,,,,,,,,,,,,,,,,,,,,,,,,,,,,,left,1,0.497,,,,,,physical,8,8,8 | 8,0,0.065,0.05,neutral,left,0,16,16,70,1,,,,,,,,,,,,,,,,,,,,,,,,,,,,,,,,,,,,,,,,,,,,,
,8242,CBA,20/06/2002,001,2023-04-20_13h49.20.135,OS3_Mult_verification,2022.2.4,MacIntel,60.0024001,,,,,,,,,,,,,,,,,,,,,,,,,,,,,,,,,,,,,,,,,,,,,,,,,,,,,,,,,,,,,,,,,,,,,,,,,,,,,,,,,,,,,,,,,,,,,,,,,,,,,,,,,,,,left,1,0.48,,,,,,physical,6,1,6 | 1,5,0.065,0.05,congruent,left,0,17,17,20,1,,,,,,,,,,,,,,,,,,,,,,,,,,,,,,,,,,,,,,,,,,,,,
,8242,CBA,20/06/2002,001,2023-04-20_13h49.20.135,OS3_Mult_verification,2022.2.4,MacIntel,60.0024001,,,,,,,,,,,,,,,,,,,,,,,,,,,,,,,,,,,,,,,,,,,,,,,,,,,,,,,,,,,,,,,,,,,,,,,,,,,,,,,,,,,,,,,,,,,,,,,,,,,,,,,,,,,,right,1,0.4149,,,,,,physical,9,8,9 | 8,1,0.05,0.065,incongruent,right,0,18,18,31,1,,,,,,,,,,,,,,,,,,,,,,,,,,,,,,,,,,,,,,,,,,,,,
,8242,CBA,20/06/2002,001,2023-04-20_13h49.20.135,OS3_Mult_verification,2022.2.4,MacIntel,60.0024001,,,,,,,,,,,,,,,,,,,,,,,,,,,,,,,,,,,,,,,,,,,,,,,,,,,,,,,,,,,,,,,,,,,,,,,,,,,,,,,,,,,,,,,,,,,,,,,,,,,,,,,,,,,,right,0,0.7305,,,,,,physical,8,6,8 | 6,2,0.065,0.05,congruent,left,0,19,19,14,1,,,,,,,,,,,,,,,,,,,,,,,,,,,,,,,,,,,,,,,,,,,,,
,8242,CBA,20/06/2002,001,2023-04-20_13h49.20.135,OS3_Mult_verification,2022.2.4,MacIntel,60.0024001,,,,,,,,,,,,,,,,,,,,,,,,,,,,,,,,,,,,,,,,,,,,,,,,,,,,,,,,,,,,,,,,,,,,,,,,,,,,,,,,,,,,,,,,,,,,,,,,,,,,,,,,,,,,right,0,0.6639,,,,,,physical,6,7,6 | 7,1,0.065,0.05,incongruent,left,0,20,20,26,1,,,,,,,,,,,,,,,,,,,,,,,,,,,,,,,,,,,,,,,,,,,,,
,8242,CBA,20/06/2002,001,2023-04-20_13h49.20.135,OS3_Mult_verification,2022.2.4,MacIntel,60.0024001,,,,,,,,,,,,,,,,,,,,,,,,,,,,,,,,,,,,,,,,,,,,,,,,,,,,,,,,,,,,,,,,,,,,,,,,,,,,,,,,,,,,,,,,,,,,,,,,,,,,,,,,,,,,right,1,0.5015,,,,,,physical,3,8,3 | 8,5,0.05,0.065,congruent,right,0,21,21,18,1,,,,,,,,,,,,,,,,,,,,,,,,,,,,,,,,,,,,,,,,,,,,,
,8242,CBA,20/06/2002,001,2023-04-20_13h49.20.135,OS3_Mult_verification,2022.2.4,MacIntel,60.0024001,,,,,,,,,,,,,,,,,,,,,,,,,,,,,,,,,,,,,,,,,,,,,,,,,,,,,,,,,,,,,,,,,,,,,,,,,,,,,,,,,,,,,,,,,,,,,,,,,,,,,,,,,,,,left,1,0.4819,,,,,,physical,7,7,7 | 7,0,0.065,0.05,neutral,left,0,22,22,54,1,,,,,,,,,,,,,,,,,,,,,,,,,,,,,,,,,,,,,,,,,,,,,
,8242,CBA,20/06/2002,001,2023-04-20_13h49.20.135,OS3_Mult_verification,2022.2.4,MacIntel,60.0024001,,,,,,,,,,,,,,,,,,,,,,,,,,,,,,,,,,,,,,,,,,,,,,,,,,,,,,,,,,,,,,,,,,,,,,,,,,,,,,,,,,,,,,,,,,,,,,,,,,,,,,,,,,,,right,1,0.3995,,,,,,physical,4,9,4 | 9,5,0.05,0.065,congruent,right,0,23,23,19,1,,,,,,,,,,,,,,,,,,,,,,,,,,,,,,,,,,,,,,,,,,,,,
,8242,CBA,20/06/2002,001,2023-04-20_13h49.20.135,OS3_Mult_verification,2022.2.4,MacIntel,60.0024001,,,,,,,,,,,,,,,,,,,,,,,,,,,,,,,,,,,,,,,,,,,,,,,,,,,,,,,,,,,,,,,,,,,,,,,,,,,,,,,,,,,,,,,,,,,,,,,,,,,,,,,,,,,,right,1,0.4823,,,,,,physical,2,2,2 | 2,0,0.05,0.065,neutral,right,0,24,24,57,1,,,,,,,,,,,,,,,,,,,,,,,,,,,,,,,,,,,,,,,,,,,,,
,8242,CBA,20/06/2002,001,2023-04-20_13h49.20.135,OS3_Mult_verification,2022.2.4,MacIntel,60.0024001,,,,,,,,,,,,,,,,,,,,,,,,,,,,,,,,,,,,,,,,,,,,,,,,,,,,,,,,,,,,,,,,,,,,,,,,,,,,,,,,,,,,,,,,,,,,,,,,,,,,,,,,,,,,left,1,0.516,,,,,,physical,6,6,6 | 6,0,0.065,0.05,neutral,left,0,25,25,68,1,,,,,,,,,,,,,,,,,,,,,,,,,,,,,,,,,,,,,,,,,,,,,
,8242,CBA,20/06/2002,001,2023-04-20_13h49.20.135,OS3_Mult_verification,2022.2.4,MacIntel,60.0024001,,,,,,,,,,,,,,,,,,,,,,,,,,,,,,,,,,,,,,,,,,,,,,,,,,,,,,,,,,,,,,,,,,,,,,,,,,,,,,,,,,,,,,,,,,,,,,,,,,,,,,,,,,,,left,1,1.3382,,,,,,physical,3,8,3 | 8,5,0.065,0.05,incongruent,left,0,26,26,42,1,,,,,,,,,,,,,,,,,,,,,,,,,,,,,,,,,,,,,,,,,,,,,
,8242,CBA,20/06/2002,001,2023-04-20_13h49.20.135,OS3_Mult_verification,2022.2.4,MacIntel,60.0024001,,,,,,,,,,,,,,,,,,,,,,,,,,,,,,,,,,,,,,,,,,,,,,,,,,,,,,,,,,,,,,,,,,,,,,,,,,,,,,,,,,,,,,,,,,,,,,,,,,,,,,,,,,,,right,1,0.5643,,,,,,physical,4,2,4 | 2,2,0.05,0.065,incongruent,right,0,27,27,37,1,,,,,,,,,,,,,,,,,,,,,,,,,,,,,,,,,,,,,,,,,,,,,
,8242,CBA,20/06/2002,001,2023-04-20_13h49.20.135,OS3_Mult_verification,2022.2.4,MacIntel,60.0024001,,,,,,,,,,,,,,,,,,,,,,,,,,,,,,,,,,,,,,,,,,,,,,,,,,,,,,,,,,,,,,,,,,,,,,,,,,,,,,,,,,,,,,,,,,,,,,,,,,,,,,,,,,,,left,1,0.457,,,,,,physical,7,2,7 | 2,5,0.065,0.05,congruent,left,0,28,28,21,1,,,,,,,,,,,,,,,,,,,,,,,,,,,,,,,,,,,,,,,,,,,,,
,8242,CBA,20/06/2002,001,2023-04-20_13h49.20.135,OS3_Mult_verification,2022.2.4,MacIntel,60.0024001,,,,,,,,,,,,,,,,,,,,,,,,,,,,,,,,,,,,,,,,,,,,,,,,,,,,,,,,,,,,,,,,,,,,,,,,,,,,,,,,,,,,,,,,,,,,,,,,,,,,,,,,,,,,right,1,0.5981,,,,,,physical,7,2,7 | 2,5,0.05,0.065,incongruent,right,0,29,29,45,1,,,,,,,,,,,,,,,,,,,,,,,,,,,,,,,,,,,,,,,,,,,,,
,8242,CBA,20/06/2002,001,2023-04-20_13h49.20.135,OS3_Mult_verification,2022.2.4,MacIntel,60.0024001,,,,,,,,,,,,,,,,,,,,,,,,,,,,,,,,,,,,,,,,,,,,,,,,,,,,,,,,,,,,,,,,,,,,,,,,,,,,,,,,,,,,,,,,,,,,,,,,,,,,,,,,,,,,right,1,0.497,,,,,,physical,3,1,3 | 1,2,0.05,0.065,incongruent,right,0,30,30,36,1,,,,,,,,,,,,,,,,,,,,,,,,,,,,,,,,,,,,,,,,,,,,,
,8242,CBA,20/06/2002,001,2023-04-20_13h49.20.135,OS3_Mult_verification,2022.2.4,MacIntel,60.0024001,,,,,,,,,,,,,,,,,,,,,,,,,,,,,,,,,,,,,,,,,,,,,,,,,,,,,,,,,,,,,,,,,,,,,,,,,,,,,,,,,,,,,,,,,,,,,,,,,,,,,,,,,,,,right,1,0.4972,,,,,,physical,9,9,9 | 9,0,0.05,0.065,neutral,right,0,31,31,63,1,,,,,,,,,,,,,,,,,,,,,,,,,,,,,,,,,,,,,,,,,,,,,
,8242,CBA,20/06/2002,001,2023-04-20_13h49.20.135,OS3_Mult_verification,2022.2.4,MacIntel,60.0024001,,,,,,,,,,,,,,,,,,,,,,,,,,,,,,,,,,,,,,,,,,,,,,,,,,,,,,,,,,,,,,,,,,,,,,,,,,,,,,,,,,,,,,,,,,,,,,,,,,,,,,,,,,,,left,1,0.4821,,,,,,physical,2,1,2 | 1,1,0.065,0.05,congruent,left,0,32,32,4,1,,,,,,,,,,,,,,,,,,,,,,,,,,,,,,,,,,,,,,,,,,,,,
,8242,CBA,20/06/2002,001,2023-04-20_13h49.20.135,OS3_Mult_verification,2022.2.4,MacIntel,60.0024001,,,,,,,,,,,,,,,,,,,,,,,,,,,,,,,,,,,,,,,,,,,,,,,,,,,,,,,,,,,,,,,,,,,,,,,,,,,,,,,,,,,,,,,,,,,,,,,,,,,,,,,,,,,,right,1,0.5148,,,,,,physical,4,3,4 | 3,1,0.05,0.065,incongruent,right,0,33,33,29,1,,,,,,,,,,,,,,,,,,,,,,,,,,,,,,,,,,,,,,,,,,,,,
,8242,CBA,20/06/2002,001,2023-04-20_13h49.20.135,OS3_Mult_verification,2022.2.4,MacIntel,60.0024001,,,,,,,,,,,,,,,,,,,,,,,,,,,,,,,,,,,,,,,,,,,,,,,,,,,,,,,,,,,,,,,,,,,,,,,,,,,,,,,,,,,,,,,,,,,,,,,,,,,,,,,,,,,,right,1,0.3974,,,,,,physical,2,7,2 | 7,5,0.05,0.065,congruent,right,0,34,34,17,1,,,,,,,,,,,,,,,,,,,,,,,,,,,,,,,,,,,,,,,,,,,,,
,8242,CBA,20/06/2002,001,2023-04-20_13h49.20.135,OS3_Mult_verification,2022.2.4,MacIntel,60.0024001,,,,,,,,,,,,,,,,,,,,,,,,,,,,,,,,,,,,,,,,,,,,,,,,,,,,,,,,,,,,,,,,,,,,,,,,,,,,,,,,,,,,,,,,,,,,,,,,,,,,,,,,,,,,left,1,0.4351,,,,,,physical,1,1,1 | 1,0,0.065,0.05,neutral,left,0,35,35,64,1,,,,,,,,,,,,,,,,,,,,,,,,,,,,,,,,,,,,,,,,,,,,,
,8242,CBA,20/06/2002,001,2023-04-20_13h49.20.135,OS3_Mult_verification,2022.2.4,MacIntel,60.0024001,,,,,,,,,,,,,,,,,,,,,,,,,,,,,,,,,,,,,,,,,,,,,,,,,,,,,,,,,,,,,,,,,,,,,,,,,,,,,,,,,,,,,,,,,,,,,,,,,,,,,,,,,,,,right,0,0.3974,,,,,,physical,7,6,7 | 6,1,0.065,0.05,congruent,left,0,36,36,6,1,,,,,,,,,,,,,,,,,,,,,,,,,,,,,,,,,,,,,,,,,,,,,
,8242,CBA,20/06/2002,001,2023-04-20_13h49.20.135,OS3_Mult_verification,2022.2.4,MacIntel,60.0024001,,,,,,,,,,,,,,,,,,,,,,,,,,,,,,,,,,,,,,,,,,,,,,,,,,,,,,,,,,,,,,,,,,,,,,,,,,,,,,,,,,,,,,,,,,,,,,,,,,,,,,,,,,,,right,1,0.6009,,,,,,physical,4,4,4 | 4,0,0.05,0.065,neutral,right,0,37,37,67,1,,,,,,,,,,,,,,,,,,,,,,,,,,,,,,,,,,,,,,,,,,,,,
,8242,CBA,20/06/2002,001,2023-04-20_13h49.20.135,OS3_Mult_verification,2022.2.4,MacIntel,60.0024001,,,,,,,,,,,,,,,,,,,,,,,,,,,,,,,,,,,,,,,,,,,,,,,,,,,,,,,,,,,,,,,,,,,,,,,,,,,,,,,,,,,,,,,,,,,,,,,,,,,,,,,,,,,,left,1,0.4793,,,,,,physical,9,4,9 | 4,5,0.065,0.05,congruent,left,0,38,38,23,1,,,,,,,,,,,,,,,,,,,,,,,,,,,,,,,,,,,,,,,,,,,,,
,8242,CBA,20/06/2002,001,2023-04-20_13h49.20.135,OS3_Mult_verification,2022.2.4,MacIntel,60.0024001,,,,,,,,,,,,,,,,,,,,,,,,,,,,,,,,,,,,,,,,,,,,,,,,,,,,,,,,,,,,,,,,,,,,,,,,,,,,,,,,,,,,,,,,,,,,,,,,,,,,,,,,,,,,right,1,0.5138,,,,,,physical,1,3,1 | 3,2,0.05,0.065,congruent,right,0,39,39,8,1,,,,,,,,,,,,,,,,,,,,,,,,,,,,,,,,,,,,,,,,,,,,,
,8242,CBA,20/06/2002,001,2023-04-20_13h49.20.135,OS3_Mult_verification,2022.2.4,MacIntel,60.0024001,,,,,,,,,,,,,,,,,,,,,,,,,,,,,,,,,,,,,,,,,,,,,,,,,,,,,,,,,,,,,,,,,,,,,,,,,,,,,,,,,,,,,,,,,,,,,,,,,,,,,,,,,,,,left,1,0.4976,,,,,,physical,4,4,4 | 4,0,0.065,0.05,neutral,left,0,40,40,53,1,,,,,,,,,,,,,,,,,,,,,,,,,,,,,,,,,,,,,,,,,,,,,
,8242,CBA,20/06/2002,001,2023-04-20_13h49.20.135,OS3_Mult_verification,2022.2.4,MacIntel,60.0024001,,,,,,,,,,,,,,,,,,,,,,,,,,,,,,,,,,,,,,,,,,,,,,,,,,,,,,,,,,,,,,,,,,,,,,,,,,,,,,,,,,,,,,,,,,,,,,,,,,,,,,,,,,,,left,1,0.5508,,,,,,physical,3,4,3 | 4,1,0.065,0.05,incongruent,left,0,41,41,25,1,,,,,,,,,,,,,,,,,,,,,,,,,,,,,,,,,,,,,,,,,,,,,
,8242,CBA,20/06/2002,001,2023-04-20_13h49.20.135,OS3_Mult_verification,2022.2.4,MacIntel,60.0024001,,,,,,,,,,,,,,,,,,,,,,,,,,,,,,,,,,,,,,,,,,,,,,,,,,,,,,,,,,,,,,,,,,,,,,,,,,,,,,,,,,,,,,,,,,,,,,,,,,,,,,,,,,,,left,1,0.5157,,,,,,physical,6,6,6 | 6,0,0.065,0.05,neutral,left,0,42,42,50,1,,,,,,,,,,,,,,,,,,,,,,,,,,,,,,,,,,,,,,,,,,,,,
,8242,CBA,20/06/2002,001,2023-04-20_13h49.20.135,OS3_Mult_verification,2022.2.4,MacIntel,60.0024001,,,,,,,,,,,,,,,,,,,,,,,,,,,,,,,,,,,,,,,,,,,,,,,,,,,,,,,,,,,,,,,,,,,,,,,,,,,,,,,,,,,,,,,,,,,,,,,,,,,,,,,,,,,,left,0,0.3667,,,,,,physical,8,6,8 | 6,2,0.05,0.065,incongruent,right,0,43,43,38,1,,,,,,,,,,,,,,,,,,,,,,,,,,,,,,,,,,,,,,,,,,,,,
,8242,CBA,20/06/2002,001,2023-04-20_13h49.20.135,OS3_Mult_verification,2022.2.4,MacIntel,60.0024001,,,,,,,,,,,,,,,,,,,,,,,,,,,,,,,,,,,,,,,,,,,,,,,,,,,,,,,,,,,,,,,,,,,,,,,,,,,,,,,,,,,,,,,,,,,,,,,,,,,,,,,,,,,,right,1,0.5313,,,,,,physical,2,4,2 | 4,2,0.05,0.065,congruent,right,0,44,44,9,1,,,,,,,,,,,,,,,,,,,,,,,,,,,,,,,,,,,,,,,,,,,,,
,8242,CBA,20/06/2002,001,2023-04-20_13h49.20.135,OS3_Mult_verification,2022.2.4,MacIntel,60.0024001,,,,,,,,,,,,,,,,,,,,,,,,,,,,,,,,,,,,,,,,,,,,,,,,,,,,,,,,,,,,,,,,,,,,,,,,,,,,,,,,,,,,,,,,,,,,,,,,,,,,,,,,,,,,left,1,0.5321,,,,,,physical,9,9,9 | 9,0,0.065,0.05,neutral,left,0,45,45,55,1,,,,,,,,,,,,,,,,,,,,,,,,,,,,,,,,,,,,,,,,,,,,,
,8242,CBA,20/06/2002,001,2023-04-20_13h49.20.135,OS3_Mult_verification,2022.2.4,MacIntel,60.0024001,,,,,,,,,,,,,,,,,,,,,,,,,,,,,,,,,,,,,,,,,,,,,,,,,,,,,,,,,,,,,,,,,,,,,,,,,,,,,,,,,,,,,,,,,,,,,,,,,,,,,,,,,,,,left,1,0.8326,,,,,,physical,1,6,1 | 6,5,0.065,0.05,incongruent,left,0,46,46,40,1,,,,,,,,,,,,,,,,,,,,,,,,,,,,,,,,,,,,,,,,,,,,,
,8242,CBA,20/06/2002,001,2023-04-20_13h49.20.135,OS3_Mult_verification,2022.2.4,MacIntel,60.0024001,,,,,,,,,,,,,,,,,,,,,,,,,,,,,,,,,,,,,,,,,,,,,,,,,,,,,,,,,,,,,,,,,,,,,,,,,,,,,,,,,,,,,,,,,,,,,,,,,,,,,,,,,,,,left,1,0.5366,,,,,,physical,1,3,1 | 3,2,0.065,0.05,incongruent,left,0,47,47,32,1,,,,,,,,,,,,,,,,,,,,,,,,,,,,,,,,,,,,,,,,,,,,,
,8242,CBA,20/06/2002,001,2023-04-20_13h49.20.135,OS3_Mult_verification,2022.2.4,MacIntel,60.0024001,,,,,,,,,,,,,,,,,,,,,,,,,,,,,,,,,,,,,,,,,,,,,,,,,,,,,,,,,,,,,,,,,,,,,,,,,,,,,,,,,,,,,,,,,,,,,,,,,,,,,,,,,,,,right,1,0.5517,,,,,,physical,7,6,7 | 6,1,0.05,0.065,incongruent,right,0,48,48,30,1,,,,,,,,,,,,,,,,,,,,,,,,,,,,,,,,,,,,,,,,,,,,,
,8242,CBA,20/06/2002,001,2023-04-20_13h49.20.135,OS3_Mult_verification,2022.2.4,MacIntel,60.0024001,,,,,,,,,,,,,,,,,,,,,,,,,,,,,,,,,,,,,,,,,,,,,,,,,,,,,,,,,,,,,,,,,,,,,,,,,,,,,,,,,,,,,,,,,,,,,,,,,,,,,,,,,,,,right,1,0.4511,,,,,,physical,7,7,7 | 7,0,0.05,0.065,neutral,right,0,49,49,69,1,,,,,,,,,,,,,,,,,,,,,,,,,,,,,,,,,,,,,,,,,,,,,
,8242,CBA,20/06/2002,001,2023-04-20_13h49.20.135,OS3_Mult_verification,2022.2.4,MacIntel,60.0024001,,,,,,,,,,,,,,,,,,,,,,,,,,,,,,,,,,,,,,,,,,,,,,,,,,,,,,,,,,,,,,,,,,,,,,,,,,,,,,,,,,,,,,,,,,,,,,,,,,,,,,,,,,,,right,1,0.4307,,,,,,physical,1,6,1 | 6,5,0.05,0.065,congruent,right,0,50,50,16,1,,,,,,,,,,,,,,,,,,,,,,,,,,,,,,,,,,,,,,,,,,,,,
,8242,CBA,20/06/2002,001,2023-04-20_13h49.20.135,OS3_Mult_verification,2022.2.4,MacIntel,60.0024001,,,,,,,,,,,,,,,,,,,,,,,,,,,,,,,,,,,,,,,,,,,,,,,,,,,,,,,,,,,,,,,,,,,,,,,,,,,,,,,,,,,,,,,,,,,,,,,,,,,,,,,,,,,,left,1,0.4505,,,,,,physical,4,3,4 | 3,1,0.065,0.05,congruent,left,0,51,51,5,1,,,,,,,,,,,,,,,,,,,,,,,,,,,,,,,,,,,,,,,,,,,,,
,8242,CBA,20/06/2002,001,2023-04-20_13h49.20.135,OS3_Mult_verification,2022.2.4,MacIntel,60.0024001,,,,,,,,,,,,,,,,,,,,,,,,,,,,,,,,,,,,,,,,,,,,,,,,,,,,,,,,,,,,,,,,,,,,,,,,,,,,,,,,,,,,,,,,,,,,,,,,,,,,,,,,,,,,right,1,0.4887,,,,,,physical,8,3,8 | 3,5,0.05,0.065,incongruent,right,0,52,52,46,1,,,,,,,,,,,,,,,,,,,,,,,,,,,,,,,,,,,,,,,,,,,,,
,8242,CBA,20/06/2002,001,2023-04-20_13h49.20.135,OS3_Mult_verification,2022.2.4,MacIntel,60.0024001,,,,,,,,,,,,,,,,,,,,,,,,,,,,,,,,,,,,,,,,,,,,,,,,,,,,,,,,,,,,,,,,,,,,,,,,,,,,,,,,,,,,,,,,,,,,,,,,,,,,,,,,,,,,right,1,0.4505,,,,,,physical,1,2,1 | 2,1,0.05,0.065,congruent,right,0,53,53,0,1,,,,,,,,,,,,,,,,,,,,,,,,,,,,,,,,,,,,,,,,,,,,,
,8242,CBA,20/06/2002,001,2023-04-20_13h49.20.135,OS3_Mult_verification,2022.2.4,MacIntel,60.0024001,,,,,,,,,,,,,,,,,,,,,,,,,,,,,,,,,,,,,,,,,,,,,,,,,,,,,,,,,,,,,,,,,,,,,,,,,,,,,,,,,,,,,,,,,,,,,,,,,,,,,,,,,,,,left,1,0.4636,,,,,,physical,9,8,9 | 8,1,0.065,0.05,congruent,left,0,54,54,7,1,,,,,,,,,,,,,,,,,,,,,,,,,,,,,,,,,,,,,,,,,,,,,
