windowSize,participant,group,DOB (DD/MM/YEAR),session,date,expName,psychopyVersion,OS,frameRate,typing_instr_resp.keys,typing_instr_resp.rt,typing_response,typing_rt,typing_score,typingSpeed_input_resp.keys,typingSpeed_input_resp.rt,typing_speed_trials.thisRepN,typing_speed_trials.thisTrialN,typing_speed_trials.thisN,typing_speed_trials.thisIndex,typing_speed_trials.ran,typing_speed_stim,typing_report_resp.keys,typing_report_resp.rt,vpt_trial_resp1.keys,vpt_trial_resp1.rt,typedResponse,fluency_rt,fluency_score,fluencyInputResp.keys,fluencyInputResp.rt,fluencyPracLoop.thisRepN,fluencyPracLoop.thisTrialN,fluencyPracLoop.thisN,fluencyPracLoop.thisIndex,fluencyPracLoop.ran,problem,answers,fluencyLoop.thisRepN,fluencyLoop.thisTrialN,fluencyLoop.thisN,fluencyLoop.thisIndex,fluencyLoop.ran,sampleAudio_resp.keys,sampleAudio_resp.rt,subjResponse,audio_rt,DS_score,inputResp.keys,inputResp.rt,audioPracticeLoop.thisRepN,audioPracticeLoop.thisTrialN,audioPracticeLoop.thisN,audioPracticeLoop.thisIndex,audioPracticeLoop.ran,digitSpan,digits_audioStim,soundsFile,typeDS,audioTrials_Loop.thisRepN,audioTrials_Loop.thisTrialN,audioTrials_Loop.thisN,audioTrials_Loop.thisIndex,audioTrials_Loop.ran,audioBlocks_loop.thisRepN,audioBlocks_loop.thisTrialN,audioBlocks_loop.thisN,audioBlocks_loop.thisIndex,audioBlocks_loop.ran,ConditionFile,digitSpanTask_loop.thisRepN,digitSpanTask_loop.thisTrialN,digitSpanTask_loop.thisN,digitSpanTask_loop.thisIndex,digitSpanTask_loop.ran,dsFile,TASK_C.thisRepN,TASK_C.thisTrialN,TASK_C.thisN,TASK_C.thisIndex,TASK_C.ran,controlTaskOrder.thisRepN,controlTaskOrder.thisTrialN,controlTaskOrder.thisN,controlTaskOrder.thisIndex,controlTaskOrder.ran,nRepsTask1,nRepsTask2,nRepsTask3,stroopResp.keys,stroopResp.corr,stroopResp.rt,stroopPracLoop.thisRepN,stroopPracLoop.thisTrialN,stroopPracLoop.thisN,stroopPracLoop.thisIndex,stroopPracLoop.ran,stroopCond,leftNo,rightNo,displayProblem,numDistance,leftNo_size,rightNo_size,Dims,keyAnswer,stroopLoop.thisRepN,stroopLoop.thisTrialN,stroopLoop.thisN,stroopLoop.thisIndex,stroopLoop.ran,stroopBlocks.thisRepN,stroopBlocks.thisTrialN,stroopBlocks.thisN,stroopBlocks.thisIndex,stroopBlocks.ran,stroop_condition,stroop_pracFile,ActionInst,instrImage,TASK_A.thisRepN,TASK_A.thisTrialN,TASK_A.thisN,TASK_A.thisIndex,TASK_A.ran,vptCorrect,vpt_rt,respMouse.x,respMouse.y,respMouse.leftButton,respMouse.midButton,respMouse.rightButton,vptPracticeLoop.thisRepN,vptPracticeLoop.thisTrialN,vptPracticeLoop.thisN,vptPracticeLoop.thisIndex,vptPracticeLoop.ran,trialType,tiles,rows,cols,vptTrialLoop.thisRepN,vptTrialLoop.thisTrialN,vptTrialLoop.thisN,vptTrialLoop.thisIndex,vptTrialLoop.ran,noOfBlocks,TASK_B.thisRepN,TASK_B.thisTrialN,TASK_B.thisN,TASK_B.thisIndex,TASK_B.ran,veriStim_resp.keys,veriStim_resp.corr,veriStim_resp.rt,verificationPracLoop.thisRepN,verificationPracLoop.thisTrialN,verificationPracLoop.thisN,verificationPracLoop.thisIndex,verificationPracLoop.ran,mult_problem,mult_answer,mult_type,error_distance,interferenceScore,problemType,interferenceLevel,problemSize,img_leftButton,img_rightButton,veriLoop.thisRepN,veriLoop.thisTrialN,veriLoop.thisN,veriLoop.thisIndex,veriLoop.ran,veriBlock.thisRepN,veriBlock.thisTrialN,veriBlock.thisN,veriBlock.thisIndex,veriBlock.ran,verificationFiles,end_resp.keys,end_resp.rt
"[1536,754]",119238710566,CAB,3/12/2000,1,2023-03-15_20h26.02.349,OS3_Mult_verification,2022.2.4,Win32,60.04563468,,,,,,,,,,,,,,,,,,,,,,,,,,,,,,,,,,,,,,,,,,,,,,,,,,,,,,,,,,,,,,,,,,,,,,,,,,,,,,,,,,,,,,,,,,,,,,,,,,,,,,,,,,,,,,,,,,,,,,,,,,,,,,,,,,,,,,,,,,,,,,,,,,,,,,,,,,,,,,,,,,,,,,,,,,,,,,
,119238710566,CAB,3/12/2000,1,2023-03-15_20h26.02.349,OS3_Mult_verification,2022.2.4,Win32,60.04563468,,,,,,,,,,,,,,,,,,,,,,,,,,,,,,,,,,,,,,,,,,,,,,,,,,,,,,,,,,,,,,,,,,,,,,,,,,,,,,,,,,,,,,,,,,,,,,,,,,,,,,,,,,,,,,,,,,,,,,,,,,,,,,,,,,,,,,,,,,,,,,,,,,,,,,,,,,,,,,,,,,,,,,,,,,,,,,
,119238710566,CAB,3/12/2000,1,2023-03-15_20h26.02.349,OS3_Mult_verification,2022.2.4,Win32,60.04563468,space,14.8534,,,,,,,,,,,,,,,,,,,,,,,,,,,,,,,,,,,,,,,,,,,,,,,,,,,,,,,,,,,,,,,,,,,,,,,,,,,,,,,,,,,,,,,,,,,,,,,,,,,,,,,,,,,,,,,,,,,,,,,,,,,,,,,,,,,,,,,,,,,,,,,,,,,,,,,,,,,,,,,,,,,,,,,,,,,,
,119238710566,CAB,3/12/2000,1,2023-03-15_20h26.02.349,OS3_Mult_verification,2022.2.4,Win32,60.04563468,,,18,2.4321,1,"[""1"",""8"",""return""]","[1.1412000000476752,1.2078999999761493,2.397399999976159]",0,0,0,9,1,18,,,,,,,,,,,,,,,,,,,,,,,,,,,,,,,,,,,,,,,,,,,,,,,,,,,,,,,,,,,,,,,,,,,,,,,,,,,,,,,,,,,,,,,,,,,,,,,,,,,,,,,,,,,,,,,,,,,,,,,,,,,,,,,,,,,,,,,,,,,,,,,,,,,,,,,,,,,,,,,,,
,119238710566,CAB,3/12/2000,1,2023-03-15_20h26.02.349,OS3_Mult_verification,2022.2.4,Win32,60.04563468,,,20,1.1323,1,"[""2"",""0"",""return""]","[0.7935000000000088,0.8833000000715288,1.0900000000000034]",0,1,1,10,1,20,,,,,,,,,,,,,,,,,,,,,,,,,,,,,,,,,,,,,,,,,,,,,,,,,,,,,,,,,,,,,,,,,,,,,,,,,,,,,,,,,,,,,,,,,,,,,,,,,,,,,,,,,,,,,,,,,,,,,,,,,,,,,,,,,,,,,,,,,,,,,,,,,,,,,,,,,,,,,,,,,
,119238710566,CAB,3/12/2000,1,2023-03-15_20h26.02.349,OS3_Mult_verification,2022.2.4,Win32,60.04563468,,,82,1.2994,0,"[""8"",""2"",""return""]","[1.0323999999761497,1.1308000000715168,1.2647000000476822]",0,2,2,30,1,81,,,,,,,,,,,,,,,,,,,,,,,,,,,,,,,,,,,,,,,,,,,,,,,,,,,,,,,,,,,,,,,,,,,,,,,,,,,,,,,,,,,,,,,,,,,,,,,,,,,,,,,,,,,,,,,,,,,,,,,,,,,,,,,,,,,,,,,,,,,,,,,,,,,,,,,,,,,,,,,,,
,119238710566,CAB,3/12/2000,1,2023-03-15_20h26.02.349,OS3_Mult_verification,2022.2.4,Win32,60.04563468,,,8,1.1661,1,"[""8"",""return""]","[0.9145000000000039,1.1318000000715216]",0,3,3,2,1,8,,,,,,,,,,,,,,,,,,,,,,,,,,,,,,,,,,,,,,,,,,,,,,,,,,,,,,,,,,,,,,,,,,,,,,,,,,,,,,,,,,,,,,,,,,,,,,,,,,,,,,,,,,,,,,,,,,,,,,,,,,,,,,,,,,,,,,,,,,,,,,,,,,,,,,,,,,,,,,,,,
,119238710566,CAB,3/12/2000,1,2023-03-15_20h26.02.349,OS3_Mult_verification,2022.2.4,Win32,60.04563468,,,16,1.1654,1,"[""1"",""6"",""return""]","[0.6967000000476844,1.0302000000476852,1.1283999999761534]",0,4,4,8,1,16,,,,,,,,,,,,,,,,,,,,,,,,,,,,,,,,,,,,,,,,,,,,,,,,,,,,,,,,,,,,,,,,,,,,,,,,,,,,,,,,,,,,,,,,,,,,,,,,,,,,,,,,,,,,,,,,,,,,,,,,,,,,,,,,,,,,,,,,,,,,,,,,,,,,,,,,,,,,,,,,,
,119238710566,CAB,3/12/2000,1,2023-03-15_20h26.02.349,OS3_Mult_verification,2022.2.4,Win32,60.04563468,,,21,0.8329,1,"[""2"",""1"",""return""]","[0.6278000000715309,0.7137000000476803,0.7993000000715256]",0,5,5,11,1,21,,,,,,,,,,,,,,,,,,,,,,,,,,,,,,,,,,,,,,,,,,,,,,,,,,,,,,,,,,,,,,,,,,,,,,,,,,,,,,,,,,,,,,,,,,,,,,,,,,,,,,,,,,,,,,,,,,,,,,,,,,,,,,,,,,,,,,,,,,,,,,,,,,,,,,,,,,,,,,,,,
,119238710566,CAB,3/12/2000,1,2023-03-15_20h26.02.349,OS3_Mult_verification,2022.2.4,Win32,60.04563468,,,9,1.0159,1,"[""9"",""return""]","[0.8966999999284724,0.9822999999523176]",0,6,6,3,1,9,,,,,,,,,,,,,,,,,,,,,,,,,,,,,,,,,,,,,,,,,,,,,,,,,,,,,,,,,,,,,,,,,,,,,,,,,,,,,,,,,,,,,,,,,,,,,,,,,,,,,,,,,,,,,,,,,,,,,,,,,,,,,,,,,,,,,,,,,,,,,,,,,,,,,,,,,,,,,,,,,
,119238710566,CAB,3/12/2000,1,2023-03-15_20h26.02.349,OS3_Mult_verification,2022.2.4,Win32,60.04563468,,,72,1.4492,1,"[""7"",""2"",""return""]","[1.15009999990464,1.265299999952319,1.4130999999046452]",0,7,7,29,1,72,,,,,,,,,,,,,,,,,,,,,,,,,,,,,,,,,,,,,,,,,,,,,,,,,,,,,,,,,,,,,,,,,,,,,,,,,,,,,,,,,,,,,,,,,,,,,,,,,,,,,,,,,,,,,,,,,,,,,,,,,,,,,,,,,,,,,,,,,,,,,,,,,,,,,,,,,,,,,,,,,
,119238710566,CAB,3/12/2000,1,2023-03-15_20h26.02.349,OS3_Mult_verification,2022.2.4,Win32,60.04563468,,,6,1.0988,1,"[""6"",""return""]","[0.9947000000476862,1.072800000071524]",0,8,8,1,1,6,,,,,,,,,,,,,,,,,,,,,,,,,,,,,,,,,,,,,,,,,,,,,,,,,,,,,,,,,,,,,,,,,,,,,,,,,,,,,,,,,,,,,,,,,,,,,,,,,,,,,,,,,,,,,,,,,,,,,,,,,,,,,,,,,,,,,,,,,,,,,,,,,,,,,,,,,,,,,,,,,
,119238710566,CAB,3/12/2000,1,2023-03-15_20h26.02.349,OS3_Mult_verification,2022.2.4,Win32,60.04563468,,,24,1.0657,1,"[""2"",""4"",""return""]","[0.828000000000003,0.9276999999284783,1.0331999999284847]",0,9,9,12,1,24,,,,,,,,,,,,,,,,,,,,,,,,,,,,,,,,,,,,,,,,,,,,,,,,,,,,,,,,,,,,,,,,,,,,,,,,,,,,,,,,,,,,,,,,,,,,,,,,,,,,,,,,,,,,,,,,,,,,,,,,,,,,,,,,,,,,,,,,,,,,,,,,,,,,,,,,,,,,,,,,,
,119238710566,CAB,3/12/2000,1,2023-03-15_20h26.02.349,OS3_Mult_verification,2022.2.4,Win32,60.04563468,,,12,0.8496,1,"[""1"",""2"",""return""]","[0.650600000023843,0.713100000023843,0.8152999999523161]",0,10,10,5,1,12,,,,,,,,,,,,,,,,,,,,,,,,,,,,,,,,,,,,,,,,,,,,,,,,,,,,,,,,,,,,,,,,,,,,,,,,,,,,,,,,,,,,,,,,,,,,,,,,,,,,,,,,,,,,,,,,,,,,,,,,,,,,,,,,,,,,,,,,,,,,,,,,,,,,,,,,,,,,,,,,,
,119238710566,CAB,3/12/2000,1,2023-03-15_20h26.02.349,OS3_Mult_verification,2022.2.4,Win32,60.04563468,,,54,1.1162,1,"[""5"",""4"",""return""]","[0.8613999999761575,1.0108999999761608,1.0838000000715198]",0,11,11,25,1,54,,,,,,,,,,,,,,,,,,,,,,,,,,,,,,,,,,,,,,,,,,,,,,,,,,,,,,,,,,,,,,,,,,,,,,,,,,,,,,,,,,,,,,,,,,,,,,,,,,,,,,,,,,,,,,,,,,,,,,,,,,,,,,,,,,,,,,,,,,,,,,,,,,,,,,,,,,,,,,,,,
,119238710566,CAB,3/12/2000,1,2023-03-15_20h26.02.349,OS3_Mult_verification,2022.2.4,Win32,60.04563468,,,28,1.1989,1,"[""2"",""8"",""return""]","[0.6114999999999924,0.9357000000476745,1.1694999999999993]",0,12,12,15,1,28,,,,,,,,,,,,,,,,,,,,,,,,,,,,,,,,,,,,,,,,,,,,,,,,,,,,,,,,,,,,,,,,,,,,,,,,,,,,,,,,,,,,,,,,,,,,,,,,,,,,,,,,,,,,,,,,,,,,,,,,,,,,,,,,,,,,,,,,,,,,,,,,,,,,,,,,,,,,,,,,,
,119238710566,CAB,3/12/2000,1,2023-03-15_20h26.02.349,OS3_Mult_verification,2022.2.4,Win32,60.04563468,,,15,1.066,1,"[""1"",""5"",""return""]","[0.8298000000715291,0.9139000000953672,1.028600000023843]",0,13,13,7,1,15,,,,,,,,,,,,,,,,,,,,,,,,,,,,,,,,,,,,,,,,,,,,,,,,,,,,,,,,,,,,,,,,,,,,,,,,,,,,,,,,,,,,,,,,,,,,,,,,,,,,,,,,,,,,,,,,,,,,,,,,,,,,,,,,,,,,,,,,,,,,,,,,,,,,,,,,,,,,,,,,,
,119238710566,CAB,3/12/2000,1,2023-03-15_20h26.02.349,OS3_Mult_verification,2022.2.4,Win32,60.04563468,,,56,1.1826,1,"[""5"",""6"",""return""]","[0.9977999999523206,1.0520000000000067,1.1473999999761588]",0,14,14,26,1,56,,,,,,,,,,,,,,,,,,,,,,,,,,,,,,,,,,,,,,,,,,,,,,,,,,,,,,,,,,,,,,,,,,,,,,,,,,,,,,,,,,,,,,,,,,,,,,,,,,,,,,,,,,,,,,,,,,,,,,,,,,,,,,,,,,,,,,,,,,,,,,,,,,,,,,,,,,,,,,,,,
,119238710566,CAB,3/12/2000,1,2023-03-15_20h26.02.349,OS3_Mult_verification,2022.2.4,Win32,60.04563468,,,27,1.2497,1,"[""2"",""7"",""return""]","[0.9798999999761548,1.1113999999761575,1.2181000000238384]",0,15,15,14,1,27,,,,,,,,,,,,,,,,,,,,,,,,,,,,,,,,,,,,,,,,,,,,,,,,,,,,,,,,,,,,,,,,,,,,,,,,,,,,,,,,,,,,,,,,,,,,,,,,,,,,,,,,,,,,,,,,,,,,,,,,,,,,,,,,,,,,,,,,,,,,,,,,,,,,,,,,,,,,,,,,,
,119238710566,CAB,3/12/2000,1,2023-03-15_20h26.02.349,OS3_Mult_verification,2022.2.4,Win32,60.04563468,,,32,0.9653,1,"[""3"",""2"",""return""]","[0.8034999999999997,0.8769999999999953,0.9342999999523158]",0,16,16,17,1,32,,,,,,,,,,,,,,,,,,,,,,,,,,,,,,,,,,,,,,,,,,,,,,,,,,,,,,,,,,,,,,,,,,,,,,,,,,,,,,,,,,,,,,,,,,,,,,,,,,,,,,,,,,,,,,,,,,,,,,,,,,,,,,,,,,,,,,,,,,,,,,,,,,,,,,,,,,,,,,,,,
,119238710566,CAB,3/12/2000,1,2023-03-15_20h26.02.349,OS3_Mult_verification,2022.2.4,Win32,60.04563468,,,63,1.4996,1,"[""6"",""3"",""return""]","[1.0289999999999964,1.3987999999523169,1.467600000023836]",0,17,17,27,1,63,,,,,,,,,,,,,,,,,,,,,,,,,,,,,,,,,,,,,,,,,,,,,,,,,,,,,,,,,,,,,,,,,,,,,,,,,,,,,,,,,,,,,,,,,,,,,,,,,,,,,,,,,,,,,,,,,,,,,,,,,,,,,,,,,,,,,,,,,,,,,,,,,,,,,,,,,,,,,,,,,
,119238710566,CAB,3/12/2000,1,2023-03-15_20h26.02.349,OS3_Mult_verification,2022.2.4,Win32,60.04563468,,,48,1.5822,1,"[""4"",""8"",""return""]","[1.2832999999523196,1.34769999992848,1.545099999904636]",0,18,18,23,1,48,,,,,,,,,,,,,,,,,,,,,,,,,,,,,,,,,,,,,,,,,,,,,,,,,,,,,,,,,,,,,,,,,,,,,,,,,,,,,,,,,,,,,,,,,,,,,,,,,,,,,,,,,,,,,,,,,,,,,,,,,,,,,,,,,,,,,,,,,,,,,,,,,,,,,,,,,,,,,,,,,
,119238710566,CAB,3/12/2000,1,2023-03-15_20h26.02.349,OS3_Mult_verification,2022.2.4,Win32,60.04563468,,,35,1.2992,1,"[""3"",""5"",""return""]","[0.9888999999761552,1.097899999976164,1.2603999999761584]",0,19,19,18,1,35,,,,,,,,,,,,,,,,,,,,,,,,,,,,,,,,,,,,,,,,,,,,,,,,,,,,,,,,,,,,,,,,,,,,,,,,,,,,,,,,,,,,,,,,,,,,,,,,,,,,,,,,,,,,,,,,,,,,,,,,,,,,,,,,,,,,,,,,,,,,,,,,,,,,,,,,,,,,,,,,,
,119238710566,CAB,3/12/2000,1,2023-03-15_20h26.02.349,OS3_Mult_verification,2022.2.4,Win32,60.04563468,,,42,1.0489,1,"[""4"",""2"",""return""]","[0.8286999999284745,0.9137999999523174,1.0197999999523262]",0,20,20,21,1,42,,,,,,,,,,,,,,,,,,,,,,,,,,,,,,,,,,,,,,,,,,,,,,,,,,,,,,,,,,,,,,,,,,,,,,,,,,,,,,,,,,,,,,,,,,,,,,,,,,,,,,,,,,,,,,,,,,,,,,,,,,,,,,,,,,,,,,,,,,,,,,,,,,,,,,,,,,,,,,,,,
,119238710566,CAB,3/12/2000,1,2023-03-15_20h26.02.349,OS3_Mult_verification,2022.2.4,Win32,60.04563468,,,64,1.2994,1,"[""6"",""4"",""return""]","[0.9841999999284781,1.0649999999999977,1.2620999999046347]",0,21,21,28,1,64,,,,,,,,,,,,,,,,,,,,,,,,,,,,,,,,,,,,,,,,,,,,,,,,,,,,,,,,,,,,,,,,,,,,,,,,,,,,,,,,,,,,,,,,,,,,,,,,,,,,,,,,,,,,,,,,,,,,,,,,,,,,,,,,,,,,,,,,,,,,,,,,,,,,,,,,,,,,,,,,,
,119238710566,CAB,3/12/2000,1,2023-03-15_20h26.02.349,OS3_Mult_verification,2022.2.4,Win32,60.04563468,,,40,1.2658,1,"[""4"",""0"",""return""]","[0.9198999999761668,1.0646999999284787,1.238399999976167]",0,22,22,20,1,40,,,,,,,,,,,,,,,,,,,,,,,,,,,,,,,,,,,,,,,,,,,,,,,,,,,,,,,,,,,,,,,,,,,,,,,,,,,,,,,,,,,,,,,,,,,,,,,,,,,,,,,,,,,,,,,,,,,,,,,,,,,,,,,,,,,,,,,,,,,,,,,,,,,,,,,,,,,,,,,,,
,119238710566,CAB,3/12/2000,1,2023-03-15_20h26.02.349,OS3_Mult_verification,2022.2.4,Win32,60.04563468,,,10,0.966,1,"[""1"",""0"",""return""]","[0.7037000000476894,0.7644000000953781,0.9301000000238417]",0,23,23,4,1,10,,,,,,,,,,,,,,,,,,,,,,,,,,,,,,,,,,,,,,,,,,,,,,,,,,,,,,,,,,,,,,,,,,,,,,,,,,,,,,,,,,,,,,,,,,,,,,,,,,,,,,,,,,,,,,,,,,,,,,,,,,,,,,,,,,,,,,,,,,,,,,,,,,,,,,,,,,,,,,,,,
,119238710566,CAB,3/12/2000,1,2023-03-15_20h26.02.349,OS3_Mult_verification,2022.2.4,Win32,60.04563468,,,36,1.2323,1,"[""3"",""6"",""return""]","[0.8706000000238419,1.0672999999523114,1.1972000000476868]",0,24,24,19,1,36,,,,,,,,,,,,,,,,,,,,,,,,,,,,,,,,,,,,,,,,,,,,,,,,,,,,,,,,,,,,,,,,,,,,,,,,,,,,,,,,,,,,,,,,,,,,,,,,,,,,,,,,,,,,,,,,,,,,,,,,,,,,,,,,,,,,,,,,,,,,,,,,,,,,,,,,,,,,,,,,,
,119238710566,CAB,3/12/2000,1,2023-03-15_20h26.02.349,OS3_Mult_verification,2022.2.4,Win32,60.04563468,,,25,1.0153,1,"[""2"",""5"",""return""]","[0.6206000000238419,0.899400000095369,0.9769000000953696]",0,25,25,13,1,25,,,,,,,,,,,,,,,,,,,,,,,,,,,,,,,,,,,,,,,,,,,,,,,,,,,,,,,,,,,,,,,,,,,,,,,,,,,,,,,,,,,,,,,,,,,,,,,,,,,,,,,,,,,,,,,,,,,,,,,,,,,,,,,,,,,,,,,,,,,,,,,,,,,,,,,,,,,,,,,,,
,119238710566,CAB,3/12/2000,1,2023-03-15_20h26.02.349,OS3_Mult_verification,2022.2.4,Win32,60.04563468,,,30,1.1332,1,"[""3"",""0"",""return""]","[0.8619999999999948,0.917800000071523,1.0971000000238291]",0,26,26,16,1,30,,,,,,,,,,,,,,,,,,,,,,,,,,,,,,,,,,,,,,,,,,,,,,,,,,,,,,,,,,,,,,,,,,,,,,,,,,,,,,,,,,,,,,,,,,,,,,,,,,,,,,,,,,,,,,,,,,,,,,,,,,,,,,,,,,,,,,,,,,,,,,,,,,,,,,,,,,,,,,,,,
,119238710566,CAB,3/12/2000,1,2023-03-15_20h26.02.349,OS3_Mult_verification,2022.2.4,Win32,60.04563468,,,14,0.8328,1,"[""1"",""4"",""return""]","[0.628100000023835,0.7208999999761545,0.8001999999284664]",0,27,27,6,1,14,,,,,,,,,,,,,,,,,,,,,,,,,,,,,,,,,,,,,,,,,,,,,,,,,,,,,,,,,,,,,,,,,,,,,,,,,,,,,,,,,,,,,,,,,,,,,,,,,,,,,,,,,,,,,,,,,,,,,,,,,,,,,,,,,,,,,,,,,,,,,,,,,,,,,,,,,,,,,,,,,
,119238710566,CAB,3/12/2000,1,2023-03-15_20h26.02.349,OS3_Mult_verification,2022.2.4,Win32,60.04563468,,,45,1.0325,1,"[""4"",""5"",""return""]","[0.8209000000953779,0.8846000000238519,0.9941000000238489]",0,28,28,22,1,45,,,,,,,,,,,,,,,,,,,,,,,,,,,,,,,,,,,,,,,,,,,,,,,,,,,,,,,,,,,,,,,,,,,,,,,,,,,,,,,,,,,,,,,,,,,,,,,,,,,,,,,,,,,,,,,,,,,,,,,,,,,,,,,,,,,,,,,,,,,,,,,,,,,,,,,,,,,,,,,,,
,119238710566,CAB,3/12/2000,1,2023-03-15_20h26.02.349,OS3_Mult_verification,2022.2.4,Win32,60.04563468,,,4,0.8824,1,"[""4"",""return""]","[0.7782999999523099,0.8469999999999942]",0,29,29,0,1,4,,,,,,,,,,,,,,,,,,,,,,,,,,,,,,,,,,,,,,,,,,,,,,,,,,,,,,,,,,,,,,,,,,,,,,,,,,,,,,,,,,,,,,,,,,,,,,,,,,,,,,,,,,,,,,,,,,,,,,,,,,,,,,,,,,,,,,,,,,,,,,,,,,,,,,,,,,,,,,,,,
,119238710566,CAB,3/12/2000,1,2023-03-15_20h26.02.349,OS3_Mult_verification,2022.2.4,Win32,60.04563468,,,49,1.4651,1,"[""4"",""9"",""return""]","[0.9858000000715208,1.2296000000238365,1.4278999999761481]",0,30,30,24,1,49,,,,,,,,,,,,,,,,,,,,,,,,,,,,,,,,,,,,,,,,,,,,,,,,,,,,,,,,,,,,,,,,,,,,,,,,,,,,,,,,,,,,,,,,,,,,,,,,,,,,,,,,,,,,,,,,,,,,,,,,,,,,,,,,,,,,,,,,,,,,,,,,,,,,,,,,,,,,,,,,,
,119238710566,CAB,3/12/2000,1,2023-03-15_20h26.02.349,OS3_Mult_verification,2022.2.4,Win32,60.04563468,,,25,1.2166,1,"[""2"",""5"",""return""]","[0.9833999999761573,1.0835000000000008,1.178799999952318]",1,0,31,13,1,25,,,,,,,,,,,,,,,,,,,,,,,,,,,,,,,,,,,,,,,,,,,,,,,,,,,,,,,,,,,,,,,,,,,,,,,,,,,,,,,,,,,,,,,,,,,,,,,,,,,,,,,,,,,,,,,,,,,,,,,,,,,,,,,,,,,,,,,,,,,,,,,,,,,,,,,,,,,,,,,,,
,119238710566,CAB,3/12/2000,1,2023-03-15_20h26.02.349,OS3_Mult_verification,2022.2.4,Win32,60.04563468,,,56,1.1325,1,"[""5"",""6"",""return""]","[0.9965999999046318,1.0647999999523137,1.0995999999046404]",1,1,32,26,1,56,,,,,,,,,,,,,,,,,,,,,,,,,,,,,,,,,,,,,,,,,,,,,,,,,,,,,,,,,,,,,,,,,,,,,,,,,,,,,,,,,,,,,,,,,,,,,,,,,,,,,,,,,,,,,,,,,,,,,,,,,,,,,,,,,,,,,,,,,,,,,,,,,,,,,,,,,,,,,,,,,
,119238710566,CAB,3/12/2000,1,2023-03-15_20h26.02.349,OS3_Mult_verification,2022.2.4,Win32,60.04563468,,,32,0.8826,1,"[""3"",""2"",""return""]","[0.69760000002384,0.7643999999761633,0.8452999999523172]",1,2,33,17,1,32,,,,,,,,,,,,,,,,,,,,,,,,,,,,,,,,,,,,,,,,,,,,,,,,,,,,,,,,,,,,,,,,,,,,,,,,,,,,,,,,,,,,,,,,,,,,,,,,,,,,,,,,,,,,,,,,,,,,,,,,,,,,,,,,,,,,,,,,,,,,,,,,,,,,,,,,,,,,,,,,,
,119238710566,CAB,3/12/2000,1,2023-03-15_20h26.02.349,OS3_Mult_verification,2022.2.4,Win32,60.04563468,,,81,1.2322,1,"[""8"",""1"",""return""]","[0.980000000000004,1.0625999999046343,1.1961999999284672]",1,3,34,30,1,81,,,,,,,,,,,,,,,,,,,,,,,,,,,,,,,,,,,,,,,,,,,,,,,,,,,,,,,,,,,,,,,,,,,,,,,,,,,,,,,,,,,,,,,,,,,,,,,,,,,,,,,,,,,,,,,,,,,,,,,,,,,,,,,,,,,,,,,,,,,,,,,,,,,,,,,,,,,,,,,,,
,119238710566,CAB,3/12/2000,1,2023-03-15_20h26.02.349,OS3_Mult_verification,2022.2.4,Win32,60.04563468,,,9,0.8658,1,"[""9"",""return""]","[0.6452999999523144,0.835399999976147]",1,4,35,3,1,9,,,,,,,,,,,,,,,,,,,,,,,,,,,,,,,,,,,,,,,,,,,,,,,,,,,,,,,,,,,,,,,,,,,,,,,,,,,,,,,,,,,,,,,,,,,,,,,,,,,,,,,,,,,,,,,,,,,,,,,,,,,,,,,,,,,,,,,,,,,,,,,,,,,,,,,,,,,,,,,,,
,119238710566,CAB,3/12/2000,1,2023-03-15_20h26.02.349,OS3_Mult_verification,2022.2.4,Win32,60.04563468,,,40,1.1326,1,"[""4"",""0"",""return""]","[0.8200000000000074,0.9112000000476854,1.0934000000953716]",1,5,36,20,1,40,,,,,,,,,,,,,,,,,,,,,,,,,,,,,,,,,,,,,,,,,,,,,,,,,,,,,,,,,,,,,,,,,,,,,,,,,,,,,,,,,,,,,,,,,,,,,,,,,,,,,,,,,,,,,,,,,,,,,,,,,,,,,,,,,,,,,,,,,,,,,,,,,,,,,,,,,,,,,,,,,
,119238710566,CAB,3/12/2000,1,2023-03-15_20h26.02.349,OS3_Mult_verification,2022.2.4,Win32,60.04563468,,,8,1.05,1,"[""8"",""return""]","[0.8122999999523159,1.0147999999523165]",1,6,37,2,1,8,,,,,,,,,,,,,,,,,,,,,,,,,,,,,,,,,,,,,,,,,,,,,,,,,,,,,,,,,,,,,,,,,,,,,,,,,,,,,,,,,,,,,,,,,,,,,,,,,,,,,,,,,,,,,,,,,,,,,,,,,,,,,,,,,,,,,,,,,,,,,,,,,,,,,,,,,,,,,,,,,
,119238710566,CAB,3/12/2000,1,2023-03-15_20h26.02.349,OS3_Mult_verification,2022.2.4,Win32,60.04563468,,,45,1.0989,1,"[""4"",""5"",""return""]","[0.8983000000715293,0.9643000000715318,1.0701000000238423]",1,7,38,22,1,45,,,,,,,,,,,,,,,,,,,,,,,,,,,,,,,,,,,,,,,,,,,,,,,,,,,,,,,,,,,,,,,,,,,,,,,,,,,,,,,,,,,,,,,,,,,,,,,,,,,,,,,,,,,,,,,,,,,,,,,,,,,,,,,,,,,,,,,,,,,,,,,,,,,,,,,,,,,,,,,,,
,119238710566,CAB,3/12/2000,1,2023-03-15_20h26.02.349,OS3_Mult_verification,2022.2.4,Win32,60.04563468,,,10,0.8495,1,"[""1"",""0"",""return""]","[0.5631000000238373,0.6388000000715266,0.8136000000238397]",1,8,39,4,1,10,,,,,,,,,,,,,,,,,,,,,,,,,,,,,,,,,,,,,,,,,,,,,,,,,,,,,,,,,,,,,,,,,,,,,,,,,,,,,,,,,,,,,,,,,,,,,,,,,,,,,,,,,,,,,,,,,,,,,,,,,,,,,,,,,,,,,,,,,,,,,,,,,,,,,,,,,,,,,,,,,
,119238710566,CAB,3/12/2000,1,2023-03-15_20h26.02.349,OS3_Mult_verification,2022.2.4,Win32,60.04563468,,,64,1.233,1,"[""6"",""4"",""return""]","[0.9483999999761465,1.078099999904623,1.195799999952314]",1,9,40,28,1,64,,,,,,,,,,,,,,,,,,,,,,,,,,,,,,,,,,,,,,,,,,,,,,,,,,,,,,,,,,,,,,,,,,,,,,,,,,,,,,,,,,,,,,,,,,,,,,,,,,,,,,,,,,,,,,,,,,,,,,,,,,,,,,,,,,,,,,,,,,,,,,,,,,,,,,,,,,,,,,,,,
,119238710566,CAB,3/12/2000,1,2023-03-15_20h26.02.349,OS3_Mult_verification,2022.2.4,Win32,60.04563468,,,6,0.9157,1,"[""6"",""return""]","[0.8174999999999955,0.883499999999998]",1,10,41,1,1,6,,,,,,,,,,,,,,,,,,,,,,,,,,,,,,,,,,,,,,,,,,,,,,,,,,,,,,,,,,,,,,,,,,,,,,,,,,,,,,,,,,,,,,,,,,,,,,,,,,,,,,,,,,,,,,,,,,,,,,,,,,,,,,,,,,,,,,,,,,,,,,,,,,,,,,,,,,,,,,,,,
,119238710566,CAB,3/12/2000,1,2023-03-15_20h26.02.349,OS3_Mult_verification,2022.2.4,Win32,60.04563468,,,4,0.9167,1,"[""4"",""return""]","[0.8449999999999989,0.8814999999999884]",1,11,42,0,1,4,,,,,,,,,,,,,,,,,,,,,,,,,,,,,,,,,,,,,,,,,,,,,,,,,,,,,,,,,,,,,,,,,,,,,,,,,,,,,,,,,,,,,,,,,,,,,,,,,,,,,,,,,,,,,,,,,,,,,,,,,,,,,,,,,,,,,,,,,,,,,,,,,,,,,,,,,,,,,,,,,
,119238710566,CAB,3/12/2000,1,2023-03-15_20h26.02.349,OS3_Mult_verification,2022.2.4,Win32,60.04563468,,,42,1.0989,1,"[""4"",""2"",""return""]","[0.7946000000238342,0.8977999999523121,1.0641000000238563]",1,12,43,21,1,42,,,,,,,,,,,,,,,,,,,,,,,,,,,,,,,,,,,,,,,,,,,,,,,,,,,,,,,,,,,,,,,,,,,,,,,,,,,,,,,,,,,,,,,,,,,,,,,,,,,,,,,,,,,,,,,,,,,,,,,,,,,,,,,,,,,,,,,,,,,,,,,,,,,,,,,,,,,,,,,,,
,119238710566,CAB,3/12/2000,1,2023-03-15_20h26.02.349,OS3_Mult_verification,2022.2.4,Win32,60.04563468,,,35,1.4992,1,"[""3"",""return"",""5"",""return""]","[0.8613999999761575,0.9835000000000207,0.9853999999761811,1.4621999999284867]",1,13,44,18,1,35,,,,,,,,,,,,,,,,,,,,,,,,,,,,,,,,,,,,,,,,,,,,,,,,,,,,,,,,,,,,,,,,,,,,,,,,,,,,,,,,,,,,,,,,,,,,,,,,,,,,,,,,,,,,,,,,,,,,,,,,,,,,,,,,,,,,,,,,,,,,,,,,,,,,,,,,,,,,,,,,,
,119238710566,CAB,3/12/2000,1,2023-03-15_20h26.02.349,OS3_Mult_verification,2022.2.4,Win32,60.04563468,,,72,1.3326,1,"[""7"",""2"",""return""]","[1.0122000000476987,1.205799999952319,1.3001000000238605]",1,14,45,29,1,72,,,,,,,,,,,,,,,,,,,,,,,,,,,,,,,,,,,,,,,,,,,,,,,,,,,,,,,,,,,,,,,,,,,,,,,,,,,,,,,,,,,,,,,,,,,,,,,,,,,,,,,,,,,,,,,,,,,,,,,,,,,,,,,,,,,,,,,,,,,,,,,,,,,,,,,,,,,,,,,,,
,119238710566,CAB,3/12/2000,1,2023-03-15_20h26.02.349,OS3_Mult_verification,2022.2.4,Win32,60.04563468,,,24,1.0327,1,"[""2"",""4"",""return""]","[0.7967000000477071,0.8961000000238641,1.002700000047696]",1,15,46,12,1,24,,,,,,,,,,,,,,,,,,,,,,,,,,,,,,,,,,,,,,,,,,,,,,,,,,,,,,,,,,,,,,,,,,,,,,,,,,,,,,,,,,,,,,,,,,,,,,,,,,,,,,,,,,,,,,,,,,,,,,,,,,,,,,,,,,,,,,,,,,,,,,,,,,,,,,,,,,,,,,,,,
,119238710566,CAB,3/12/2000,1,2023-03-15_20h26.02.349,OS3_Mult_verification,2022.2.4,Win32,60.04563468,,,12,0.8827,1,"[""1"",""2"",""return""]","[0.6400999999046064,0.7152999999522933,0.8448999999761497]",1,16,47,5,1,12,,,,,,,,,,,,,,,,,,,,,,,,,,,,,,,,,,,,,,,,,,,,,,,,,,,,,,,,,,,,,,,,,,,,,,,,,,,,,,,,,,,,,,,,,,,,,,,,,,,,,,,,,,,,,,,,,,,,,,,,,,,,,,,,,,,,,,,,,,,,,,,,,,,,,,,,,,,,,,,,,
,119238710566,CAB,3/12/2000,1,2023-03-15_20h26.02.349,OS3_Mult_verification,2022.2.4,Win32,60.04563468,,,54,0.9826,1,"[""5"",""4"",""return""]","[0.7816999999284633,0.8547999999523199,0.948799999952314]",1,17,48,25,1,54,,,,,,,,,,,,,,,,,,,,,,,,,,,,,,,,,,,,,,,,,,,,,,,,,,,,,,,,,,,,,,,,,,,,,,,,,,,,,,,,,,,,,,,,,,,,,,,,,,,,,,,,,,,,,,,,,,,,,,,,,,,,,,,,,,,,,,,,,,,,,,,,,,,,,,,,,,,,,,,,,
,119238710566,CAB,3/12/2000,1,2023-03-15_20h26.02.349,OS3_Mult_verification,2022.2.4,Win32,60.04563468,,,36,1.1655,1,"[""3"",""6"",""return""]","[0.8608000000715208,0.9801000000238389,1.1383000000715242]",1,18,49,19,1,36,,,,,,,,,,,,,,,,,,,,,,,,,,,,,,,,,,,,,,,,,,,,,,,,,,,,,,,,,,,,,,,,,,,,,,,,,,,,,,,,,,,,,,,,,,,,,,,,,,,,,,,,,,,,,,,,,,,,,,,,,,,,,,,,,,,,,,,,,,,,,,,,,,,,,,,,,,,,,,,,,
,119238710566,CAB,3/12/2000,1,2023-03-15_20h26.02.349,OS3_Mult_verification,2022.2.4,Win32,60.04563468,,,16,1.1159,1,"[""1"",""6"",""return""]","[0.8029999999999973,0.9298999999761577,1.0801000000238332]",1,19,50,8,1,16,,,,,,,,,,,,,,,,,,,,,,,,,,,,,,,,,,,,,,,,,,,,,,,,,,,,,,,,,,,,,,,,,,,,,,,,,,,,,,,,,,,,,,,,,,,,,,,,,,,,,,,,,,,,,,,,,,,,,,,,,,,,,,,,,,,,,,,,,,,,,,,,,,,,,,,,,,,,,,,,,
,119238710566,CAB,3/12/2000,1,2023-03-15_20h26.02.349,OS3_Mult_verification,2022.2.4,Win32,60.04563468,,,28,1.233,1,"[""2"",""8"",""return""]","[0.9491000000238614,1.0473000000715444,1.1953000000715406]",1,20,51,15,1,28,,,,,,,,,,,,,,,,,,,,,,,,,,,,,,,,,,,,,,,,,,,,,,,,,,,,,,,,,,,,,,,,,,,,,,,,,,,,,,,,,,,,,,,,,,,,,,,,,,,,,,,,,,,,,,,,,,,,,,,,,,,,,,,,,,,,,,,,,,,,,,,,,,,,,,,,,,,,,,,,,
,119238710566,CAB,3/12/2000,1,2023-03-15_20h26.02.349,OS3_Mult_verification,2022.2.4,Win32,60.04563468,,,27,1.1997,1,"[""2"",""7"",""return""]","[0.8870999999046489,0.9663999999761756,1.1733999999761693]",1,21,52,14,1,27,,,,,,,,,,,,,,,,,,,,,,,,,,,,,,,,,,,,,,,,,,,,,,,,,,,,,,,,,,,,,,,,,,,,,,,,,,,,,,,,,,,,,,,,,,,,,,,,,,,,,,,,,,,,,,,,,,,,,,,,,,,,,,,,,,,,,,,,,,,,,,,,,,,,,,,,,,,,,,,,,
,119238710566,CAB,3/12/2000,1,2023-03-15_20h26.02.349,OS3_Mult_verification,2022.2.4,Win32,60.04563468,,,18,1.2831,1,"[""1"",""8"",""return""]","[0.9804000000953579,1.0448000000715183,1.2454999999999927]",1,22,53,9,1,18,,,,,,,,,,,,,,,,,,,,,,,,,,,,,,,,,,,,,,,,,,,,,,,,,,,,,,,,,,,,,,,,,,,,,,,,,,,,,,,,,,,,,,,,,,,,,,,,,,,,,,,,,,,,,,,,,,,,,,,,,,,,,,,,,,,,,,,,,,,,,,,,,,,,,,,,,,,,,,,,,
,119238710566,CAB,3/12/2000,1,2023-03-15_20h26.02.349,OS3_Mult_verification,2022.2.4,Win32,60.04563468,,,63,1.6327,1,"[""6"",""3"",""return""]","[1.3158999999761534,1.4462000000476678,1.5962999999522935]",1,23,54,27,1,63,,,,,,,,,,,,,,,,,,,,,,,,,,,,,,,,,,,,,,,,,,,,,,,,,,,,,,,,,,,,,,,,,,,,,,,,,,,,,,,,,,,,,,,,,,,,,,,,,,,,,,,,,,,,,,,,,,,,,,,,,,,,,,,,,,,,,,,,,,,,,,,,,,,,,,,,,,,,,,,,,
,119238710566,CAB,3/12/2000,1,2023-03-15_20h26.02.349,OS3_Mult_verification,2022.2.4,Win32,60.04563468,,,20,1.0161,1,"[""2"",""0"",""return""]","[0.6952000000476914,0.7956000000238248,0.9795000000000016]",1,24,55,10,1,20,,,,,,,,,,,,,,,,,,,,,,,,,,,,,,,,,,,,,,,,,,,,,,,,,,,,,,,,,,,,,,,,,,,,,,,,,,,,,,,,,,,,,,,,,,,,,,,,,,,,,,,,,,,,,,,,,,,,,,,,,,,,,,,,,,,,,,,,,,,,,,,,,,,,,,,,,,,,,,,,,
,119238710566,CAB,3/12/2000,1,2023-03-15_20h26.02.349,OS3_Mult_verification,2022.2.4,Win32,60.04563468,,,30,1.3659,1,"[""3"",""0"",""return""]","[0.799999999999983,1.1706999999284733,1.334100000023824]",1,25,56,16,1,30,,,,,,,,,,,,,,,,,,,,,,,,,,,,,,,,,,,,,,,,,,,,,,,,,,,,,,,,,,,,,,,,,,,,,,,,,,,,,,,,,,,,,,,,,,,,,,,,,,,,,,,,,,,,,,,,,,,,,,,,,,,,,,,,,,,,,,,,,,,,,,,,,,,,,,,,,,,,,,,,,
,119238710566,CAB,3/12/2000,1,2023-03-15_20h26.02.349,OS3_Mult_verification,2022.2.4,Win32,60.04563468,,,48,1.3998,1,"[""4"",""8"",""return""]","[0.9833999999761431,1.133600000023847,1.3646000000238416]",1,26,57,23,1,48,,,,,,,,,,,,,,,,,,,,,,,,,,,,,,,,,,,,,,,,,,,,,,,,,,,,,,,,,,,,,,,,,,,,,,,,,,,,,,,,,,,,,,,,,,,,,,,,,,,,,,,,,,,,,,,,,,,,,,,,,,,,,,,,,,,,,,,,,,,,,,,,,,,,,,,,,,,,,,,,,
,119238710566,CAB,3/12/2000,1,2023-03-15_20h26.02.349,OS3_Mult_verification,2022.2.4,Win32,60.04563468,,,15,0.9334,1,"[""1"",""5"",""return""]","[0.6855999999046389,0.8292999999523261,0.9027999999523217]",1,27,58,7,1,15,,,,,,,,,,,,,,,,,,,,,,,,,,,,,,,,,,,,,,,,,,,,,,,,,,,,,,,,,,,,,,,,,,,,,,,,,,,,,,,,,,,,,,,,,,,,,,,,,,,,,,,,,,,,,,,,,,,,,,,,,,,,,,,,,,,,,,,,,,,,,,,,,,,,,,,,,,,,,,,,,
,119238710566,CAB,3/12/2000,1,2023-03-15_20h26.02.349,OS3_Mult_verification,2022.2.4,Win32,60.04563468,,,21,1.2822,1,"[""2"",""1"",""return""]","[0.8477000000476949,0.8629999999999995,1.2477000000476721]",1,28,59,11,1,21,,,,,,,,,,,,,,,,,,,,,,,,,,,,,,,,,,,,,,,,,,,,,,,,,,,,,,,,,,,,,,,,,,,,,,,,,,,,,,,,,,,,,,,,,,,,,,,,,,,,,,,,,,,,,,,,,,,,,,,,,,,,,,,,,,,,,,,,,,,,,,,,,,,,,,,,,,,,,,,,,
,119238710566,CAB,3/12/2000,1,2023-03-15_20h26.02.349,OS3_Mult_verification,2022.2.4,Win32,60.04563468,,,49,1.699,1,"[""4"",""9"",""return""]","[1.4167999999523033,1.495999999999981,1.6714999999999804]",1,29,60,24,1,49,,,,,,,,,,,,,,,,,,,,,,,,,,,,,,,,,,,,,,,,,,,,,,,,,,,,,,,,,,,,,,,,,,,,,,,,,,,,,,,,,,,,,,,,,,,,,,,,,,,,,,,,,,,,,,,,,,,,,,,,,,,,,,,,,,,,,,,,,,,,,,,,,,,,,,,,,,,,,,,,,
,119238710566,CAB,3/12/2000,1,2023-03-15_20h26.02.349,OS3_Mult_verification,2022.2.4,Win32,60.04563468,,,1,0.9648,0,"[""1"",""return""]","[0.7516999999284906,0.9287999999523322]",1,30,61,6,1,14,,,,,,,,,,,,,,,,,,,,,,,,,,,,,,,,,,,,,,,,,,,,,,,,,,,,,,,,,,,,,,,,,,,,,,,,,,,,,,,,,,,,,,,,,,,,,,,,,,,,,,,,,,,,,,,,,,,,,,,,,,,,,,,,,,,,,,,,,,,,,,,,,,,,,,,,,,,,,,,,,
,119238710566,CAB,3/12/2000,1,2023-03-15_20h26.02.349,OS3_Mult_verification,2022.2.4,Win32,60.04563468,,,,,,,,,,,,,,space,4.192,,,,,,,,,,,,,,,,,,,,,,,,,,,,,,,,,,,,,,,,,,,,,,,,,,,,,,,,,,,,,,,,,,,,,,,,,,,,,,,,,,,,,,,,,,,,,,,,,,,,,,,,,,,,,,,,,,,,,,,,,,,,,,,,,,,,,,,,,,,,,,,,,,,,,,,,,,,,,,,
,119238710566,CAB,3/12/2000,1,2023-03-15_20h26.02.349,OS3_Mult_verification,2022.2.4,Win32,60.04563468,,,,,,,,,,,,,,,,,,,,,,,,,,,,,,,,,,,,,,,,,,,,,,,,,,,,,,,,,,,,,,,,,,,,,,,,,,,,,,,,,,,,,,,,,,,,,,,,,,,,,,,,,,,,,,,,,,,,,,,,,,,,,,,,,,,,,,,,,,,,,,,,,,,,,,,,,,,,,,,,,,,,,,,,,,,,,,
,119238710566,CAB,3/12/2000,1,2023-03-15_20h26.02.349,OS3_Mult_verification,2022.2.4,Win32,60.04563468,,,,,,,,,,,,,,,,space,2.9972,,,,,,,,,,,,,,,,,,,,,,,,,,,,,,,,,,,,,,,,,,,,,,,,,,,,,,,,,,,,,,,,,,,,,,,,,,,,,,,,,,,,,,,,,,,,,,,,,,,,,,,,,,,,,,,,,,,,,,,,,,,,,,,,,,,,,,,,,,,,,,,,,,,,,,,,,,,,,
,119238710566,CAB,3/12/2000,1,2023-03-15_20h26.02.349,OS3_Mult_verification,2022.2.4,Win32,60.04563468,,,,,,,,,,,,,,,,,,7,1.8194,1,"[""7"",""return""]","[1.417399999976169,1.5330999999046355]",0,0,0,0,1,1 × 7 =,7,,,,,,,,,,,,,,,,,,,,,,,,,,,,,,,,,,,,,,,,,,,,,,,,,,,,,,,,,,,,,,,,,,,,,,,,,,,,,,,,,,,,,,,,,,,,,,,,,,,,,,,,,,,,,,,,,,,,,,,,,,,,,,,,,,,,,,,,,,,,,,,,,
,119238710566,CAB,3/12/2000,1,2023-03-15_20h26.02.349,OS3_Mult_verification,2022.2.4,Win32,60.04563468,,,,,,,,,,,,,,,,,,20,1.3534,1,"[""2"",""0"",""return""]","[0.788099999904631,0.916199999928466,1.0662999999523208]",0,1,1,1,1,2 × 10 =,20,,,,,,,,,,,,,,,,,,,,,,,,,,,,,,,,,,,,,,,,,,,,,,,,,,,,,,,,,,,,,,,,,,,,,,,,,,,,,,,,,,,,,,,,,,,,,,,,,,,,,,,,,,,,,,,,,,,,,,,,,,,,,,,,,,,,,,,,,,,,,,,,,
,119238710566,CAB,3/12/2000,1,2023-03-15_20h26.02.349,OS3_Mult_verification,2022.2.4,Win32,60.04563468,,,,,,,,,,,,,,,,,,22,1.2629,1,"[""2"",""2"",""return""]","[0.7043999999761468,0.8332999999523167,0.9551999999284817]",0,2,2,2,1,2 × 11 =,22,,,,,,,,,,,,,,,,,,,,,,,,,,,,,,,,,,,,,,,,,,,,,,,,,,,,,,,,,,,,,,,,,,,,,,,,,,,,,,,,,,,,,,,,,,,,,,,,,,,,,,,,,,,,,,,,,,,,,,,,,,,,,,,,,,,,,,,,,,,,,,,,,
,119238710566,CAB,3/12/2000,1,2023-03-15_20h26.02.349,OS3_Mult_verification,2022.2.4,Win32,60.04563468,,,,,,,,,,,,,,,,,,,,,,,,,,,,,,,,,,,,,,,,,,,,,,,,,,,,,,,,,,,,,,,,,,,,,,,,,,,,,,,,,,,,,,,,,,,,,,,,,,,,,,,,,,,,,,,,,,,,,,,,,,,,,,,,,,,,,,,,,,,,,,,,,,,,,,,,,,,,,,,,,,,,,,,,,,,,,,
,119238710566,CAB,3/12/2000,1,2023-03-15_20h26.02.349,OS3_Mult_verification,2022.2.4,Win32,60.04563468,,,,,,,,,,,,,,,,,,,,,,,,,,,,,,,,,,,,,,,,,,,,,,,,,,,,,,,,,,,,,,,,,,,,,,,,,,,,,,,,,,,,,,,,,,,,,,,,,,,,,,,,,,,,,,,,,,,,,,,,,,,,,,,,,,,,,,,,,,,,,,,,,,,,,,,,,,,,,,,,,,,,,,,,,,,,,,
,119238710566,CAB,3/12/2000,1,2023-03-15_20h26.02.349,OS3_Mult_verification,2022.2.4,Win32,60.04563468,,,,,,,,,,,,,,,,,,6,1.3979,1,"[""6"",""return""]","[0.9998999999761509,1.1007000000476808]",,,,,,2 × 3 =,6,0,0,0,0,1,,,,,,,,,,,,,,,,,,,,,,,,,,,,,,,,,,,,,,,,,,,,,,,,,,,,,,,,,,,,,,,,,,,,,,,,,,,,,,,,,,,,,,,,,,,,,,,,,,,,,,,,,,,,,,,,,,,,,,,,,,,,,,,,,,,,,,,,,,,,
,119238710566,CAB,3/12/2000,1,2023-03-15_20h26.02.349,OS3_Mult_verification,2022.2.4,Win32,60.04563468,,,,,,,,,,,,,,,,,,40,1.6667,1,"[""4"",""0"",""return""]","[1.150999999999982,1.234499999999997,1.366700000047672]",,,,,,5 × 8 =,40,0,1,1,1,1,,,,,,,,,,,,,,,,,,,,,,,,,,,,,,,,,,,,,,,,,,,,,,,,,,,,,,,,,,,,,,,,,,,,,,,,,,,,,,,,,,,,,,,,,,,,,,,,,,,,,,,,,,,,,,,,,,,,,,,,,,,,,,,,,,,,,,,,,,,,
,119238710566,CAB,3/12/2000,1,2023-03-15_20h26.02.349,OS3_Mult_verification,2022.2.4,Win32,60.04563468,,,,,,,,,,,,,,,,,,12,1.2301,1,"[""1"",""2"",""return""]","[0.7113999999761518,0.8001999999284806,0.9346000000238348]",,,,,,3 × 4 =,12,0,2,2,2,1,,,,,,,,,,,,,,,,,,,,,,,,,,,,,,,,,,,,,,,,,,,,,,,,,,,,,,,,,,,,,,,,,,,,,,,,,,,,,,,,,,,,,,,,,,,,,,,,,,,,,,,,,,,,,,,,,,,,,,,,,,,,,,,,,,,,,,,,,,,,
,119238710566,CAB,3/12/2000,1,2023-03-15_20h26.02.349,OS3_Mult_verification,2022.2.4,Win32,60.04563468,,,,,,,,,,,,,,,,,,15,1.265,1,"[""1"",""5"",""return""]","[0.7328000000715349,0.8829000000953613,0.9609000000953642]",,,,,,5 × 3 =,15,0,3,3,3,1,,,,,,,,,,,,,,,,,,,,,,,,,,,,,,,,,,,,,,,,,,,,,,,,,,,,,,,,,,,,,,,,,,,,,,,,,,,,,,,,,,,,,,,,,,,,,,,,,,,,,,,,,,,,,,,,,,,,,,,,,,,,,,,,,,,,,,,,,,,,
,119238710566,CAB,3/12/2000,1,2023-03-15_20h26.02.349,OS3_Mult_verification,2022.2.4,Win32,60.04563468,,,,,,,,,,,,,,,,,,8,1.2663,1,"[""8"",""return""]","[0.8846000000238519,0.9671000000238337]",,,,,,2 × 4 =,8,0,4,4,4,1,,,,,,,,,,,,,,,,,,,,,,,,,,,,,,,,,,,,,,,,,,,,,,,,,,,,,,,,,,,,,,,,,,,,,,,,,,,,,,,,,,,,,,,,,,,,,,,,,,,,,,,,,,,,,,,,,,,,,,,,,,,,,,,,,,,,,,,,,,,,
,119238710566,CAB,3/12/2000,1,2023-03-15_20h26.02.349,OS3_Mult_verification,2022.2.4,Win32,60.04563468,,,,,,,,,,,,,,,,,,4,1.2002,1,"[""4"",""return""]","[0.808200000047691,0.9001000000238548]",,,,,,2 × 2 =,4,0,5,5,5,1,,,,,,,,,,,,,,,,,,,,,,,,,,,,,,,,,,,,,,,,,,,,,,,,,,,,,,,,,,,,,,,,,,,,,,,,,,,,,,,,,,,,,,,,,,,,,,,,,,,,,,,,,,,,,,,,,,,,,,,,,,,,,,,,,,,,,,,,,,,,
,119238710566,CAB,3/12/2000,1,2023-03-15_20h26.02.349,OS3_Mult_verification,2022.2.4,Win32,60.04563468,,,,,,,,,,,,,,,,,,20,1.3479,1,"[""2"",""0"",""return""]","[0.833899999976154,0.900299999952324,1.0511000000238369]",,,,,,4 × 5 =,20,0,6,6,6,1,,,,,,,,,,,,,,,,,,,,,,,,,,,,,,,,,,,,,,,,,,,,,,,,,,,,,,,,,,,,,,,,,,,,,,,,,,,,,,,,,,,,,,,,,,,,,,,,,,,,,,,,,,,,,,,,,,,,,,,,,,,,,,,,,,,,,,,,,,,,
,119238710566,CAB,3/12/2000,1,2023-03-15_20h26.02.349,OS3_Mult_verification,2022.2.4,Win32,60.04563468,,,,,,,,,,,,,,,,,,9,1.3495,1,"[""9"",""return""]","[0.9681000000238384,1.0512000000476576]",,,,,,3 × 3 =,9,0,7,7,7,1,,,,,,,,,,,,,,,,,,,,,,,,,,,,,,,,,,,,,,,,,,,,,,,,,,,,,,,,,,,,,,,,,,,,,,,,,,,,,,,,,,,,,,,,,,,,,,,,,,,,,,,,,,,,,,,,,,,,,,,,,,,,,,,,,,,,,,,,,,,,
,119238710566,CAB,3/12/2000,1,2023-03-15_20h26.02.349,OS3_Mult_verification,2022.2.4,Win32,60.04563468,,,,,,,,,,,,,,,,,,10,1.3004,1,"[""1"",""0"",""return""]","[0.75,0.8508999999761784,0.9876999999284806]",,,,,,5 × 2 =,10,0,8,8,8,1,,,,,,,,,,,,,,,,,,,,,,,,,,,,,,,,,,,,,,,,,,,,,,,,,,,,,,,,,,,,,,,,,,,,,,,,,,,,,,,,,,,,,,,,,,,,,,,,,,,,,,,,,,,,,,,,,,,,,,,,,,,,,,,,,,,,,,,,,,,,
,119238710566,CAB,3/12/2000,1,2023-03-15_20h26.02.349,OS3_Mult_verification,2022.2.4,Win32,60.04563468,,,,,,,,,,,,,,,,,,16,1.6228,1,"[""1"",""6"",""return""]","[1.0160000000000196,1.10060000002386,1.3162000000477008]",,,,,,4 × 4 =,16,0,9,9,9,1,,,,,,,,,,,,,,,,,,,,,,,,,,,,,,,,,,,,,,,,,,,,,,,,,,,,,,,,,,,,,,,,,,,,,,,,,,,,,,,,,,,,,,,,,,,,,,,,,,,,,,,,,,,,,,,,,,,,,,,,,,,,,,,,,,,,,,,,,,,,
,119238710566,CAB,3/12/2000,1,2023-03-15_20h26.02.349,OS3_Mult_verification,2022.2.4,Win32,60.04563468,,,,,,,,,,,,,,,,,,24,1.42,1,"[""2"",""4"",""return""]","[0.9174999999999898,0.9976999999284715,1.116500000000002]",,,,,,8 × 3 =,24,0,10,10,10,1,,,,,,,,,,,,,,,,,,,,,,,,,,,,,,,,,,,,,,,,,,,,,,,,,,,,,,,,,,,,,,,,,,,,,,,,,,,,,,,,,,,,,,,,,,,,,,,,,,,,,,,,,,,,,,,,,,,,,,,,,,,,,,,,,,,,,,,,,,,,
,119238710566,CAB,3/12/2000,1,2023-03-15_20h26.02.349,OS3_Mult_verification,2022.2.4,Win32,60.04563468,,,,,,,,,,,,,,,,,,30,1.5505,1,"[""3"",""0"",""return""]","[1.0033000000715333,1.10089999997615,1.2673999999761634]",,,,,,6 × 5 =,30,0,11,11,11,1,,,,,,,,,,,,,,,,,,,,,,,,,,,,,,,,,,,,,,,,,,,,,,,,,,,,,,,,,,,,,,,,,,,,,,,,,,,,,,,,,,,,,,,,,,,,,,,,,,,,,,,,,,,,,,,,,,,,,,,,,,,,,,,,,,,,,,,,,,,,
,119238710566,CAB,3/12/2000,1,2023-03-15_20h26.02.349,OS3_Mult_verification,2022.2.4,Win32,60.04563468,,,,,,,,,,,,,,,,,,14,1.4307,1,"[""1"",""4"",""return""]","[0.7340999999046289,0.8494999999999777,1.133199999928479]",,,,,,7 × 2 =,14,0,12,12,12,1,,,,,,,,,,,,,,,,,,,,,,,,,,,,,,,,,,,,,,,,,,,,,,,,,,,,,,,,,,,,,,,,,,,,,,,,,,,,,,,,,,,,,,,,,,,,,,,,,,,,,,,,,,,,,,,,,,,,,,,,,,,,,,,,,,,,,,,,,,,,
,119238710566,CAB,3/12/2000,1,2023-03-15_20h26.02.349,OS3_Mult_verification,2022.2.4,Win32,60.04563468,,,,,,,,,,,,,,,,,,27,1.7601,1,"[""2"",""7"",""return""]","[1.2165000000000248,1.2669000000953758,1.457300000071541]",,,,,,3 × 9 =,27,0,13,13,13,1,,,,,,,,,,,,,,,,,,,,,,,,,,,,,,,,,,,,,,,,,,,,,,,,,,,,,,,,,,,,,,,,,,,,,,,,,,,,,,,,,,,,,,,,,,,,,,,,,,,,,,,,,,,,,,,,,,,,,,,,,,,,,,,,,,,,,,,,,,,,
,119238710566,CAB,3/12/2000,1,2023-03-15_20h26.02.349,OS3_Mult_verification,2022.2.4,Win32,60.04563468,,,,,,,,,,,,,,,,,,16,1.5379,1,"[""1"",""6"",""return""]","[0.784100000023841,1.0335000000000036,1.232899999976155]",,,,,,2 × 8 =,16,0,14,14,14,1,,,,,,,,,,,,,,,,,,,,,,,,,,,,,,,,,,,,,,,,,,,,,,,,,,,,,,,,,,,,,,,,,,,,,,,,,,,,,,,,,,,,,,,,,,,,,,,,,,,,,,,,,,,,,,,,,,,,,,,,,,,,,,,,,,,,,,,,,,,,
,119238710566,CAB,3/12/2000,1,2023-03-15_20h26.02.349,OS3_Mult_verification,2022.2.4,Win32,60.04563468,,,,,,,,,,,,,,,,,,24,1.2997,1,"[""2"",""4"",""return""]","[0.8161999999284717,0.8902999999523047,0.9993999999761627]",,,,,,4 × 6 =,24,0,15,15,15,1,,,,,,,,,,,,,,,,,,,,,,,,,,,,,,,,,,,,,,,,,,,,,,,,,,,,,,,,,,,,,,,,,,,,,,,,,,,,,,,,,,,,,,,,,,,,,,,,,,,,,,,,,,,,,,,,,,,,,,,,,,,,,,,,,,,,,,,,,,,,
,119238710566,CAB,3/12/2000,1,2023-03-15_20h26.02.349,OS3_Mult_verification,2022.2.4,Win32,60.04563468,,,,,,,,,,,,,,,,,,21,1.3144,1,"[""2"",""1"",""return""]","[0.8192999999523067,0.9004999999999939,1.0157000000476728]",,,,,,7 × 3 =,21,0,16,16,16,1,,,,,,,,,,,,,,,,,,,,,,,,,,,,,,,,,,,,,,,,,,,,,,,,,,,,,,,,,,,,,,,,,,,,,,,,,,,,,,,,,,,,,,,,,,,,,,,,,,,,,,,,,,,,,,,,,,,,,,,,,,,,,,,,,,,,,,,,,,,,
,119238710566,CAB,3/12/2000,1,2023-03-15_20h26.02.349,OS3_Mult_verification,2022.2.4,Win32,60.04563468,,,,,,,,,,,,,,,,,,27,1.8981,1,"[""2"",""7"",""return""]","[1.2990000000000066,1.383600000023847,1.588100000023843]",,,,,,9 × 3 =,27,0,17,17,17,1,,,,,,,,,,,,,,,,,,,,,,,,,,,,,,,,,,,,,,,,,,,,,,,,,,,,,,,,,,,,,,,,,,,,,,,,,,,,,,,,,,,,,,,,,,,,,,,,,,,,,,,,,,,,,,,,,,,,,,,,,,,,,,,,,,,,,,,,,,,,
,119238710566,CAB,3/12/2000,1,2023-03-15_20h26.02.349,OS3_Mult_verification,2022.2.4,Win32,60.04563468,,,,,,,,,,,,,,,,,,28,1.6145,1,"[""2"",""8"",""return""]","[1.0763000000715124,1.1324999999999932,1.315499999999986]",,,,,,4 × 7 =,28,0,18,18,18,1,,,,,,,,,,,,,,,,,,,,,,,,,,,,,,,,,,,,,,,,,,,,,,,,,,,,,,,,,,,,,,,,,,,,,,,,,,,,,,,,,,,,,,,,,,,,,,,,,,,,,,,,,,,,,,,,,,,,,,,,,,,,,,,,,,,,,,,,,,,,
,119238710566,CAB,3/12/2000,1,2023-03-15_20h26.02.349,OS3_Mult_verification,2022.2.4,Win32,60.04563468,,,,,,,,,,,,,,,,,,18,1.6767,1,"[""1"",""8"",""return""]","[1.0774000000953663,1.183200000047691,1.3716000000238466]",,,,,,2 × 9 =,18,0,19,19,19,1,,,,,,,,,,,,,,,,,,,,,,,,,,,,,,,,,,,,,,,,,,,,,,,,,,,,,,,,,,,,,,,,,,,,,,,,,,,,,,,,,,,,,,,,,,,,,,,,,,,,,,,,,,,,,,,,,,,,,,,,,,,,,,,,,,,,,,,,,,,,
,119238710566,CAB,3/12/2000,1,2023-03-15_20h26.02.349,OS3_Mult_verification,2022.2.4,Win32,60.04563468,,,,,,,,,,,,,,,,,,72,1.6042,1,"[""7"",""2"",""return""]","[1.0854999999999961,1.1834000000953608,1.3160000000000025]",,,,,,9 × 8 =,72,0,20,20,20,1,,,,,,,,,,,,,,,,,,,,,,,,,,,,,,,,,,,,,,,,,,,,,,,,,,,,,,,,,,,,,,,,,,,,,,,,,,,,,,,,,,,,,,,,,,,,,,,,,,,,,,,,,,,,,,,,,,,,,,,,,,,,,,,,,,,,,,,,,,,,
,119238710566,CAB,3/12/2000,1,2023-03-15_20h26.02.349,OS3_Mult_verification,2022.2.4,Win32,60.04563468,,,,,,,,,,,,,,,,,,42,2.5975,1,"[""4"",""2"",""return""]","[2.0142999999523283,2.1345000000000027,2.298000000000002]",,,,,,7 × 6 =,42,0,21,21,21,1,,,,,,,,,,,,,,,,,,,,,,,,,,,,,,,,,,,,,,,,,,,,,,,,,,,,,,,,,,,,,,,,,,,,,,,,,,,,,,,,,,,,,,,,,,,,,,,,,,,,,,,,,,,,,,,,,,,,,,,,,,,,,,,,,,,,,,,,,,,,
,119238710566,CAB,3/12/2000,1,2023-03-15_20h26.02.349,OS3_Mult_verification,2022.2.4,Win32,60.04563468,,,,,,,,,,,,,,,,,,54,1.5331,1,"[""5"",""4"",""return""]","[1.10060000002386,1.1833999999761602,1.250799999952335]",,,,,,6 × 9 =,54,0,22,22,22,1,,,,,,,,,,,,,,,,,,,,,,,,,,,,,,,,,,,,,,,,,,,,,,,,,,,,,,,,,,,,,,,,,,,,,,,,,,,,,,,,,,,,,,,,,,,,,,,,,,,,,,,,,,,,,,,,,,,,,,,,,,,,,,,,,,,,,,,,,,,,
,119238710566,CAB,3/12/2000,1,2023-03-15_20h26.02.349,OS3_Mult_verification,2022.2.4,Win32,60.04563468,,,,,,,,,,,,,,,,,,45,1.815,1,"[""4"",""5"",""return""]","[1.3068999999761672,1.3832000000476796,1.512399999976168]",,,,,,9 × 5 =,45,0,23,23,23,1,,,,,,,,,,,,,,,,,,,,,,,,,,,,,,,,,,,,,,,,,,,,,,,,,,,,,,,,,,,,,,,,,,,,,,,,,,,,,,,,,,,,,,,,,,,,,,,,,,,,,,,,,,,,,,,,,,,,,,,,,,,,,,,,,,,,,,,,,,,,
,119238710566,CAB,3/12/2000,1,2023-03-15_20h26.02.349,OS3_Mult_verification,2022.2.4,Win32,60.04563468,,,,,,,,,,,,,,,,,,56,1.4308,1,"[""5"",""6"",""return""]","[0.9338999999761484,1.082600000023831,1.133199999928479]",,,,,,8 × 7 =,56,0,24,24,24,1,,,,,,,,,,,,,,,,,,,,,,,,,,,,,,,,,,,,,,,,,,,,,,,,,,,,,,,,,,,,,,,,,,,,,,,,,,,,,,,,,,,,,,,,,,,,,,,,,,,,,,,,,,,,,,,,,,,,,,,,,,,,,,,,,,,,,,,,,,,,
,119238710566,CAB,3/12/2000,1,2023-03-15_20h26.02.349,OS3_Mult_verification,2022.2.4,Win32,60.04563468,,,,,,,,,,,,,,,,,,36,1.7097,1,"[""3"",""6"",""return""]","[1.1333999999761488,1.3170000000000073,1.4013999999761495]",,,,,,6 × 6 =,36,0,25,25,25,1,,,,,,,,,,,,,,,,,,,,,,,,,,,,,,,,,,,,,,,,,,,,,,,,,,,,,,,,,,,,,,,,,,,,,,,,,,,,,,,,,,,,,,,,,,,,,,,,,,,,,,,,,,,,,,,,,,,,,,,,,,,,,,,,,,,,,,,,,,,,
,119238710566,CAB,3/12/2000,1,2023-03-15_20h26.02.349,OS3_Mult_verification,2022.2.4,Win32,60.04563468,,,,,,,,,,,,,,,,,,35,1.621,1,"[""3"",""5"",""return""]","[1.1221000000238632,1.2379999999999995,1.3329999999999984]",,,,,,5 × 7 =,35,0,26,26,26,1,,,,,,,,,,,,,,,,,,,,,,,,,,,,,,,,,,,,,,,,,,,,,,,,,,,,,,,,,,,,,,,,,,,,,,,,,,,,,,,,,,,,,,,,,,,,,,,,,,,,,,,,,,,,,,,,,,,,,,,,,,,,,,,,,,,,,,,,,,,,
,119238710566,CAB,3/12/2000,1,2023-03-15_20h26.02.349,OS3_Mult_verification,2022.2.4,Win32,60.04563468,,,,,,,,,,,,,,,,,,36,1.9595,1,"[""3"",""6"",""return""]","[1.3527999999523104,1.5504999999999995,1.6547999999523313]",,,,,,4 × 9 =,36,0,27,27,27,1,,,,,,,,,,,,,,,,,,,,,,,,,,,,,,,,,,,,,,,,,,,,,,,,,,,,,,,,,,,,,,,,,,,,,,,,,,,,,,,,,,,,,,,,,,,,,,,,,,,,,,,,,,,,,,,,,,,,,,,,,,,,,,,,,,,,,,,,,,,,
,119238710566,CAB,3/12/2000,1,2023-03-15_20h26.02.349,OS3_Mult_verification,2022.2.4,Win32,60.04563468,,,,,,,,,,,,,,,,,,42,1.5542,0,"[""4"",""2"",""return""]","[1.03830000007153,1.1505000000000223,1.2663999999761586]",,,,,,8 × 6 =,48,0,28,28,28,1,,,,,,,,,,,,,,,,,,,,,,,,,,,,,,,,,,,,,,,,,,,,,,,,,,,,,,,,,,,,,,,,,,,,,,,,,,,,,,,,,,,,,,,,,,,,,,,,,,,,,,,,,,,,,,,,,,,,,,,,,,,,,,,,,,,,,,,,,,,,
,119238710566,CAB,3/12/2000,1,2023-03-15_20h26.02.349,OS3_Mult_verification,2022.2.4,Win32,60.04563468,,,,,,,,,,,,,,,,,,63,2.364,1,"[""6"",""3"",""return""]","[1.6350000000000193,1.954199999928477,2.0656999999284835]",,,,,,9 × 7 =,63,0,29,29,29,1,,,,,,,,,,,,,,,,,,,,,,,,,,,,,,,,,,,,,,,,,,,,,,,,,,,,,,,,,,,,,,,,,,,,,,,,,,,,,,,,,,,,,,,,,,,,,,,,,,,,,,,,,,,,,,,,,,,,,,,,,,,,,,,,,,,,,,,,,,,,
,119238710566,CAB,3/12/2000,1,2023-03-15_20h26.02.349,OS3_Mult_verification,2022.2.4,Win32,60.04563468,,,,,,,,,,,,,,,,,,12,1.1324,1,"[""1"",""2"",""return""]","[0.623500000000007,0.721600000023841,0.8383999999761613]",,,,,,4 × 3 =,12,0,30,30,30,1,,,,,,,,,,,,,,,,,,,,,,,,,,,,,,,,,,,,,,,,,,,,,,,,,,,,,,,,,,,,,,,,,,,,,,,,,,,,,,,,,,,,,,,,,,,,,,,,,,,,,,,,,,,,,,,,,,,,,,,,,,,,,,,,,,,,,,,,,,,,
,119238710566,CAB,3/12/2000,1,2023-03-15_20h26.02.349,OS3_Mult_verification,2022.2.4,Win32,60.04563468,,,,,,,,,,,,,,,,,,25,1.3157,1,"[""2"",""5"",""return""]","[0.7568999999761559,0.8987000000476826,1.0164999999999793]",,,,,,5 × 5 =,25,0,31,31,31,1,,,,,,,,,,,,,,,,,,,,,,,,,,,,,,,,,,,,,,,,,,,,,,,,,,,,,,,,,,,,,,,,,,,,,,,,,,,,,,,,,,,,,,,,,,,,,,,,,,,,,,,,,,,,,,,,,,,,,,,,,,,,,,,,,,,,,,,,,,,,
,119238710566,CAB,3/12/2000,1,2023-03-15_20h26.02.349,OS3_Mult_verification,2022.2.4,Win32,60.04563468,,,,,,,,,,,,,,,,,,6,1.4097,1,"[""6"",""return""]","[0.9823000000715183,1.1038000000715442]",,,,,,3 × 2 =,6,0,32,32,32,1,,,,,,,,,,,,,,,,,,,,,,,,,,,,,,,,,,,,,,,,,,,,,,,,,,,,,,,,,,,,,,,,,,,,,,,,,,,,,,,,,,,,,,,,,,,,,,,,,,,,,,,,,,,,,,,,,,,,,,,,,,,,,,,,,,,,,,,,,,,,
,119238710566,CAB,3/12/2000,1,2023-03-15_20h26.02.349,OS3_Mult_verification,2022.2.4,Win32,60.04563468,,,,,,,,,,,,,,,,,,20,1.4045,1,"[""2"",""0"",""return""]","[0.8326999999284794,0.9326999999284453,1.1131000000238487]",,,,,,5 × 4 =,20,0,33,33,33,1,,,,,,,,,,,,,,,,,,,,,,,,,,,,,,,,,,,,,,,,,,,,,,,,,,,,,,,,,,,,,,,,,,,,,,,,,,,,,,,,,,,,,,,,,,,,,,,,,,,,,,,,,,,,,,,,,,,,,,,,,,,,,,,,,,,,,,,,,,,,
,119238710566,CAB,3/12/2000,1,2023-03-15_20h26.02.349,OS3_Mult_verification,2022.2.4,Win32,60.04563468,,,,,,,,,,,,,,,,,,8,1.448,1,"[""8"",""return""]","[1.0588999999761768,1.1492000000476992]",,,,,,4 × 2 =,8,0,34,34,34,1,,,,,,,,,,,,,,,,,,,,,,,,,,,,,,,,,,,,,,,,,,,,,,,,,,,,,,,,,,,,,,,,,,,,,,,,,,,,,,,,,,,,,,,,,,,,,,,,,,,,,,,,,,,,,,,,,,,,,,,,,,,,,,,,,,,,,,,,,,,,
,119238710566,CAB,3/12/2000,1,2023-03-15_20h26.02.349,OS3_Mult_verification,2022.2.4,Win32,60.04563468,,,,,,,,,,,,,,,,,,12,1.1989,1,"[""1"",""2"",""return""]","[0.7169999999999845,0.8168999999761581,0.899799999952279]",,,,,,2 × 6 =,12,0,35,35,35,1,,,,,,,,,,,,,,,,,,,,,,,,,,,,,,,,,,,,,,,,,,,,,,,,,,,,,,,,,,,,,,,,,,,,,,,,,,,,,,,,,,,,,,,,,,,,,,,,,,,,,,,,,,,,,,,,,,,,,,,,,,,,,,,,,,,,,,,,,,,,
,119238710566,CAB,3/12/2000,1,2023-03-15_20h26.02.349,OS3_Mult_verification,2022.2.4,Win32,60.04563468,,,,,,,,,,,,,,,,,,15,1.2813,1,"[""1"",""5"",""return""]","[0.7722999999523381,0.9181000000238555,0.9826999999285135]",,,,,,3 × 5 =,15,0,36,36,36,1,,,,,,,,,,,,,,,,,,,,,,,,,,,,,,,,,,,,,,,,,,,,,,,,,,,,,,,,,,,,,,,,,,,,,,,,,,,,,,,,,,,,,,,,,,,,,,,,,,,,,,,,,,,,,,,,,,,,,,,,,,,,,,,,,,,,,,,,,,,,
,119238710566,CAB,3/12/2000,1,2023-03-15_20h26.02.349,OS3_Mult_verification,2022.2.4,Win32,60.04563468,,,,,,,,,,,,,,,,,,18,1.9163,1,"[""1"",""8"",""return""]","[1.3616000000238273,1.4331000000238419,1.6043999999761809]",,,,,,6 × 3 =,18,0,37,37,37,1,,,,,,,,,,,,,,,,,,,,,,,,,,,,,,,,,,,,,,,,,,,,,,,,,,,,,,,,,,,,,,,,,,,,,,,,,,,,,,,,,,,,,,,,,,,,,,,,,,,,,,,,,,,,,,,,,,,,,,,,,,,,,,,,,,,,,,,,,,,,
,119238710566,CAB,3/12/2000,1,2023-03-15_20h26.02.349,OS3_Mult_verification,2022.2.4,Win32,60.04563468,,,,,,,,,,,,,,,,,,10,1.6825,1,"[""1"",""0"",""return""]","[0.8002999999523581,0.8827999999523399,1.3766000000238705]",,,,,,2 × 5 =,10,0,38,38,38,1,,,,,,,,,,,,,,,,,,,,,,,,,,,,,,,,,,,,,,,,,,,,,,,,,,,,,,,,,,,,,,,,,,,,,,,,,,,,,,,,,,,,,,,,,,,,,,,,,,,,,,,,,,,,,,,,,,,,,,,,,,,,,,,,,,,,,,,,,,,,
,119238710566,CAB,3/12/2000,1,2023-03-15_20h26.02.349,OS3_Mult_verification,2022.2.4,Win32,60.04563468,,,,,,,,,,,,,,,,,,32,2.1145,1,"[""3"",""2"",""return""]","[1.5582999999522826,1.68389999997612,1.817599999904587]",,,,,,4 × 8 =,32,0,39,39,39,1,,,,,,,,,,,,,,,,,,,,,,,,,,,,,,,,,,,,,,,,,,,,,,,,,,,,,,,,,,,,,,,,,,,,,,,,,,,,,,,,,,,,,,,,,,,,,,,,,,,,,,,,,,,,,,,,,,,,,,,,,,,,,,,,,,,,,,,,,,,,
,119238710566,CAB,3/12/2000,1,2023-03-15_20h26.02.349,OS3_Mult_verification,2022.2.4,Win32,60.04563468,,,,,,,,,,,,,,,,,,24,1.3663,1,"[""2"",""4"",""return""]","[0.871600000023875,0.9761000000238482,1.0671000000238564]",,,,,,3 × 8 =,24,0,40,40,40,1,,,,,,,,,,,,,,,,,,,,,,,,,,,,,,,,,,,,,,,,,,,,,,,,,,,,,,,,,,,,,,,,,,,,,,,,,,,,,,,,,,,,,,,,,,,,,,,,,,,,,,,,,,,,,,,,,,,,,,,,,,,,,,,,,,,,,,,,,,,,
,119238710566,CAB,3/12/2000,1,2023-03-15_20h26.02.349,OS3_Mult_verification,2022.2.4,Win32,60.04563468,,,,,,,,,,,,,,,,,,30,1.4311,1,"[""3"",""0"",""return""]","[0.8607000000476432,0.9501000000238378,1.1336000000238187]",,,,,,5 × 6 =,30,0,41,41,41,1,,,,,,,,,,,,,,,,,,,,,,,,,,,,,,,,,,,,,,,,,,,,,,,,,,,,,,,,,,,,,,,,,,,,,,,,,,,,,,,,,,,,,,,,,,,,,,,,,,,,,,,,,,,,,,,,,,,,,,,,,,,,,,,,,,,,,,,,,,,,
,119238710566,CAB,3/12/2000,1,2023-03-15_20h26.02.349,OS3_Mult_verification,2022.2.4,Win32,60.04563468,,,,,,,,,,,,,,,,,,14,1.2817,1,"[""1"",""4"",""return""]","[0.8261999999284626,0.9158999999761477,0.9830000000000041]",,,,,,2 × 7 =,14,0,42,42,42,1,,,,,,,,,,,,,,,,,,,,,,,,,,,,,,,,,,,,,,,,,,,,,,,,,,,,,,,,,,,,,,,,,,,,,,,,,,,,,,,,,,,,,,,,,,,,,,,,,,,,,,,,,,,,,,,,,,,,,,,,,,,,,,,,,,,,,,,,,,,,
,119238710566,CAB,3/12/2000,1,2023-03-15_20h26.02.349,OS3_Mult_verification,2022.2.4,Win32,60.04563468,,,,,,,,,,,,,,,,,,24,1.2655,1,"[""2"",""4"",""return""]","[0.8331999999284676,0.8992999999523477,0.96550000000002]",,,,,,6 × 4 =,24,0,43,43,43,1,,,,,,,,,,,,,,,,,,,,,,,,,,,,,,,,,,,,,,,,,,,,,,,,,,,,,,,,,,,,,,,,,,,,,,,,,,,,,,,,,,,,,,,,,,,,,,,,,,,,,,,,,,,,,,,,,,,,,,,,,,,,,,,,,,,,,,,,,,,,
,119238710566,CAB,3/12/2000,1,2023-03-15_20h26.02.349,OS3_Mult_verification,2022.2.4,Win32,60.04563468,,,,,,,,,,,,,,,,,,21,1.165,1,"[""2"",""1"",""return""]","[0.7176999999284703,0.7842999999522817,0.8669999999999618]",,,,,,3 × 7 =,21,0,44,44,44,1,,,,,,,,,,,,,,,,,,,,,,,,,,,,,,,,,,,,,,,,,,,,,,,,,,,,,,,,,,,,,,,,,,,,,,,,,,,,,,,,,,,,,,,,,,,,,,,,,,,,,,,,,,,,,,,,,,,,,,,,,,,,,,,,,,,,,,,,,,,,
,119238710566,CAB,3/12/2000,1,2023-03-15_20h26.02.349,OS3_Mult_verification,2022.2.4,Win32,60.04563468,,,,,,,,,,,,,,,,,,81,1.7819,1,"[""8"",""1"",""return""]","[1.3174999999999955,1.3663999999761245,1.5001000000238491]",,,,,,9 × 9 =,81,0,45,45,45,1,,,,,,,,,,,,,,,,,,,,,,,,,,,,,,,,,,,,,,,,,,,,,,,,,,,,,,,,,,,,,,,,,,,,,,,,,,,,,,,,,,,,,,,,,,,,,,,,,,,,,,,,,,,,,,,,,,,,,,,,,,,,,,,,,,,,,,,,,,,,
,119238710566,CAB,3/12/2000,1,2023-03-15_20h26.02.349,OS3_Mult_verification,2022.2.4,Win32,60.04563468,,,,,,,,,,,,,,,,,,16,1.5649,1,"[""1"",""6"",""return""]","[0.9678999999761686,1.0345000000000368,1.255700000047682]",,,,,,8 × 2 =,16,0,46,46,46,1,,,,,,,,,,,,,,,,,,,,,,,,,,,,,,,,,,,,,,,,,,,,,,,,,,,,,,,,,,,,,,,,,,,,,,,,,,,,,,,,,,,,,,,,,,,,,,,,,,,,,,,,,,,,,,,,,,,,,,,,,,,,,,,,,,,,,,,,,,,,
,119238710566,CAB,3/12/2000,1,2023-03-15_20h26.02.349,OS3_Mult_verification,2022.2.4,Win32,60.04563468,,,,,,,,,,,,,,,,,,42,1.6591,0,"[""4"",""2"",""return""]","[1.121499999999969,1.2083999999761659,1.3497999999523245]",,,,,,6 × 8 =,48,0,47,47,47,1,,,,,,,,,,,,,,,,,,,,,,,,,,,,,,,,,,,,,,,,,,,,,,,,,,,,,,,,,,,,,,,,,,,,,,,,,,,,,,,,,,,,,,,,,,,,,,,,,,,,,,,,,,,,,,,,,,,,,,,,,,,,,,,,,,,,,,,,,,,,
,119238710566,CAB,3/12/2000,1,2023-03-15_20h26.02.349,OS3_Mult_verification,2022.2.4,Win32,60.04563468,,,,,,,,,,,,,,,,,,28,1.6045,1,"[""2"",""8"",""return""]","[1.0672000000477055,1.1333000000715288,1.316500000000019]",,,,,,7 × 4 =,28,0,48,48,48,1,,,,,,,,,,,,,,,,,,,,,,,,,,,,,,,,,,,,,,,,,,,,,,,,,,,,,,,,,,,,,,,,,,,,,,,,,,,,,,,,,,,,,,,,,,,,,,,,,,,,,,,,,,,,,,,,,,,,,,,,,,,,,,,,,,,,,,,,,,,,
,119238710566,CAB,3/12/2000,1,2023-03-15_20h26.02.349,OS3_Mult_verification,2022.2.4,Win32,60.04563468,,,,,,,,,,,,,,,,,,18,1.5934,1,"[""1"",""8"",""return""]","[0.9831000000238532,1.0841000000238523,1.2926000000238105]",,,,,,9 × 2 =,18,0,49,49,49,1,,,,,,,,,,,,,,,,,,,,,,,,,,,,,,,,,,,,,,,,,,,,,,,,,,,,,,,,,,,,,,,,,,,,,,,,,,,,,,,,,,,,,,,,,,,,,,,,,,,,,,,,,,,,,,,,,,,,,,,,,,,,,,,,,,,,,,,,,,,,
,119238710566,CAB,3/12/2000,1,2023-03-15_20h26.02.349,OS3_Mult_verification,2022.2.4,Win32,60.04563468,,,,,,,,,,,,,,,,,,35,1.565,1,"[""3"",""5"",""return""]","[1.0832999999523167,1.1831999999284903,1.2571999999285026]",,,,,,7 × 5 =,35,0,50,50,50,1,,,,,,,,,,,,,,,,,,,,,,,,,,,,,,,,,,,,,,,,,,,,,,,,,,,,,,,,,,,,,,,,,,,,,,,,,,,,,,,,,,,,,,,,,,,,,,,,,,,,,,,,,,,,,,,,,,,,,,,,,,,,,,,,,,,,,,,,,,,,
,119238710566,CAB,3/12/2000,1,2023-03-15_20h26.02.349,OS3_Mult_verification,2022.2.4,Win32,60.04563468,,,,,,,,,,,,,,,,,,36,1.7547,1,"[""3"",""6"",""return""]","[1.1839000000953774,1.3492000000476878,1.4487000000477224]",,,,,,9 × 4 =,36,0,51,51,51,1,,,,,,,,,,,,,,,,,,,,,,,,,,,,,,,,,,,,,,,,,,,,,,,,,,,,,,,,,,,,,,,,,,,,,,,,,,,,,,,,,,,,,,,,,,,,,,,,,,,,,,,,,,,,,,,,,,,,,,,,,,,,,,,,,,,,,,,,,,,,
,119238710566,CAB,3/12/2000,1,2023-03-15_20h26.02.349,OS3_Mult_verification,2022.2.4,Win32,60.04563468,,,,,,,,,,,,,,,,,,64,1.4976,1,"[""6"",""4"",""return""]","[0.9561000000238096,1.0804999999999723,1.1991000000238046]",,,,,,8 × 8 =,64,0,52,52,52,1,,,,,,,,,,,,,,,,,,,,,,,,,,,,,,,,,,,,,,,,,,,,,,,,,,,,,,,,,,,,,,,,,,,,,,,,,,,,,,,,,,,,,,,,,,,,,,,,,,,,,,,,,,,,,,,,,,,,,,,,,,,,,,,,,,,,,,,,,,,,
,119238710566,CAB,3/12/2000,1,2023-03-15_20h26.02.349,OS3_Mult_verification,2022.2.4,Win32,60.04563468,,,,,,,,,,,,,,,,,,45,1.3821,1,"[""4"",""5"",""return""]","[0.8671000000238678,0.9351000000238514,1.0668999999761581]",,,,,,5 × 9 =,45,0,53,53,53,1,,,,,,,,,,,,,,,,,,,,,,,,,,,,,,,,,,,,,,,,,,,,,,,,,,,,,,,,,,,,,,,,,,,,,,,,,,,,,,,,,,,,,,,,,,,,,,,,,,,,,,,,,,,,,,,,,,,,,,,,,,,,,,,,,,,,,,,,,,,,
,119238710566,CAB,3/12/2000,1,2023-03-15_20h26.02.349,OS3_Mult_verification,2022.2.4,Win32,60.04563468,,,,,,,,,,,,,,,,,,56,1.4999,1,"[""5"",""6"",""return""]","[0.9996000000238041,1.082600000023831,1.198799999952314]",,,,,,7 × 8 =,56,0,54,54,54,1,,,,,,,,,,,,,,,,,,,,,,,,,,,,,,,,,,,,,,,,,,,,,,,,,,,,,,,,,,,,,,,,,,,,,,,,,,,,,,,,,,,,,,,,,,,,,,,,,,,,,,,,,,,,,,,,,,,,,,,,,,,,,,,,,,,,,,,,,,,,
,119238710566,CAB,3/12/2000,1,2023-03-15_20h26.02.349,OS3_Mult_verification,2022.2.4,Win32,60.04563468,,,,,,,,,,,,,,,,,,36,1.6255,1,"[""3"",""6"",""return""]","[1.1318999999761559,1.1833999999761318,1.319799999952295]",,,,,,6 × 6 =,36,0,55,55,55,1,,,,,,,,,,,,,,,,,,,,,,,,,,,,,,,,,,,,,,,,,,,,,,,,,,,,,,,,,,,,,,,,,,,,,,,,,,,,,,,,,,,,,,,,,,,,,,,,,,,,,,,,,,,,,,,,,,,,,,,,,,,,,,,,,,,,,,,,,,,,
,119238710566,CAB,3/12/2000,1,2023-03-15_20h26.02.349,OS3_Mult_verification,2022.2.4,Win32,60.04563468,,,,,,,,,,,,,,,,,,72,1.4716,1,"[""7"",""2"",""return""]","[0.9334999999999809,1.0431000000238555,1.1678999999761572]",,,,,,8 × 9 =,72,0,56,56,56,1,,,,,,,,,,,,,,,,,,,,,,,,,,,,,,,,,,,,,,,,,,,,,,,,,,,,,,,,,,,,,,,,,,,,,,,,,,,,,,,,,,,,,,,,,,,,,,,,,,,,,,,,,,,,,,,,,,,,,,,,,,,,,,,,,,,,,,,,,,,,
,119238710566,CAB,3/12/2000,1,2023-03-15_20h26.02.349,OS3_Mult_verification,2022.2.4,Win32,60.04563468,,,,,,,,,,,,,,,,,,49,1.9141,1,"[""4"",""9"",""return""]","[1.33299999999997,1.4169000000953247,1.6041000000238341]",,,,,,7 × 7 =,49,0,57,57,57,1,,,,,,,,,,,,,,,,,,,,,,,,,,,,,,,,,,,,,,,,,,,,,,,,,,,,,,,,,,,,,,,,,,,,,,,,,,,,,,,,,,,,,,,,,,,,,,,,,,,,,,,,,,,,,,,,,,,,,,,,,,,,,,,,,,,,,,,,,,,,
,119238710566,CAB,3/12/2000,1,2023-03-15_20h26.02.349,OS3_Mult_verification,2022.2.4,Win32,60.04563468,,,,,,,,,,,,,,,,,,,0.3001,0,,,,,,,,9 × 6 =,54,0,58,58,58,1,,,,,,,,,,,,,,,,,,,,,,,,,,,,,,,,,,,,,,,,,,,,,,,,,,,,,,,,,,,,,,,,,,,,,,,,,,,,,,,,,,,,,,,,,,,,,,,,,,,,,,,,,,,,,,,,,,,,,,,,,,,,,,,,,,,,,,,,,,,,
,119238710566,CAB,3/12/2000,1,2023-03-15_20h26.02.349,OS3_Mult_verification,2022.2.4,Win32,60.04563468,,,,,,,,,,,,,,,,space,1.0813,,,,,,,,,,,,,,,,,,space,3.3285,911,1.1988,1,"[""9"",""1"",""1"",""return""]","[0.6388000000715124,0.8220000000000027,0.9737000000476996,1.1508999999761613]",0,0,0,2,1,3,911,Audio/911.mp3,practice,,,,,,,,,,,,,,,,,,,,,,,,,,,,,,,,,,,,,,,,,,,,,,,,,,,,,,,,,,,,,,,,,,,,,,,,,,,,,,,,,,,,,,,,,,,,,,,,,,,,,,,,,,,,,,,,,,,,,,,,,,,,
,119238710566,CAB,3/12/2000,1,2023-03-15_20h26.02.349,OS3_Mult_verification,2022.2.4,Win32,60.04563468,,,,,,,,,,,,,,,,,,,,,,,,,,,,,,,,,,,,,321,0.9661,1,"[""3"",""2"",""1"",""return""]","[0.5158999999761136,0.6204999999999927,0.7506000000238373,0.9403999999761368]",0,1,1,1,1,3,321,Audio/321.mp3,practice,,,,,,,,,,,,,,,,,,,,,,,,,,,,,,,,,,,,,,,,,,,,,,,,,,,,,,,,,,,,,,,,,,,,,,,,,,,,,,,,,,,,,,,,,,,,,,,,,,,,,,,,,,,,,,,,,,,,,,,,,,,,
,119238710566,CAB,3/12/2000,1,2023-03-15_20h26.02.349,OS3_Mult_verification,2022.2.4,Win32,60.04563468,,,,,,,,,,,,,,,,,,,,,,,,,,,,,,,,,,,,,123,1.4327,1,"[""1"",""2"",""3"",""return""]","[0.45060000002382594,0.5494999999999663,0.6517000000476401,1.4068000000714846]",0,2,2,0,1,3,123,Audio/123.mp3,practice,,,,,,,,,,,,,,,,,,,,,,,,,,,,,,,,,,,,,,,,,,,,,,,,,,,,,,,,,,,,,,,,,,,,,,,,,,,,,,,,,,,,,,,,,,,,,,,,,,,,,,,,,,,,,,,,,,,,,,,,,,,,
,119238710566,CAB,3/12/2000,1,2023-03-15_20h26.02.349,OS3_Mult_verification,2022.2.4,Win32,60.04563468,,,,,,,,,,,,,,,,,,,,,,,,,,,,,,,,,,,,,46,1.3322,1,"[""4"",""6"",""return""]","[0.9669000000953929,1.018000000000029,1.2973000000715729]",,,,,,2,46,Audio/46.mp3,EGNER,0,0,0,0,1,,,,,,,,,,,,,,,,,,,,,,,,,,,,,,,,,,,,,,,,,,,,,,,,,,,,,,,,,,,,,,,,,,,,,,,,,,,,,,,,,,,,,,,,,,,,,,,,,,,,,,,,,,,,,,,,,,,,,,,
,119238710566,CAB,3/12/2000,1,2023-03-15_20h26.02.349,OS3_Mult_verification,2022.2.4,Win32,60.04563468,,,,,,,,,,,,,,,,,,,,,,,,,,,,,,,,,,,,,82,0.8828,1,"[""8"",""2"",""return""]","[0.5342000000476901,0.6014999999999873,0.856700000047681]",,,,,,2,82,Audio/82.mp3,EGNER,0,1,1,1,1,,,,,,,,,,,,,,,,,,,,,,,,,,,,,,,,,,,,,,,,,,,,,,,,,,,,,,,,,,,,,,,,,,,,,,,,,,,,,,,,,,,,,,,,,,,,,,,,,,,,,,,,,,,,,,,,,,,,,,,
,119238710566,CAB,3/12/2000,1,2023-03-15_20h26.02.349,OS3_Mult_verification,2022.2.4,Win32,60.04563468,,,,,,,,,,,,,,,,,,,,,,,,,,,,,,,,,,,,,,,,,,,,,,,,,,,,,,,,0,0,0,0,1,digitSpan_stim/twoAudio.xlsx,,,,,,,,,,,,,,,,,,,,,,,,,,,,,,,,,,,,,,,,,,,,,,,,,,,,,,,,,,,,,,,,,,,,,,,,,,,,,,,,,,,,,,,,,,,,,,,,,,,,,,,,,,,,,,,,,
,119238710566,CAB,3/12/2000,1,2023-03-15_20h26.02.349,OS3_Mult_verification,2022.2.4,Win32,60.04563468,,,,,,,,,,,,,,,,,,,,,,,,,,,,,,,,,,,,,157,1.0319,1,"[""1"",""5"",""7"",""return""]","[0.6140000000000327,0.6996999999284981,0.7901000000238696,1.007899999976189]",,,,,,3,157,Audio/157.mp3,EGNER,0,0,0,0,1,,,,,,,,,,,,,,,,,,,,,,,,,,,,,,,,,,,,,,,,,,,,,,,,,,,,,,,,,,,,,,,,,,,,,,,,,,,,,,,,,,,,,,,,,,,,,,,,,,,,,,,,,,,,,,,,,,,,,,,
,119238710566,CAB,3/12/2000,1,2023-03-15_20h26.02.349,OS3_Mult_verification,2022.2.4,Win32,60.04563468,,,,,,,,,,,,,,,,,,,,,,,,,,,,,,,,,,,,,397,0.8995,1,"[""3"",""9"",""7"",""return""]","[0.40829999995230537,0.5218999999761422,0.7492999999523136,0.869199999928469]",,,,,,3,397,Audio/397.mp3,EGNER,0,1,1,1,1,,,,,,,,,,,,,,,,,,,,,,,,,,,,,,,,,,,,,,,,,,,,,,,,,,,,,,,,,,,,,,,,,,,,,,,,,,,,,,,,,,,,,,,,,,,,,,,,,,,,,,,,,,,,,,,,,,,,,,,
,119238710566,CAB,3/12/2000,1,2023-03-15_20h26.02.349,OS3_Mult_verification,2022.2.4,Win32,60.04563468,,,,,,,,,,,,,,,,,,,,,,,,,,,,,,,,,,,,,,,,,,,,,,,,,,,,,,,,0,1,1,1,1,digitSpan_stim/threeAudio.xlsx,,,,,,,,,,,,,,,,,,,,,,,,,,,,,,,,,,,,,,,,,,,,,,,,,,,,,,,,,,,,,,,,,,,,,,,,,,,,,,,,,,,,,,,,,,,,,,,,,,,,,,,,,,,,,,,,,
,119238710566,CAB,3/12/2000,1,2023-03-15_20h26.02.349,OS3_Mult_verification,2022.2.4,Win32,60.04563468,,,,,,,,,,,,,,,,,,,,,,,,,,,,,,,,,,,,,6352,1.5156,1,"[""6"",""3"",""5"",""2"",""return""]","[0.8315999999046539,0.9705000000000155,1.067699999928493,1.1920999999046558,1.482500000000016]",,,,,,4,6352,Audio/6352.mp3,EGNER,0,0,0,0,1,,,,,,,,,,,,,,,,,,,,,,,,,,,,,,,,,,,,,,,,,,,,,,,,,,,,,,,,,,,,,,,,,,,,,,,,,,,,,,,,,,,,,,,,,,,,,,,,,,,,,,,,,,,,,,,,,,,,,,,
,119238710566,CAB,3/12/2000,1,2023-03-15_20h26.02.349,OS3_Mult_verification,2022.2.4,Win32,60.04563468,,,,,,,,,,,,,,,,,,,,,,,,,,,,,,,,,,,,,9184,1.0817,1,"[""9"",""1"",""8"",""4"",""return""]","[0.5548999999761577,0.6551000000238787,0.7871000000238837,0.924000000000035,1.049000000000035]",,,,,,4,9184,Audio/9184.mp3,EGNER,0,1,1,1,1,,,,,,,,,,,,,,,,,,,,,,,,,,,,,,,,,,,,,,,,,,,,,,,,,,,,,,,,,,,,,,,,,,,,,,,,,,,,,,,,,,,,,,,,,,,,,,,,,,,,,,,,,,,,,,,,,,,,,,,
,119238710566,CAB,3/12/2000,1,2023-03-15_20h26.02.349,OS3_Mult_verification,2022.2.4,Win32,60.04563468,,,,,,,,,,,,,,,,,,,,,,,,,,,,,,,,,,,,,,,,,,,,,,,,,,,,,,,,0,2,2,2,1,digitSpan_stim/fourAudio.xlsx,,,,,,,,,,,,,,,,,,,,,,,,,,,,,,,,,,,,,,,,,,,,,,,,,,,,,,,,,,,,,,,,,,,,,,,,,,,,,,,,,,,,,,,,,,,,,,,,,,,,,,,,,,,,,,,,,
,119238710566,CAB,3/12/2000,1,2023-03-15_20h26.02.349,OS3_Mult_verification,2022.2.4,Win32,60.04563468,,,,,,,,,,,,,,,,,,,,,,,,,,,,,,,,,,,,,59281,1.8154,1,"[""5"",""9"",""2"",""8"",""1"",""return""]","[0.5193999999762013,0.705799999952319,1.4235999999046385,1.5172999999523427,1.61489999997616,1.7875000000000227]",,,,,,5,59281,Audio/59281.mp3,EGNER,0,0,0,0,1,,,,,,,,,,,,,,,,,,,,,,,,,,,,,,,,,,,,,,,,,,,,,,,,,,,,,,,,,,,,,,,,,,,,,,,,,,,,,,,,,,,,,,,,,,,,,,,,,,,,,,,,,,,,,,,,,,,,,,,
,119238710566,CAB,3/12/2000,1,2023-03-15_20h26.02.349,OS3_Mult_verification,2022.2.4,Win32,60.04563468,,,,,,,,,,,,,,,,,,,,,,,,,,,,,,,,,,,,,64738,1.6654,1,"[""6"",""4"",""7"",""3"",""8"",""return""]","[0.7327999999523627,0.8174999999999955,0.9543999999762036,1.1475000000000364,1.285000000000025,1.636799999952359]",,,,,,5,64738,Audio/64738.mp3,EGNER,0,1,1,1,1,,,,,,,,,,,,,,,,,,,,,,,,,,,,,,,,,,,,,,,,,,,,,,,,,,,,,,,,,,,,,,,,,,,,,,,,,,,,,,,,,,,,,,,,,,,,,,,,,,,,,,,,,,,,,,,,,,,,,,,
,119238710566,CAB,3/12/2000,1,2023-03-15_20h26.02.349,OS3_Mult_verification,2022.2.4,Win32,60.04563468,,,,,,,,,,,,,,,,,,,,,,,,,,,,,,,,,,,,,,,,,,,,,,,,,,,,,,,,0,3,3,3,1,digitSpan_stim/fiveAudio.xlsx,,,,,,,,,,,,,,,,,,,,,,,,,,,,,,,,,,,,,,,,,,,,,,,,,,,,,,,,,,,,,,,,,,,,,,,,,,,,,,,,,,,,,,,,,,,,,,,,,,,,,,,,,,,,,,,,,
,119238710566,CAB,3/12/2000,1,2023-03-15_20h26.02.349,OS3_Mult_verification,2022.2.4,Win32,60.04563468,,,,,,,,,,,,,,,,,,,,,,,,,,,,,,,,,,,,,396172,1.8825,1,"[""3"",""9"",""6"",""1"",""7"",""2"",""return""]","[0.5240999999045926,0.6579999999999586,0.9568999999761445,1.3979999999999677,1.514399999976149,1.6485999999046044,1.8479999999999563]",,,,,,6,396172,Audio/396172.mp3,EGNER,0,0,0,0,1,,,,,,,,,,,,,,,,,,,,,,,,,,,,,,,,,,,,,,,,,,,,,,,,,,,,,,,,,,,,,,,,,,,,,,,,,,,,,,,,,,,,,,,,,,,,,,,,,,,,,,,,,,,,,,,,,,,,,,,
,119238710566,CAB,3/12/2000,1,2023-03-15_20h26.02.349,OS3_Mult_verification,2022.2.4,Win32,60.04563468,,,,,,,,,,,,,,,,,,,,,,,,,,,,,,,,,,,,,594631,2.1154,1,"[""5"",""9"",""4"",""6"",""3"",""1"",""return""]","[0.8912999999523095,1.0812999999523072,1.2527999999523445,1.4890999999046244,1.6810999999046317,1.8496999999284753,2.091299999952355]",,,,,,6,594631,Audio/594631.mp3,EGNER,0,1,1,1,1,,,,,,,,,,,,,,,,,,,,,,,,,,,,,,,,,,,,,,,,,,,,,,,,,,,,,,,,,,,,,,,,,,,,,,,,,,,,,,,,,,,,,,,,,,,,,,,,,,,,,,,,,,,,,,,,,,,,,,,
,119238710566,CAB,3/12/2000,1,2023-03-15_20h26.02.349,OS3_Mult_verification,2022.2.4,Win32,60.04563468,,,,,,,,,,,,,,,,,,,,,,,,,,,,,,,,,,,,,,,,,,,,,,,,,,,,,,,,0,4,4,4,1,digitSpan_stim/sixAudio.xlsx,,,,,,,,,,,,,,,,,,,,,,,,,,,,,,,,,,,,,,,,,,,,,,,,,,,,,,,,,,,,,,,,,,,,,,,,,,,,,,,,,,,,,,,,,,,,,,,,,,,,,,,,,,,,,,,,,
,119238710566,CAB,3/12/2000,1,2023-03-15_20h26.02.349,OS3_Mult_verification,2022.2.4,Win32,60.04563468,,,,,,,,,,,,,,,,,,,,,,,,,,,,,,,,,,,,,8241973,4.347,1,"[""8"",""2"",""4"",""1"",""9"",""7"",""3"",""return""]","[1.7496999999285094,2.2475000000000023,2.4521000000238473,2.814699999928507,3.2147999999523336,3.5504999999999995,3.9536000000238687,4.3145000000000095]",,,,,,7,8241973,Audio/8241973.mp3,EGNER,0,0,0,0,1,,,,,,,,,,,,,,,,,,,,,,,,,,,,,,,,,,,,,,,,,,,,,,,,,,,,,,,,,,,,,,,,,,,,,,,,,,,,,,,,,,,,,,,,,,,,,,,,,,,,,,,,,,,,,,,,,,,,,,,
,119238710566,CAB,3/12/2000,1,2023-03-15_20h26.02.349,OS3_Mult_verification,2022.2.4,Win32,60.04563468,,,,,,,,,,,,,,,,,,,,,,,,,,,,,,,,,,,,,2814367,5.6637,1,"[""2"",""8"",""1"",""4"",""3"",""6"",""7"",""return""]","[1.3312999999523072,1.5824999999999818,1.8480000000000132,2.2243999999761286,2.531000000000006,2.708399999976166,2.885499999999979,5.632100000023854]",,,,,,7,2814367,Audio/2814367.mp3,EGNER,0,1,1,1,1,,,,,,,,,,,,,,,,,,,,,,,,,,,,,,,,,,,,,,,,,,,,,,,,,,,,,,,,,,,,,,,,,,,,,,,,,,,,,,,,,,,,,,,,,,,,,,,,,,,,,,,,,,,,,,,,,,,,,,,
,119238710566,CAB,3/12/2000,1,2023-03-15_20h26.02.349,OS3_Mult_verification,2022.2.4,Win32,60.04563468,,,,,,,,,,,,,,,,,,,,,,,,,,,,,,,,,,,,,,,,,,,,,,,,,,,,,,,,0,5,5,5,1,digitSpan_stim/sevenAudio.xlsx,,,,,,,,,,,,,,,,,,,,,,,,,,,,,,,,,,,,,,,,,,,,,,,,,,,,,,,,,,,,,,,,,,,,,,,,,,,,,,,,,,,,,,,,,,,,,,,,,,,,,,,,,,,,,,,,,
,119238710566,CAB,3/12/2000,1,2023-03-15_20h26.02.349,OS3_Mult_verification,2022.2.4,Win32,60.04563468,,,,,,,,,,,,,,,,,,,,,,,,,,,,,,,,,,,,,53927184,7.0136,0,"[""5"",""3"",""9"",""2"",""7"",""1"",""8"",""4"",""return""]","[0.4176000000238673,0.5863000000715601,1.0316000000238432,1.5836000000238641,2.11460000002387,2.330500000000029,5.051500000000033,5.24550000000005,6.9806000000238555]",,,,,,8,53827164,Audio/53827164.mp3,EGNER,0,0,0,0,1,,,,,,,,,,,,,,,,,,,,,,,,,,,,,,,,,,,,,,,,,,,,,,,,,,,,,,,,,,,,,,,,,,,,,,,,,,,,,,,,,,,,,,,,,,,,,,,,,,,,,,,,,,,,,,,,,,,,,,,
,119238710566,CAB,3/12/2000,1,2023-03-15_20h26.02.349,OS3_Mult_verification,2022.2.4,Win32,60.04563468,,,,,,,,,,,,,,,,,,,,,,,,,,,,,,,,,,,,,75241739,3.3314,1,"[""7"",""5"",""2"",""4"",""1"",""7"",""3"",""9"",""return""]","[0.8241000000238614,1.2646000000238473,1.8499000000953743,2.000100000023849,2.430200000047705,2.570900000095378,2.8054000000954034,3.0060000000000286,3.300900000095396]",,,,,,8,75241739,Audio/75241739.mp3,EGNER,0,1,1,1,1,,,,,,,,,,,,,,,,,,,,,,,,,,,,,,,,,,,,,,,,,,,,,,,,,,,,,,,,,,,,,,,,,,,,,,,,,,,,,,,,,,,,,,,,,,,,,,,,,,,,,,,,,,,,,,,,,,,,,,,
,119238710566,CAB,3/12/2000,1,2023-03-15_20h26.02.349,OS3_Mult_verification,2022.2.4,Win32,60.04563468,,,,,,,,,,,,,,,,,,,,,,,,,,,,,,,,,,,,,,,,,,,,,,,,,,,,,,,,0,6,6,6,1,digitSpan_stim/eightAudio.xlsx,,,,,,,,,,,,,,,,,,,,,,,,,,,,,,,,,,,,,,,,,,,,,,,,,,,,,,,,,,,,,,,,,,,,,,,,,,,,,,,,,,,,,,,,,,,,,,,,,,,,,,,,,,,,,,,,,
,119238710566,CAB,3/12/2000,1,2023-03-15_20h26.02.349,OS3_Mult_verification,2022.2.4,Win32,60.04563468,,,,,,,,,,,,,,,,,,,,,,,,,,,,,,,,,,,,,68359416,5.663,0,"[""6"",""8"",""3"",""5"",""9"",""4"",""1"",""6"",""return""]","[1.7697999999522835,2.456199999928458,3.036699999928487,3.205799999952319,4.298999999999978,4.501399999976115,4.93809999990458,5.2661999999284035,5.630599999904575]",,,,,,9,682594316,Audio/682594316.mp3,EGNER,0,0,0,0,1,,,,,,,,,,,,,,,,,,,,,,,,,,,,,,,,,,,,,,,,,,,,,,,,,,,,,,,,,,,,,,,,,,,,,,,,,,,,,,,,,,,,,,,,,,,,,,,,,,,,,,,,,,,,,,,,,,,,,,,
,119238710566,CAB,3/12/2000,1,2023-03-15_20h26.02.349,OS3_Mult_verification,2022.2.4,Win32,60.04563468,,,,,,,,,,,,,,,,,,,,,,,,,,,,,,,,,,,,,142963758,4.847,1,"[""1"",""4"",""2"",""9"",""6"",""3"",""7"",""5"",""8"",""return""]","[1.519599999904699,1.7526999999284953,2.2916999999284826,2.580799999952319,2.9322999999523063,3.6175000000000637,3.772299999952338,4.415199999928518,4.496199999928535,4.816299999952321]",,,,,,9,142963758,Audio/142963758.mp3,EGNER,0,1,1,1,1,,,,,,,,,,,,,,,,,,,,,,,,,,,,,,,,,,,,,,,,,,,,,,,,,,,,,,,,,,,,,,,,,,,,,,,,,,,,,,,,,,,,,,,,,,,,,,,,,,,,,,,,,,,,,,,,,,,,,,,
,119238710566,CAB,3/12/2000,1,2023-03-15_20h26.02.349,OS3_Mult_verification,2022.2.4,Win32,60.04563468,,,,,,,,,,,,,,,,,,,,,,,,,,,,,,,,,,,,,,,,,,,,,,,,,,,,,,,,0,7,7,7,1,digitSpan_stim/nineAudio.xlsx,,,,,,,,,,,,,,,,,,,,,,,,,,,,,,,,,,,,,,,,,,,,,,,,,,,,,,,,,,,,,,,,,,,,,,,,,,,,,,,,,,,,,,,,,,,,,,,,,,,,,,,,,,,,,,,,,
,119238710566,CAB,3/12/2000,1,2023-03-15_20h26.02.349,OS3_Mult_verification,2022.2.4,Win32,60.04563468,,,,,,,,,,,,,,,,,,,,,,,,,,,,,,,,,,,,,,,,,,,,,,,Egner,,,,,,,,,,,,,,,0,0,0,0,1,digitSpan_stim/Egner.xlsx,,,,,,,,,,,,,,,,,,,,,,,,,,,,,,,,,,,,,,,,,,,,,,,,,,,,,,,,,,,,,,,,,,,,,,,,,,,,,,,,,,,,,,,,,,,,,,,,,,,,,,,,,,,
,119238710566,CAB,3/12/2000,1,2023-03-15_20h26.02.349,OS3_Mult_verification,2022.2.4,Win32,60.04563468,,,,,,,,,,,,,,,,,,,,,,,,,,,,,,,,,,,,,97,1.3324,1,"[""9"",""7"",""return""]","[0.8562000000476928,0.9517000000477083,1.2979000000954102]",,,,,,2,97,Audio/97.mp3,WAIS,0,0,0,0,1,,,,,,,,,,,,,,,,,,,,,,,,,,,,,,,,,,,,,,,,,,,,,,,,,,,,,,,,,,,,,,,,,,,,,,,,,,,,,,,,,,,,,,,,,,,,,,,,,,,,,,,,,,,,,,,,,,,,,,,
,119238710566,CAB,3/12/2000,1,2023-03-15_20h26.02.349,OS3_Mult_verification,2022.2.4,Win32,60.04563468,,,,,,,,,,,,,,,,,,,,,,,,,,,,,,,,,,,,,63,0.9825,1,"[""6"",""3"",""return""]","[0.25079999995239177,0.4342999999523727,0.9530000000000882]",,,,,,2,63,Audio/63.mp3,WAIS,0,1,1,1,1,,,,,,,,,,,,,,,,,,,,,,,,,,,,,,,,,,,,,,,,,,,,,,,,,,,,,,,,,,,,,,,,,,,,,,,,,,,,,,,,,,,,,,,,,,,,,,,,,,,,,,,,,,,,,,,,,,,,,,,
,119238710566,CAB,3/12/2000,1,2023-03-15_20h26.02.349,OS3_Mult_verification,2022.2.4,Win32,60.04563468,,,,,,,,,,,,,,,,,,,,,,,,,,,,,,,,,,,,,,,,,,,,,,,,,,,,,,,,0,0,0,0,1,digitSpan_stim/twoWAIS.xlsx,,,,,,,,,,,,,,,,,,,,,,,,,,,,,,,,,,,,,,,,,,,,,,,,,,,,,,,,,,,,,,,,,,,,,,,,,,,,,,,,,,,,,,,,,,,,,,,,,,,,,,,,,,,,,,,,,
,119238710566,CAB,3/12/2000,1,2023-03-15_20h26.02.349,OS3_Mult_verification,2022.2.4,Win32,60.04563468,,,,,,,,,,,,,,,,,,,,,,,,,,,,,,,,,,,,,582,1.0655,1,"[""5"",""8"",""2"",""return""]","[0.07110000002376182,0.6194999999999027,0.8687000000476246,1.0332000000476]",,,,,,3,582,Audio/582.mp3,WAIS,0,0,0,0,1,,,,,,,,,,,,,,,,,,,,,,,,,,,,,,,,,,,,,,,,,,,,,,,,,,,,,,,,,,,,,,,,,,,,,,,,,,,,,,,,,,,,,,,,,,,,,,,,,,,,,,,,,,,,,,,,,,,,,,,
,119238710566,CAB,3/12/2000,1,2023-03-15_20h26.02.349,OS3_Mult_verification,2022.2.4,Win32,60.04563468,,,,,,,,,,,,,,,,,,,,,,,,,,,,,,,,,,,,,694,1.3655,1,"[""6"",""9"",""4"",""return""]","[0.5182000000477274,1.0217000000476446,1.231300000071542,1.335800000071572]",,,,,,3,694,Audio/694.mp3,WAIS,0,1,1,1,1,,,,,,,,,,,,,,,,,,,,,,,,,,,,,,,,,,,,,,,,,,,,,,,,,,,,,,,,,,,,,,,,,,,,,,,,,,,,,,,,,,,,,,,,,,,,,,,,,,,,,,,,,,,,,,,,,,,,,,,
,119238710566,CAB,3/12/2000,1,2023-03-15_20h26.02.349,OS3_Mult_verification,2022.2.4,Win32,60.04563468,,,,,,,,,,,,,,,,,,,,,,,,,,,,,,,,,,,,,,,,,,,,,,,,,,,,,,,,0,1,1,1,1,digitSpan_stim/threeWAIS.xlsx,,,,,,,,,,,,,,,,,,,,,,,,,,,,,,,,,,,,,,,,,,,,,,,,,,,,,,,,,,,,,,,,,,,,,,,,,,,,,,,,,,,,,,,,,,,,,,,,,,,,,,,,,,,,,,,,,
,119238710566,CAB,3/12/2000,1,2023-03-15_20h26.02.349,OS3_Mult_verification,2022.2.4,Win32,60.04563468,,,,,,,,,,,,,,,,,,,,,,,,,,,,,,,,,,,,,7286,1.2993,1,"[""7"",""2"",""8"",""6"",""return""]","[0.6341000000238637,0.7543000000715665,0.9358000000715947,1.0810000000000173,1.2644999999999982]",,,,,,4,7286,Audio/7286.mp3,WAIS,0,0,0,0,1,,,,,,,,,,,,,,,,,,,,,,,,,,,,,,,,,,,,,,,,,,,,,,,,,,,,,,,,,,,,,,,,,,,,,,,,,,,,,,,,,,,,,,,,,,,,,,,,,,,,,,,,,,,,,,,,,,,,,,,
,119238710566,CAB,3/12/2000,1,2023-03-15_20h26.02.349,OS3_Mult_verification,2022.2.4,Win32,60.04563468,,,,,,,,,,,,,,,,,,,,,,,,,,,,,,,,,,,,,6439,2.2488,1,"[""6"",""4"",""3"",""8"",""backspace"",""9"",""return""]","[0.4884999999999309,0.6389000000953047,0.8524999999999636,1.0233000000714583,1.68360000002383,1.9892000000476173,2.224200000047631]",,,,,,4,6439,Audio/6439.mp3,WAIS,0,1,1,1,1,,,,,,,,,,,,,,,,,,,,,,,,,,,,,,,,,,,,,,,,,,,,,,,,,,,,,,,,,,,,,,,,,,,,,,,,,,,,,,,,,,,,,,,,,,,,,,,,,,,,,,,,,,,,,,,,,,,,,,,
,119238710566,CAB,3/12/2000,1,2023-03-15_20h26.02.349,OS3_Mult_verification,2022.2.4,Win32,60.04563468,,,,,,,,,,,,,,,,,,,,,,,,,,,,,,,,,,,,,,,,,,,,,,,,,,,,,,,,0,2,2,2,1,digitSpan_stim/fourWAIS.xlsx,,,,,,,,,,,,,,,,,,,,,,,,,,,,,,,,,,,,,,,,,,,,,,,,,,,,,,,,,,,,,,,,,,,,,,,,,,,,,,,,,,,,,,,,,,,,,,,,,,,,,,,,,,,,,,,,,
,119238710566,CAB,3/12/2000,1,2023-03-15_20h26.02.349,OS3_Mult_verification,2022.2.4,Win32,60.04563468,,,,,,,,,,,,,,,,,,,,,,,,,,,,,,,,,,,,,42731,1.849,1,"[""4"",""2"",""7"",""3"",""1"",""return""]","[0.4574999999999818,0.6529999999999063,1.3497999999523245,1.4987999999523254,1.6386000000237573,1.8173999999761463]",,,,,,5,42731,Audio/42731.mp3,WAIS,0,0,0,0,1,,,,,,,,,,,,,,,,,,,,,,,,,,,,,,,,,,,,,,,,,,,,,,,,,,,,,,,,,,,,,,,,,,,,,,,,,,,,,,,,,,,,,,,,,,,,,,,,,,,,,,,,,,,,,,,,,,,,,,,
,119238710566,CAB,3/12/2000,1,2023-03-15_20h26.02.349,OS3_Mult_verification,2022.2.4,Win32,60.04563468,,,,,,,,,,,,,,,,,,,,,,,,,,,,,,,,,,,,,75836,2.4655,1,"[""7"",""5"",""8"",""3"",""6"",""return""]","[0.5256999999284062,0.742899999976089,1.3524999999999636,1.615699999928438,1.6998999999760827,2.430899999976191]",,,,,,5,75836,Audio/75836.mp3,WAIS,0,1,1,1,1,,,,,,,,,,,,,,,,,,,,,,,,,,,,,,,,,,,,,,,,,,,,,,,,,,,,,,,,,,,,,,,,,,,,,,,,,,,,,,,,,,,,,,,,,,,,,,,,,,,,,,,,,,,,,,,,,,,,,,,
,119238710566,CAB,3/12/2000,1,2023-03-15_20h26.02.349,OS3_Mult_verification,2022.2.4,Win32,60.04563468,,,,,,,,,,,,,,,,,,,,,,,,,,,,,,,,,,,,,,,,,,,,,,,,,,,,,,,,0,3,3,3,1,digitSpan_stim/fiveWAIS.xlsx,,,,,,,,,,,,,,,,,,,,,,,,,,,,,,,,,,,,,,,,,,,,,,,,,,,,,,,,,,,,,,,,,,,,,,,,,,,,,,,,,,,,,,,,,,,,,,,,,,,,,,,,,,,,,,,,,
,119238710566,CAB,3/12/2000,1,2023-03-15_20h26.02.349,OS3_Mult_verification,2022.2.4,Win32,60.04563468,,,,,,,,,,,,,,,,,,,,,,,,,,,,,,,,,,,,,392487,2.315,1,"[""3"",""9"",""2"",""4"",""8"",""7"",""return""]","[0.8071999999284571,0.9833999999762,1.2177999999522626,1.5406999999285063,1.792399999976169,1.9538999999761018,2.2833999999761545]",,,,,,6,392487,Audio/392487.mp3,WAIS,0,0,0,0,1,,,,,,,,,,,,,,,,,,,,,,,,,,,,,,,,,,,,,,,,,,,,,,,,,,,,,,,,,,,,,,,,,,,,,,,,,,,,,,,,,,,,,,,,,,,,,,,,,,,,,,,,,,,,,,,,,,,,,,,
,119238710566,CAB,3/12/2000,1,2023-03-15_20h26.02.349,OS3_Mult_verification,2022.2.4,Win32,60.04563468,,,,,,,,,,,,,,,,,,,,,,,,,,,,,,,,,,,,,619473,2.9821,1,"[""6"",""1"",""9"",""4"",""7"",""3"",""return""]","[0.7839000000954002,1.4495000000000573,1.6358000000715265,1.9901000000238582,2.118100000023901,2.2690000000000055,2.9484999999999673]",,,,,,6,619473,Audio/619473.mp3,WAIS,0,1,1,1,1,,,,,,,,,,,,,,,,,,,,,,,,,,,,,,,,,,,,,,,,,,,,,,,,,,,,,,,,,,,,,,,,,,,,,,,,,,,,,,,,,,,,,,,,,,,,,,,,,,,,,,,,,,,,,,,,,,,,,,,
,119238710566,CAB,3/12/2000,1,2023-03-15_20h26.02.349,OS3_Mult_verification,2022.2.4,Win32,60.04563468,,,,,,,,,,,,,,,,,,,,,,,,,,,,,,,,,,,,,,,,,,,,,,,,,,,,,,,,0,4,4,4,1,digitSpan_stim/sixWAIS.xlsx,,,,,,,,,,,,,,,,,,,,,,,,,,,,,,,,,,,,,,,,,,,,,,,,,,,,,,,,,,,,,,,,,,,,,,,,,,,,,,,,,,,,,,,,,,,,,,,,,,,,,,,,,,,,,,,,,
,119238710566,CAB,3/12/2000,1,2023-03-15_20h26.02.349,OS3_Mult_verification,2022.2.4,Win32,60.04563468,,,,,,,,,,,,,,,,,,,,,,,,,,,,,,,,,,,,,6917428,4.0639,1,"[""6"",""9"",""1"",""7"",""4"",""2"",""8"",""return""]","[1.3002999999523581,1.7644999999999982,2.022699999928477,2.2893999999761263,2.784899999976119,3.1832999999522826,3.4052999999522626,4.036399999976197]",,,,,,7,6917428,Audio/6917428.mp3,WAIS,0,0,0,0,1,,,,,,,,,,,,,,,,,,,,,,,,,,,,,,,,,,,,,,,,,,,,,,,,,,,,,,,,,,,,,,,,,,,,,,,,,,,,,,,,,,,,,,,,,,,,,,,,,,,,,,,,,,,,,,,,,,,,,,,
,119238710566,CAB,3/12/2000,1,2023-03-15_20h26.02.349,OS3_Mult_verification,2022.2.4,Win32,60.04563468,,,,,,,,,,,,,,,,,,,,,,,,,,,,,,,,,,,,,4179386,3.2315,1,"[""4"",""1"",""7"",""9"",""3"",""8"",""6"",""return""]","[0.5843000000714937,1.0512000000476291,1.2209000000952983,1.6989000000953638,2.0676000000238446,2.684900000095354,2.800400000095351,3.203200000047673]",,,,,,7,4179386,Audio/4179386.mp3,WAIS,0,1,1,1,1,,,,,,,,,,,,,,,,,,,,,,,,,,,,,,,,,,,,,,,,,,,,,,,,,,,,,,,,,,,,,,,,,,,,,,,,,,,,,,,,,,,,,,,,,,,,,,,,,,,,,,,,,,,,,,,,,,,,,,,
,119238710566,CAB,3/12/2000,1,2023-03-15_20h26.02.349,OS3_Mult_verification,2022.2.4,Win32,60.04563468,,,,,,,,,,,,,,,,,,,,,,,,,,,,,,,,,,,,,,,,,,,,,,,,,,,,,,,,0,5,5,5,1,digitSpan_stim/sevenWAIS.xlsx,,,,,,,,,,,,,,,,,,,,,,,,,,,,,,,,,,,,,,,,,,,,,,,,,,,,,,,,,,,,,,,,,,,,,,,,,,,,,,,,,,,,,,,,,,,,,,,,,,,,,,,,,,,,,,,,,
,119238710566,CAB,3/12/2000,1,2023-03-15_20h26.02.349,OS3_Mult_verification,2022.2.4,Win32,60.04563468,,,,,,,,,,,,,,,,,,,,,,,,,,,,,,,,,,,,,38296174,6.2971,1,"[""3"",""8"",""2"",""9"",""6"",""1"",""7"",""4"",""return""]","[1.7481000000238964,2.2210000000000036,2.830500000000029,3.1154999999999973,3.657000000000039,4.071700000047713,4.386300000071628,4.63250000000005,6.266700000047763]",,,,,,8,38296174,Audio/38296174.mp3,WAIS,0,0,0,0,1,,,,,,,,,,,,,,,,,,,,,,,,,,,,,,,,,,,,,,,,,,,,,,,,,,,,,,,,,,,,,,,,,,,,,,,,,,,,,,,,,,,,,,,,,,,,,,,,,,,,,,,,,,,,,,,,,,,,,,,
,119238710566,CAB,3/12/2000,1,2023-03-15_20h26.02.349,OS3_Mult_verification,2022.2.4,Win32,60.04563468,,,,,,,,,,,,,,,,,,,,,,,,,,,,,,,,,,,,,5813247,12.461,0,"[""5"",""8"",""1"",""3"",""2"",""4"",""7"",""return""]","[6.752100000023802,7.263200000047732,8.58299999999997,9.183200000047691,10.202899999976125,10.551899999976172,10.677899999976148,12.434999999999945]",,,,,,8,58132647,Audio/58132647.mp3,WAIS,0,1,1,1,1,,,,,,,,,,,,,,,,,,,,,,,,,,,,,,,,,,,,,,,,,,,,,,,,,,,,,,,,,,,,,,,,,,,,,,,,,,,,,,,,,,,,,,,,,,,,,,,,,,,,,,,,,,,,,,,,,,,,,,,
,119238710566,CAB,3/12/2000,1,2023-03-15_20h26.02.349,OS3_Mult_verification,2022.2.4,Win32,60.04563468,,,,,,,,,,,,,,,,,,,,,,,,,,,,,,,,,,,,,,,,,,,,,,,,,,,,,,,,0,6,6,6,1,digitSpan_stim/eightWAIS.xlsx,,,,,,,,,,,,,,,,,,,,,,,,,,,,,,,,,,,,,,,,,,,,,,,,,,,,,,,,,,,,,,,,,,,,,,,,,,,,,,,,,,,,,,,,,,,,,,,,,,,,,,,,,,,,,,,,,
,119238710566,CAB,3/12/2000,1,2023-03-15_20h26.02.349,OS3_Mult_verification,2022.2.4,Win32,60.04563468,,,,,,,,,,,,,,,,,,,,,,,,,,,,,,,,,,,,,275863194,9.5623,1,"[""2"",""7"",""5"",""8"",""6"",""3"",""1"",""9"",""4"",""return""]","[4.596499999999992,4.735799999952292,5.0154999999999745,5.132200000047646,5.324700000047642,8.601299999952289,8.713499999999954,9.296399999976188,9.378200000047627,9.53439999997613]",,,,,,9,275863194,Audio/275863194.mp3,WAIS,0,0,0,0,1,,,,,,,,,,,,,,,,,,,,,,,,,,,,,,,,,,,,,,,,,,,,,,,,,,,,,,,,,,,,,,,,,,,,,,,,,,,,,,,,,,,,,,,,,,,,,,,,,,,,,,,,,,,,,,,,,,,,,,,
,119238710566,CAB,3/12/2000,1,2023-03-15_20h26.02.349,OS3_Mult_verification,2022.2.4,Win32,60.04563468,,,,,,,,,,,,,,,,,,,,,,,,,,,,,,,,,,,,,713942568,10.978,1,"[""7"",""1"",""3"",""9"",""4"",""2"",""5"",""6"",""8"",""return""]","[3.4839999999999236,3.58920000004764,4.299200000047676,4.456300000071451,4.934600000023806,5.380600000023833,5.7817000000476355,5.950700000047618,6.354399999976067,10.944399999976099]",,,,,,9,713942568,Audio/713942568.mp3,WAIS,0,1,1,1,1,,,,,,,,,,,,,,,,,,,,,,,,,,,,,,,,,,,,,,,,,,,,,,,,,,,,,,,,,,,,,,,,,,,,,,,,,,,,,,,,,,,,,,,,,,,,,,,,,,,,,,,,,,,,,,,,,,,,,,,
,119238710566,CAB,3/12/2000,1,2023-03-15_20h26.02.349,OS3_Mult_verification,2022.2.4,Win32,60.04563468,,,,,,,,,,,,,,,,,,,,,,,,,,,,,,,,,,,,,,,,,,,,,,,,,,,,,,,,0,7,7,7,1,digitSpan_stim/nineWAIS.xlsx,,,,,,,,,,,,,,,,,,,,,,,,,,,,,,,,,,,,,,,,,,,,,,,,,,,,,,,,,,,,,,,,,,,,,,,,,,,,,,,,,,,,,,,,,,,,,,,,,,,,,,,,,,,,,,,,,
,119238710566,CAB,3/12/2000,1,2023-03-15_20h26.02.349,OS3_Mult_verification,2022.2.4,Win32,60.04563468,,,,,,,,,,,,,,,,,,,,,,,,,,,,,,,,,,,,,,,,,,,,,,,WAIS,,,,,,,,,,,,,,,0,1,1,1,1,digitSpan_stim/WAIS.xlsx,,,,,,,,,,,,,,,,,,,,,,,,,,,,,,,,,,,,,,,,,,,,,,,,,,,,,,,,,,,,,,,,,,,,,,,,,,,,,,,,,,,,,,,,,,,,,,,,,,,,,,,,,,,
,119238710566,CAB,3/12/2000,1,2023-03-15_20h26.02.349,OS3_Mult_verification,2022.2.4,Win32,60.04563468,,,,,,,,,,,,,,,,,,,,,,,,,,,,,,,,,,,,,,,,,,,,,,,,,,,,,,,,,,,,,,,,,,,,0,0,0,0,1,,,,,,,,,,,,,,,,,,,,,,,,,,,,,,,,,,,,,,,,,,,,,,,,,,,,,,,,,,,,,,,,,,,,,,,,,,,,,,,,,,,,,,,,,,,,,,,,,,,,,,
,119238710566,CAB,3/12/2000,1,2023-03-15_20h26.02.349,OS3_Mult_verification,2022.2.4,Win32,60.04563468,,,,,,,,,,,,,,,,,,,,,,,,,,,,,,,,,,,,,,,,,,,,,,,,,,,,,,,,,,,,,,,,,,,,,,,,,0,0,0,0,1,0,0,1,,,,,,,,,,,,,,,,,,,,,,,,,,,,,,,,,,,,,,,,,,,,,,,,,,,,,,,,,,,,,,,,,,,,,,,,,,,,,,,,,,,,,,,,,,,,,,
,119238710566,CAB,3/12/2000,1,2023-03-15_20h26.02.349,OS3_Mult_verification,2022.2.4,Win32,60.04563468,,,,,,,,,,,,,,,,space,1.0371,,,,,,,,,,,,,,,,,,,,,,,,,,,,,,,,,,,,,,,,,,,,,,,,,,,,,,,,,,,,,,,,right,1,0.6008,0,0,0,2,1,practice,9,9,9 | 9,0,0.05,0.065,neutral,right,,,,,,,,,,,,,,,,,,,,,,,,,,,,,,,,,,,,,,,,,,,,,,,,,,,,,,,,,,,,,,,,,,,,,,,,,,,,,
,119238710566,CAB,3/12/2000,1,2023-03-15_20h26.02.349,OS3_Mult_verification,2022.2.4,Win32,60.04563468,,,,,,,,,,,,,,,,,,,,,,,,,,,,,,,,,,,,,,,,,,,,,,,,,,,,,,,,,,,,,,,,,,,,,,,,,,,,,,,,,right,1,0.8171,0,1,1,1,1,practice,4,3,4 | 3,1,0.05,0.065,incongruent,right,,,,,,,,,,,,,,,,,,,,,,,,,,,,,,,,,,,,,,,,,,,,,,,,,,,,,,,,,,,,,,,,,,,,,,,,,,,,,
,119238710566,CAB,3/12/2000,1,2023-03-15_20h26.02.349,OS3_Mult_verification,2022.2.4,Win32,60.04563468,,,,,,,,,,,,,,,,,,,,,,,,,,,,,,,,,,,,,,,,,,,,,,,,,,,,,,,,,,,,,,,,,,,,,,,,,,,,,,,,,left,1,0.5424,0,2,2,0,1,practice,9,8,9 | 8,1,0.065,0.05,congruent,left,,,,,,,,,,,,,,,,,,,,,,,,,,,,,,,,,,,,,,,,,,,,,,,,,,,,,,,,,,,,,,,,,,,,,,,,,,,,,
,119238710566,CAB,3/12/2000,1,2023-03-15_20h26.02.349,OS3_Mult_verification,2022.2.4,Win32,60.04563468,,,,,,,,,,,,,,,,,,,,,,,,,,,,,,,,,,,,,,,,,,,,,,,,,,,,,,,,,,,,,,,,,,,,,,,,,,,,,,,,,left,1,0.6949,,,,,,physical,8,8,8 | 8,0,0.065,0.05,neutral,left,0,0,0,70,1,,,,,,,,,,,,,,,,,,,,,,,,,,,,,,,,,,,,,,,,,,,,,,,,,,,,,,,,,,,,,,,,,,,,,,,,
,119238710566,CAB,3/12/2000,1,2023-03-15_20h26.02.349,OS3_Mult_verification,2022.2.4,Win32,60.04563468,,,,,,,,,,,,,,,,,,,,,,,,,,,,,,,,,,,,,,,,,,,,,,,,,,,,,,,,,,,,,,,,,,,,,,,,,,,,,,,,,right,1,0.4967,,,,,,physical,1,6,1 | 6,5,0.05,0.065,congruent,right,0,1,1,16,1,,,,,,,,,,,,,,,,,,,,,,,,,,,,,,,,,,,,,,,,,,,,,,,,,,,,,,,,,,,,,,,,,,,,,,,,
,119238710566,CAB,3/12/2000,1,2023-03-15_20h26.02.349,OS3_Mult_verification,2022.2.4,Win32,60.04563468,,,,,,,,,,,,,,,,,,,,,,,,,,,,,,,,,,,,,,,,,,,,,,,,,,,,,,,,,,,,,,,,,,,,,,,,,,,,,,,,,right,1,0.5877,,,,,,physical,8,3,8 | 3,5,0.05,0.065,incongruent,right,0,2,2,46,1,,,,,,,,,,,,,,,,,,,,,,,,,,,,,,,,,,,,,,,,,,,,,,,,,,,,,,,,,,,,,,,,,,,,,,,,
,119238710566,CAB,3/12/2000,1,2023-03-15_20h26.02.349,OS3_Mult_verification,2022.2.4,Win32,60.04563468,,,,,,,,,,,,,,,,,,,,,,,,,,,,,,,,,,,,,,,,,,,,,,,,,,,,,,,,,,,,,,,,,,,,,,,,,,,,,,,,,right,1,0.4798,,,,,,physical,2,2,2 | 2,0,0.05,0.065,neutral,right,0,3,3,65,1,,,,,,,,,,,,,,,,,,,,,,,,,,,,,,,,,,,,,,,,,,,,,,,,,,,,,,,,,,,,,,,,,,,,,,,,
,119238710566,CAB,3/12/2000,1,2023-03-15_20h26.02.349,OS3_Mult_verification,2022.2.4,Win32,60.04563468,,,,,,,,,,,,,,,,,,,,,,,,,,,,,,,,,,,,,,,,,,,,,,,,,,,,,,,,,,,,,,,,,,,,,,,,,,,,,,,,,right,1,0.4643,,,,,,physical,3,4,3 | 4,1,0.05,0.065,congruent,right,0,4,4,1,1,,,,,,,,,,,,,,,,,,,,,,,,,,,,,,,,,,,,,,,,,,,,,,,,,,,,,,,,,,,,,,,,,,,,,,,,
,119238710566,CAB,3/12/2000,1,2023-03-15_20h26.02.349,OS3_Mult_verification,2022.2.4,Win32,60.04563468,,,,,,,,,,,,,,,,,,,,,,,,,,,,,,,,,,,,,,,,,,,,,,,,,,,,,,,,,,,,,,,,,,,,,,,,,,,,,,,,,left,1,0.461,,,,,,physical,8,8,8 | 8,0,0.065,0.05,neutral,left,0,5,5,51,1,,,,,,,,,,,,,,,,,,,,,,,,,,,,,,,,,,,,,,,,,,,,,,,,,,,,,,,,,,,,,,,,,,,,,,,,
,119238710566,CAB,3/12/2000,1,2023-03-15_20h26.02.349,OS3_Mult_verification,2022.2.4,Win32,60.04563468,,,,,,,,,,,,,,,,,,,,,,,,,,,,,,,,,,,,,,,,,,,,,,,,,,,,,,,,,,,,,,,,,,,,,,,,,,,,,,,,,right,1,0.448,,,,,,physical,7,7,7 | 7,0,0.05,0.065,neutral,right,0,6,6,59,1,,,,,,,,,,,,,,,,,,,,,,,,,,,,,,,,,,,,,,,,,,,,,,,,,,,,,,,,,,,,,,,,,,,,,,,,
,119238710566,CAB,3/12/2000,1,2023-03-15_20h26.02.349,OS3_Mult_verification,2022.2.4,Win32,60.04563468,,,,,,,,,,,,,,,,,,,,,,,,,,,,,,,,,,,,,,,,,,,,,,,,,,,,,,,,,,,,,,,,,,,,,,,,,,,,,,,,,right,1,0.5114,,,,,,physical,8,8,8 | 8,0,0.05,0.065,neutral,right,0,7,7,62,1,,,,,,,,,,,,,,,,,,,,,,,,,,,,,,,,,,,,,,,,,,,,,,,,,,,,,,,,,,,,,,,,,,,,,,,,
,119238710566,CAB,3/12/2000,1,2023-03-15_20h26.02.349,OS3_Mult_verification,2022.2.4,Win32,60.04563468,,,,,,,,,,,,,,,,,,,,,,,,,,,,,,,,,,,,,,,,,,,,,,,,,,,,,,,,,,,,,,,,,,,,,,,,,,,,,,,,,left,1,0.4768,,,,,,physical,4,2,4 | 2,2,0.065,0.05,congruent,left,0,8,8,13,1,,,,,,,,,,,,,,,,,,,,,,,,,,,,,,,,,,,,,,,,,,,,,,,,,,,,,,,,,,,,,,,,,,,,,,,,
,119238710566,CAB,3/12/2000,1,2023-03-15_20h26.02.349,OS3_Mult_verification,2022.2.4,Win32,60.04563468,,,,,,,,,,,,,,,,,,,,,,,,,,,,,,,,,,,,,,,,,,,,,,,,,,,,,,,,,,,,,,,,,,,,,,,,,,,,,,,,,right,1,0.5048,,,,,,physical,9,7,9 | 7,2,0.05,0.065,incongruent,right,0,9,9,39,1,,,,,,,,,,,,,,,,,,,,,,,,,,,,,,,,,,,,,,,,,,,,,,,,,,,,,,,,,,,,,,,,,,,,,,,,
,119238710566,CAB,3/12/2000,1,2023-03-15_20h26.02.349,OS3_Mult_verification,2022.2.4,Win32,60.04563468,,,,,,,,,,,,,,,,,,,,,,,,,,,,,,,,,,,,,,,,,,,,,,,,,,,,,,,,,,,,,,,,,,,,,,,,,,,,,,,,,left,1,0.4712,,,,,,physical,3,3,3 | 3,0,0.065,0.05,neutral,left,0,10,10,66,1,,,,,,,,,,,,,,,,,,,,,,,,,,,,,,,,,,,,,,,,,,,,,,,,,,,,,,,,,,,,,,,,,,,,,,,,
,119238710566,CAB,3/12/2000,1,2023-03-15_20h26.02.349,OS3_Mult_verification,2022.2.4,Win32,60.04563468,,,,,,,,,,,,,,,,,,,,,,,,,,,,,,,,,,,,,,,,,,,,,,,,,,,,,,,,,,,,,,,,,,,,,,,,,,,,,,,,,left,1,0.4885,,,,,,physical,6,6,6 | 6,0,0.065,0.05,neutral,left,0,11,11,68,1,,,,,,,,,,,,,,,,,,,,,,,,,,,,,,,,,,,,,,,,,,,,,,,,,,,,,,,,,,,,,,,,,,,,,,,,
,119238710566,CAB,3/12/2000,1,2023-03-15_20h26.02.349,OS3_Mult_verification,2022.2.4,Win32,60.04563468,,,,,,,,,,,,,,,,,,,,,,,,,,,,,,,,,,,,,,,,,,,,,,,,,,,,,,,,,,,,,,,,,,,,,,,,,,,,,,,,,left,1,0.4896,,,,,,physical,6,1,6 | 1,5,0.065,0.05,congruent,left,0,12,12,20,1,,,,,,,,,,,,,,,,,,,,,,,,,,,,,,,,,,,,,,,,,,,,,,,,,,,,,,,,,,,,,,,,,,,,,,,,
,119238710566,CAB,3/12/2000,1,2023-03-15_20h26.02.349,OS3_Mult_verification,2022.2.4,Win32,60.04563468,,,,,,,,,,,,,,,,,,,,,,,,,,,,,,,,,,,,,,,,,,,,,,,,,,,,,,,,,,,,,,,,,,,,,,,,,,,,,,,,,right,1,0.568,,,,,,physical,6,1,6 | 1,5,0.05,0.065,incongruent,right,0,13,13,44,1,,,,,,,,,,,,,,,,,,,,,,,,,,,,,,,,,,,,,,,,,,,,,,,,,,,,,,,,,,,,,,,,,,,,,,,,
,119238710566,CAB,3/12/2000,1,2023-03-15_20h26.02.349,OS3_Mult_verification,2022.2.4,Win32,60.04563468,,,,,,,,,,,,,,,,,,,,,,,,,,,,,,,,,,,,,,,,,,,,,,,,,,,,,,,,,,,,,,,,,,,,,,,,,,,,,,,,,right,1,0.546,,,,,,physical,9,9,9 | 9,0,0.05,0.065,neutral,right,0,14,14,71,1,,,,,,,,,,,,,,,,,,,,,,,,,,,,,,,,,,,,,,,,,,,,,,,,,,,,,,,,,,,,,,,,,,,,,,,,
,119238710566,CAB,3/12/2000,1,2023-03-15_20h26.02.349,OS3_Mult_verification,2022.2.4,Win32,60.04563468,,,,,,,,,,,,,,,,,,,,,,,,,,,,,,,,,,,,,,,,,,,,,,,,,,,,,,,,,,,,,,,,,,,,,,,,,,,,,,,,,left,1,0.4644,,,,,,physical,7,9,7 | 9,2,0.065,0.05,incongruent,left,0,15,15,35,1,,,,,,,,,,,,,,,,,,,,,,,,,,,,,,,,,,,,,,,,,,,,,,,,,,,,,,,,,,,,,,,,,,,,,,,,
,119238710566,CAB,3/12/2000,1,2023-03-15_20h26.02.349,OS3_Mult_verification,2022.2.4,Win32,60.04563468,,,,,,,,,,,,,,,,,,,,,,,,,,,,,,,,,,,,,,,,,,,,,,,,,,,,,,,,,,,,,,,,,,,,,,,,,,,,,,,,,right,1,0.4445,,,,,,physical,4,9,4 | 9,5,0.05,0.065,congruent,right,0,16,16,19,1,,,,,,,,,,,,,,,,,,,,,,,,,,,,,,,,,,,,,,,,,,,,,,,,,,,,,,,,,,,,,,,,,,,,,,,,
,119238710566,CAB,3/12/2000,1,2023-03-15_20h26.02.349,OS3_Mult_verification,2022.2.4,Win32,60.04563468,,,,,,,,,,,,,,,,,,,,,,,,,,,,,,,,,,,,,,,,,,,,,,,,,,,,,,,,,,,,,,,,,,,,,,,,,,,,,,,,,right,1,0.5425,,,,,,physical,3,1,3 | 1,2,0.05,0.065,incongruent,right,0,17,17,36,1,,,,,,,,,,,,,,,,,,,,,,,,,,,,,,,,,,,,,,,,,,,,,,,,,,,,,,,,,,,,,,,,,,,,,,,,
,119238710566,CAB,3/12/2000,1,2023-03-15_20h26.02.349,OS3_Mult_verification,2022.2.4,Win32,60.04563468,,,,,,,,,,,,,,,,,,,,,,,,,,,,,,,,,,,,,,,,,,,,,,,,,,,,,,,,,,,,,,,,,,,,,,,,,,,,,,,,,left,1,0.5112,,,,,,physical,2,4,2 | 4,2,0.065,0.05,incongruent,left,0,18,18,33,1,,,,,,,,,,,,,,,,,,,,,,,,,,,,,,,,,,,,,,,,,,,,,,,,,,,,,,,,,,,,,,,,,,,,,,,,
,119238710566,CAB,3/12/2000,1,2023-03-15_20h26.02.349,OS3_Mult_verification,2022.2.4,Win32,60.04563468,,,,,,,,,,,,,,,,,,,,,,,,,,,,,,,,,,,,,,,,,,,,,,,,,,,,,,,,,,,,,,,,,,,,,,,,,,,,,,,,,left,1,0.5283,,,,,,physical,4,9,4 | 9,5,0.065,0.05,incongruent,left,0,19,19,43,1,,,,,,,,,,,,,,,,,,,,,,,,,,,,,,,,,,,,,,,,,,,,,,,,,,,,,,,,,,,,,,,,,,,,,,,,
,119238710566,CAB,3/12/2000,1,2023-03-15_20h26.02.349,OS3_Mult_verification,2022.2.4,Win32,60.04563468,,,,,,,,,,,,,,,,,,,,,,,,,,,,,,,,,,,,,,,,,,,,,,,,,,,,,,,,,,,,,,,,,,,,,,,,,,,,,,,,,left,1,0.5953,,,,,,physical,7,7,7 | 7,0,0.065,0.05,neutral,left,0,20,20,54,1,,,,,,,,,,,,,,,,,,,,,,,,,,,,,,,,,,,,,,,,,,,,,,,,,,,,,,,,,,,,,,,,,,,,,,,,
,119238710566,CAB,3/12/2000,1,2023-03-15_20h26.02.349,OS3_Mult_verification,2022.2.4,Win32,60.04563468,,,,,,,,,,,,,,,,,,,,,,,,,,,,,,,,,,,,,,,,,,,,,,,,,,,,,,,,,,,,,,,,,,,,,,,,,,,,,,,,,right,1,0.4763,,,,,,physical,4,2,4 | 2,2,0.05,0.065,incongruent,right,0,21,21,37,1,,,,,,,,,,,,,,,,,,,,,,,,,,,,,,,,,,,,,,,,,,,,,,,,,,,,,,,,,,,,,,,,,,,,,,,,
,119238710566,CAB,3/12/2000,1,2023-03-15_20h26.02.349,OS3_Mult_verification,2022.2.4,Win32,60.04563468,,,,,,,,,,,,,,,,,,,,,,,,,,,,,,,,,,,,,,,,,,,,,,,,,,,,,,,,,,,,,,,,,,,,,,,,,,,,,,,,,left,1,0.4596,,,,,,physical,6,8,6 | 8,2,0.065,0.05,incongruent,left,0,22,22,34,1,,,,,,,,,,,,,,,,,,,,,,,,,,,,,,,,,,,,,,,,,,,,,,,,,,,,,,,,,,,,,,,,,,,,,,,,
,119238710566,CAB,3/12/2000,1,2023-03-15_20h26.02.349,OS3_Mult_verification,2022.2.4,Win32,60.04563468,,,,,,,,,,,,,,,,,,,,,,,,,,,,,,,,,,,,,,,,,,,,,,,,,,,,,,,,,,,,,,,,,,,,,,,,,,,,,,,,,right,1,0.4196,,,,,,physical,3,8,3 | 8,5,0.05,0.065,congruent,right,0,23,23,18,1,,,,,,,,,,,,,,,,,,,,,,,,,,,,,,,,,,,,,,,,,,,,,,,,,,,,,,,,,,,,,,,,,,,,,,,,
,119238710566,CAB,3/12/2000,1,2023-03-15_20h26.02.349,OS3_Mult_verification,2022.2.4,Win32,60.04563468,,,,,,,,,,,,,,,,,,,,,,,,,,,,,,,,,,,,,,,,,,,,,,,,,,,,,,,,,,,,,,,,,,,,,,,,,,,,,,,,,right,1,0.5386,,,,,,physical,2,7,2 | 7,5,0.05,0.065,congruent,right,0,24,24,17,1,,,,,,,,,,,,,,,,,,,,,,,,,,,,,,,,,,,,,,,,,,,,,,,,,,,,,,,,,,,,,,,,,,,,,,,,
,119238710566,CAB,3/12/2000,1,2023-03-15_20h26.02.349,OS3_Mult_verification,2022.2.4,Win32,60.04563468,,,,,,,,,,,,,,,,,,,,,,,,,,,,,,,,,,,,,,,,,,,,,,,,,,,,,,,,,,,,,,,,,,,,,,,,,,,,,,,,,left,1,0.4608,,,,,,physical,7,2,7 | 2,5,0.065,0.05,congruent,left,0,25,25,21,1,,,,,,,,,,,,,,,,,,,,,,,,,,,,,,,,,,,,,,,,,,,,,,,,,,,,,,,,,,,,,,,,,,,,,,,,
,119238710566,CAB,3/12/2000,1,2023-03-15_20h26.02.349,OS3_Mult_verification,2022.2.4,Win32,60.04563468,,,,,,,,,,,,,,,,,,,,,,,,,,,,,,,,,,,,,,,,,,,,,,,,,,,,,,,,,,,,,,,,,,,,,,,,,,,,,,,,,right,1,0.4827,,,,,,physical,6,6,6 | 6,0,0.05,0.065,neutral,right,0,26,26,58,1,,,,,,,,,,,,,,,,,,,,,,,,,,,,,,,,,,,,,,,,,,,,,,,,,,,,,,,,,,,,,,,,,,,,,,,,
,119238710566,CAB,3/12/2000,1,2023-03-15_20h26.02.349,OS3_Mult_verification,2022.2.4,Win32,60.04563468,,,,,,,,,,,,,,,,,,,,,,,,,,,,,,,,,,,,,,,,,,,,,,,,,,,,,,,,,,,,,,,,,,,,,,,,,,,,,,,,,left,1,0.6119,,,,,,physical,3,8,3 | 8,5,0.065,0.05,incongruent,left,0,27,27,42,1,,,,,,,,,,,,,,,,,,,,,,,,,,,,,,,,,,,,,,,,,,,,,,,,,,,,,,,,,,,,,,,,,,,,,,,,
,119238710566,CAB,3/12/2000,1,2023-03-15_20h26.02.349,OS3_Mult_verification,2022.2.4,Win32,60.04563468,,,,,,,,,,,,,,,,,,,,,,,,,,,,,,,,,,,,,,,,,,,,,,,,,,,,,,,,,,,,,,,,,,,,,,,,,,,,,,,,,left,1,0.6447,,,,,,physical,1,6,1 | 6,5,0.065,0.05,incongruent,left,0,28,28,40,1,,,,,,,,,,,,,,,,,,,,,,,,,,,,,,,,,,,,,,,,,,,,,,,,,,,,,,,,,,,,,,,,,,,,,,,,
,119238710566,CAB,3/12/2000,1,2023-03-15_20h26.02.349,OS3_Mult_verification,2022.2.4,Win32,60.04563468,,,,,,,,,,,,,,,,,,,,,,,,,,,,,,,,,,,,,,,,,,,,,,,,,,,,,,,,,,,,,,,,,,,,,,,,,,,,,,,,,left,1,0.475,,,,,,physical,2,7,2 | 7,5,0.065,0.05,incongruent,left,0,29,29,41,1,,,,,,,,,,,,,,,,,,,,,,,,,,,,,,,,,,,,,,,,,,,,,,,,,,,,,,,,,,,,,,,,,,,,,,,,
,119238710566,CAB,3/12/2000,1,2023-03-15_20h26.02.349,OS3_Mult_verification,2022.2.4,Win32,60.04563468,,,,,,,,,,,,,,,,,,,,,,,,,,,,,,,,,,,,,,,,,,,,,,,,,,,,,,,,,,,,,,,,,,,,,,,,,,,,,,,,,left,1,0.4779,,,,,,physical,8,6,8 | 6,2,0.065,0.05,congruent,left,0,30,30,14,1,,,,,,,,,,,,,,,,,,,,,,,,,,,,,,,,,,,,,,,,,,,,,,,,,,,,,,,,,,,,,,,,,,,,,,,,
,119238710566,CAB,3/12/2000,1,2023-03-15_20h26.02.349,OS3_Mult_verification,2022.2.4,Win32,60.04563468,,,,,,,,,,,,,,,,,,,,,,,,,,,,,,,,,,,,,,,,,,,,,,,,,,,,,,,,,,,,,,,,,,,,,,,,,,,,,,,,,left,1,0.5124,,,,,,physical,1,1,1 | 1,0,0.065,0.05,neutral,left,0,31,31,64,1,,,,,,,,,,,,,,,,,,,,,,,,,,,,,,,,,,,,,,,,,,,,,,,,,,,,,,,,,,,,,,,,,,,,,,,,
,119238710566,CAB,3/12/2000,1,2023-03-15_20h26.02.349,OS3_Mult_verification,2022.2.4,Win32,60.04563468,,,,,,,,,,,,,,,,,,,,,,,,,,,,,,,,,,,,,,,,,,,,,,,,,,,,,,,,,,,,,,,,,,,,,,,,,,,,,,,,,left,1,0.4634,,,,,,physical,4,3,4 | 3,1,0.065,0.05,congruent,left,0,32,32,5,1,,,,,,,,,,,,,,,,,,,,,,,,,,,,,,,,,,,,,,,,,,,,,,,,,,,,,,,,,,,,,,,,,,,,,,,,
,119238710566,CAB,3/12/2000,1,2023-03-15_20h26.02.349,OS3_Mult_verification,2022.2.4,Win32,60.04563468,,,,,,,,,,,,,,,,,,,,,,,,,,,,,,,,,,,,,,,,,,,,,,,,,,,,,,,,,,,,,,,,,,,,,,,,,,,,,,,,,left,1,0.9486,,,,,,physical,3,4,3 | 4,1,0.065,0.05,incongruent,left,0,33,33,25,1,,,,,,,,,,,,,,,,,,,,,,,,,,,,,,,,,,,,,,,,,,,,,,,,,,,,,,,,,,,,,,,,,,,,,,,,
,119238710566,CAB,3/12/2000,1,2023-03-15_20h26.02.349,OS3_Mult_verification,2022.2.4,Win32,60.04563468,,,,,,,,,,,,,,,,,,,,,,,,,,,,,,,,,,,,,,,,,,,,,,,,,,,,,,,,,,,,,,,,,,,,,,,,,,,,,,,,,right,1,0.5452,,,,,,physical,1,1,1 | 1,0,0.05,0.065,neutral,right,0,34,34,56,1,,,,,,,,,,,,,,,,,,,,,,,,,,,,,,,,,,,,,,,,,,,,,,,,,,,,,,,,,,,,,,,,,,,,,,,,
,119238710566,CAB,3/12/2000,1,2023-03-15_20h26.02.349,OS3_Mult_verification,2022.2.4,Win32,60.04563468,,,,,,,,,,,,,,,,,,,,,,,,,,,,,,,,,,,,,,,,,,,,,,,,,,,,,,,,,,,,,,,,,,,,,,,,,,,,,,,,,left,1,0.4665,,,,,,physical,1,2,1 | 2,1,0.065,0.05,incongruent,left,0,35,35,24,1,,,,,,,,,,,,,,,,,,,,,,,,,,,,,,,,,,,,,,,,,,,,,,,,,,,,,,,,,,,,,,,,,,,,,,,,
,119238710566,CAB,3/12/2000,1,2023-03-15_20h26.02.349,OS3_Mult_verification,2022.2.4,Win32,60.04563468,,,,,,,,,,,,,,,,,,,,,,,,,,,,,,,,,,,,,,,,,,,,,,,,,,,,,,,,,,,,,,,,,,,,,,,,,,,,,,,,,right,1,0.4378,,,,,,physical,8,9,8 | 9,1,0.05,0.065,congruent,right,0,36,36,3,1,,,,,,,,,,,,,,,,,,,,,,,,,,,,,,,,,,,,,,,,,,,,,,,,,,,,,,,,,,,,,,,,,,,,,,,,
,119238710566,CAB,3/12/2000,1,2023-03-15_20h26.02.349,OS3_Mult_verification,2022.2.4,Win32,60.04563468,,,,,,,,,,,,,,,,,,,,,,,,,,,,,,,,,,,,,,,,,,,,,,,,,,,,,,,,,,,,,,,,,,,,,,,,,,,,,,,,,left,1,0.4305,,,,,,physical,2,2,2 | 2,0,0.065,0.05,neutral,left,0,37,37,52,1,,,,,,,,,,,,,,,,,,,,,,,,,,,,,,,,,,,,,,,,,,,,,,,,,,,,,,,,,,,,,,,,,,,,,,,,
,119238710566,CAB,3/12/2000,1,2023-03-15_20h26.02.349,OS3_Mult_verification,2022.2.4,Win32,60.04563468,,,,,,,,,,,,,,,,,,,,,,,,,,,,,,,,,,,,,,,,,,,,,,,,,,,,,,,,,,,,,,,,,,,,,,,,,,,,,,,,,right,1,0.3999,,,,,,physical,9,8,9 | 8,1,0.05,0.065,incongruent,right,0,38,38,31,1,,,,,,,,,,,,,,,,,,,,,,,,,,,,,,,,,,,,,,,,,,,,,,,,,,,,,,,,,,,,,,,,,,,,,,,,
,119238710566,CAB,3/12/2000,1,2023-03-15_20h26.02.349,OS3_Mult_verification,2022.2.4,Win32,60.04563468,,,,,,,,,,,,,,,,,,,,,,,,,,,,,,,,,,,,,,,,,,,,,,,,,,,,,,,,,,,,,,,,,,,,,,,,,,,,,,,,,right,1,0.4852,,,,,,physical,6,7,6 | 7,1,0.05,0.065,congruent,right,0,39,39,2,1,,,,,,,,,,,,,,,,,,,,,,,,,,,,,,,,,,,,,,,,,,,,,,,,,,,,,,,,,,,,,,,,,,,,,,,,
,119238710566,CAB,3/12/2000,1,2023-03-15_20h26.02.349,OS3_Mult_verification,2022.2.4,Win32,60.04563468,,,,,,,,,,,,,,,,,,,,,,,,,,,,,,,,,,,,,,,,,,,,,,,,,,,,,,,,,,,,,,,,,,,,,,,,,,,,,,,,,right,1,0.462,,,,,,physical,8,6,8 | 6,2,0.05,0.065,incongruent,right,0,40,40,38,1,,,,,,,,,,,,,,,,,,,,,,,,,,,,,,,,,,,,,,,,,,,,,,,,,,,,,,,,,,,,,,,,,,,,,,,,
,119238710566,CAB,3/12/2000,1,2023-03-15_20h26.02.349,OS3_Mult_verification,2022.2.4,Win32,60.04563468,,,,,,,,,,,,,,,,,,,,,,,,,,,,,,,,,,,,,,,,,,,,,,,,,,,,,,,,,,,,,,,,,,,,,,,,,,,,,,,,,left,1,0.5696,,,,,,physical,8,9,8 | 9,1,0.065,0.05,incongruent,left,0,41,41,27,1,,,,,,,,,,,,,,,,,,,,,,,,,,,,,,,,,,,,,,,,,,,,,,,,,,,,,,,,,,,,,,,,,,,,,,,,
,119238710566,CAB,3/12/2000,1,2023-03-15_20h26.02.349,OS3_Mult_verification,2022.2.4,Win32,60.04563468,,,,,,,,,,,,,,,,,,,,,,,,,,,,,,,,,,,,,,,,,,,,,,,,,,,,,,,,,,,,,,,,,,,,,,,,,,,,,,,,,left,1,0.6952,,,,,,physical,6,7,6 | 7,1,0.065,0.05,incongruent,left,0,42,42,26,1,,,,,,,,,,,,,,,,,,,,,,,,,,,,,,,,,,,,,,,,,,,,,,,,,,,,,,,,,,,,,,,,,,,,,,,,
,119238710566,CAB,3/12/2000,1,2023-03-15_20h26.02.349,OS3_Mult_verification,2022.2.4,Win32,60.04563468,,,,,,,,,,,,,,,,,,,,,,,,,,,,,,,,,,,,,,,,,,,,,,,,,,,,,,,,,,,,,,,,,,,,,,,,,,,,,,,,,left,1,0.397,,,,,,physical,6,6,6 | 6,0,0.065,0.05,neutral,left,0,43,43,50,1,,,,,,,,,,,,,,,,,,,,,,,,,,,,,,,,,,,,,,,,,,,,,,,,,,,,,,,,,,,,,,,,,,,,,,,,
,119238710566,CAB,3/12/2000,1,2023-03-15_20h26.02.349,OS3_Mult_verification,2022.2.4,Win32,60.04563468,,,,,,,,,,,,,,,,,,,,,,,,,,,,,,,,,,,,,,,,,,,,,,,,,,,,,,,,,,,,,,,,,,,,,,,,,,,,,,,,,right,1,0.528,,,,,,physical,7,2,7 | 2,5,0.05,0.065,incongruent,right,0,44,44,45,1,,,,,,,,,,,,,,,,,,,,,,,,,,,,,,,,,,,,,,,,,,,,,,,,,,,,,,,,,,,,,,,,,,,,,,,,
,119238710566,CAB,3/12/2000,1,2023-03-15_20h26.02.349,OS3_Mult_verification,2022.2.4,Win32,60.04563468,,,,,,,,,,,,,,,,,,,,,,,,,,,,,,,,,,,,,,,,,,,,,,,,,,,,,,,,,,,,,,,,,,,,,,,,,,,,,,,,,left,1,0.5109,,,,,,physical,9,8,9 | 8,1,0.065,0.05,congruent,left,0,45,45,7,1,,,,,,,,,,,,,,,,,,,,,,,,,,,,,,,,,,,,,,,,,,,,,,,,,,,,,,,,,,,,,,,,,,,,,,,,
,119238710566,CAB,3/12/2000,1,2023-03-15_20h26.02.349,OS3_Mult_verification,2022.2.4,Win32,60.04563468,,,,,,,,,,,,,,,,,,,,,,,,,,,,,,,,,,,,,,,,,,,,,,,,,,,,,,,,,,,,,,,,,,,,,,,,,,,,,,,,,right,1,0.485,,,,,,physical,2,1,2 | 1,1,0.05,0.065,incongruent,right,0,46,46,28,1,,,,,,,,,,,,,,,,,,,,,,,,,,,,,,,,,,,,,,,,,,,,,,,,,,,,,,,,,,,,,,,,,,,,,,,,
,119238710566,CAB,3/12/2000,1,2023-03-15_20h26.02.349,OS3_Mult_verification,2022.2.4,Win32,60.04563468,,,,,,,,,,,,,,,,,,,,,,,,,,,,,,,,,,,,,,,,,,,,,,,,,,,,,,,,,,,,,,,,,,,,,,,,,,,,,,,,,left,1,0.4217,,,,,,physical,4,4,4 | 4,0,0.065,0.05,neutral,left,0,47,47,53,1,,,,,,,,,,,,,,,,,,,,,,,,,,,,,,,,,,,,,,,,,,,,,,,,,,,,,,,,,,,,,,,,,,,,,,,,
,119238710566,CAB,3/12/2000,1,2023-03-15_20h26.02.349,OS3_Mult_verification,2022.2.4,Win32,60.04563468,,,,,,,,,,,,,,,,,,,,,,,,,,,,,,,,,,,,,,,,,,,,,,,,,,,,,,,,,,,,,,,,,,,,,,,,,,,,,,,,,right,1,0.4185,,,,,,physical,3,3,3 | 3,0,0.05,0.065,neutral,right,0,48,48,60,1,,,,,,,,,,,,,,,,,,,,,,,,,,,,,,,,,,,,,,,,,,,,,,,,,,,,,,,,,,,,,,,,,,,,,,,,
,119238710566,CAB,3/12/2000,1,2023-03-15_20h26.02.349,OS3_Mult_verification,2022.2.4,Win32,60.04563468,,,,,,,,,,,,,,,,,,,,,,,,,,,,,,,,,,,,,,,,,,,,,,,,,,,,,,,,,,,,,,,,,,,,,,,,,,,,,,,,,right,1,0.617,,,,,,physical,7,9,7 | 9,2,0.05,0.065,congruent,right,0,49,49,11,1,,,,,,,,,,,,,,,,,,,,,,,,,,,,,,,,,,,,,,,,,,,,,,,,,,,,,,,,,,,,,,,,,,,,,,,,
,119238710566,CAB,3/12/2000,1,2023-03-15_20h26.02.349,OS3_Mult_verification,2022.2.4,Win32,60.04563468,,,,,,,,,,,,,,,,,,,,,,,,,,,,,,,,,,,,,,,,,,,,,,,,,,,,,,,,,,,,,,,,,,,,,,,,,,,,,,,,,left,1,0.4806,,,,,,physical,2,1,2 | 1,1,0.065,0.05,congruent,left,0,50,50,4,1,,,,,,,,,,,,,,,,,,,,,,,,,,,,,,,,,,,,,,,,,,,,,,,,,,,,,,,,,,,,,,,,,,,,,,,,
,119238710566,CAB,3/12/2000,1,2023-03-15_20h26.02.349,OS3_Mult_verification,2022.2.4,Win32,60.04563468,,,,,,,,,,,,,,,,,,,,,,,,,,,,,,,,,,,,,,,,,,,,,,,,,,,,,,,,,,,,,,,,,,,,,,,,,,,,,,,,,right,1,0.4526,,,,,,physical,1,2,1 | 2,1,0.05,0.065,congruent,right,0,51,51,0,1,,,,,,,,,,,,,,,,,,,,,,,,,,,,,,,,,,,,,,,,,,,,,,,,,,,,,,,,,,,,,,,,,,,,,,,,
,119238710566,CAB,3/12/2000,1,2023-03-15_20h26.02.349,OS3_Mult_verification,2022.2.4,Win32,60.04563468,,,,,,,,,,,,,,,,,,,,,,,,,,,,,,,,,,,,,,,,,,,,,,,,,,,,,,,,,,,,,,,,,,,,,,,,,,,,,,,,,right,1,0.5031,,,,,,physical,9,9,9 | 9,0,0.05,0.065,neutral,right,0,52,52,63,1,,,,,,,,,,,,,,,,,,,,,,,,,,,,,,,,,,,,,,,,,,,,,,,,,,,,,,,,,,,,,,,,,,,,,,,,
,119238710566,CAB,3/12/2000,1,2023-03-15_20h26.02.349,OS3_Mult_verification,2022.2.4,Win32,60.04563468,,,,,,,,,,,,,,,,,,,,,,,,,,,,,,,,,,,,,,,,,,,,,,,,,,,,,,,,,,,,,,,,,,,,,,,,,,,,,,,,,right,1,0.4486,,,,,,physical,4,4,4 | 4,0,0.05,0.065,neutral,right,0,53,53,61,1,,,,,,,,,,,,,,,,,,,,,,,,,,,,,,,,,,,,,,,,,,,,,,,,,,,,,,,,,,,,,,,,,,,,,,,,
,119238710566,CAB,3/12/2000,1,2023-03-15_20h26.02.349,OS3_Mult_verification,2022.2.4,Win32,60.04563468,,,,,,,,,,,,,,,,,,,,,,,,,,,,,,,,,,,,,,,,,,,,,,,,,,,,,,,,,,,,,,,,,,,,,,,,,,,,,,,,,right,1,0.4619,,,,,,physical,9,4,9 | 4,5,0.05,0.065,incongruent,right,0,54,54,47,1,,,,,,,,,,,,,,,,,,,,,,,,,,,,,,,,,,,,,,,,,,,,,,,,,,,,,,,,,,,,,,,,,,,,,,,,
,119238710566,CAB,3/12/2000,1,2023-03-15_20h26.02.349,OS3_Mult_verification,2022.2.4,Win32,60.04563468,,,,,,,,,,,,,,,,,,,,,,,,,,,,,,,,,,,,,,,,,,,,,,,,,,,,,,,,,,,,,,,,,,,,,,,,,,,,,,,,,left,1,0.5009,,,,,,physical,9,9,9 | 9,0,0.065,0.05,neutral,left,0,55,55,55,1,,,,,,,,,,,,,,,,,,,,,,,,,,,,,,,,,,,,,,,,,,,,,,,,,,,,,,,,,,,,,,,,,,,,,,,,
,119238710566,CAB,3/12/2000,1,2023-03-15_20h26.02.349,OS3_Mult_verification,2022.2.4,Win32,60.04563468,,,,,,,,,,,,,,,,,,,,,,,,,,,,,,,,,,,,,,,,,,,,,,,,,,,,,,,,,,,,,,,,,,,,,,,,,,,,,,,,,left,1,0.4157,,,,,,physical,9,7,9 | 7,2,0.065,0.05,congruent,left,0,56,56,15,1,,,,,,,,,,,,,,,,,,,,,,,,,,,,,,,,,,,,,,,,,,,,,,,,,,,,,,,,,,,,,,,,,,,,,,,,
,119238710566,CAB,3/12/2000,1,2023-03-15_20h26.02.349,OS3_Mult_verification,2022.2.4,Win32,60.04563468,,,,,,,,,,,,,,,,,,,,,,,,,,,,,,,,,,,,,,,,,,,,,,,,,,,,,,,,,,,,,,,,,,,,,,,,,,,,,,,,,right,1,0.4679,,,,,,physical,1,3,1 | 3,2,0.05,0.065,congruent,right,0,57,57,8,1,,,,,,,,,,,,,,,,,,,,,,,,,,,,,,,,,,,,,,,,,,,,,,,,,,,,,,,,,,,,,,,,,,,,,,,,
,119238710566,CAB,3/12/2000,1,2023-03-15_20h26.02.349,OS3_Mult_verification,2022.2.4,Win32,60.04563468,,,,,,,,,,,,,,,,,,,,,,,,,,,,,,,,,,,,,,,,,,,,,,,,,,,,,,,,,,,,,,,,,,,,,,,,,,,,,,,,,right,1,0.611,,,,,,physical,4,4,4 | 4,0,0.05,0.065,neutral,right,0,58,58,67,1,,,,,,,,,,,,,,,,,,,,,,,,,,,,,,,,,,,,,,,,,,,,,,,,,,,,,,,,,,,,,,,,,,,,,,,,
,119238710566,CAB,3/12/2000,1,2023-03-15_20h26.02.349,OS3_Mult_verification,2022.2.4,Win32,60.04563468,,,,,,,,,,,,,,,,,,,,,,,,,,,,,,,,,,,,,,,,,,,,,,,,,,,,,,,,,,,,,,,,,,,,,,,,,,,,,,,,,right,1,0.5066,,,,,,physical,4,3,4 | 3,1,0.05,0.065,incongruent,right,0,59,59,29,1,,,,,,,,,,,,,,,,,,,,,,,,,,,,,,,,,,,,,,,,,,,,,,,,,,,,,,,,,,,,,,,,,,,,,,,,
,119238710566,CAB,3/12/2000,1,2023-03-15_20h26.02.349,OS3_Mult_verification,2022.2.4,Win32,60.04563468,,,,,,,,,,,,,,,,,,,,,,,,,,,,,,,,,,,,,,,,,,,,,,,,,,,,,,,,,,,,,,,,,,,,,,,,,,,,,,,,,right,1,0.4455,,,,,,physical,7,6,7 | 6,1,0.05,0.065,incongruent,right,0,60,60,30,1,,,,,,,,,,,,,,,,,,,,,,,,,,,,,,,,,,,,,,,,,,,,,,,,,,,,,,,,,,,,,,,,,,,,,,,,
,119238710566,CAB,3/12/2000,1,2023-03-15_20h26.02.349,OS3_Mult_verification,2022.2.4,Win32,60.04563468,,,,,,,,,,,,,,,,,,,,,,,,,,,,,,,,,,,,,,,,,,,,,,,,,,,,,,,,,,,,,,,,,,,,,,,,,,,,,,,,,left,1,0.5171,,,,,,physical,1,1,1 | 1,0,0.065,0.05,neutral,left,0,61,61,48,1,,,,,,,,,,,,,,,,,,,,,,,,,,,,,,,,,,,,,,,,,,,,,,,,,,,,,,,,,,,,,,,,,,,,,,,,
,119238710566,CAB,3/12/2000,1,2023-03-15_20h26.02.349,OS3_Mult_verification,2022.2.4,Win32,60.04563468,,,,,,,,,,,,,,,,,,,,,,,,,,,,,,,,,,,,,,,,,,,,,,,,,,,,,,,,,,,,,,,,,,,,,,,,,,,,,,,,,left,1,0.5129,,,,,,physical,7,6,7 | 6,1,0.065,0.05,congruent,left,0,62,62,6,1,,,,,,,,,,,,,,,,,,,,,,,,,,,,,,,,,,,,,,,,,,,,,,,,,,,,,,,,,,,,,,,,,,,,,,,,
,119238710566,CAB,3/12/2000,1,2023-03-15_20h26.02.349,OS3_Mult_verification,2022.2.4,Win32,60.04563468,,,,,,,,,,,,,,,,,,,,,,,,,,,,,,,,,,,,,,,,,,,,,,,,,,,,,,,,,,,,,,,,,,,,,,,,,,,,,,,,,left,1,0.4291,,,,,,physical,3,1,3 | 1,2,0.065,0.05,congruent,left,0,63,63,12,1,,,,,,,,,,,,,,,,,,,,,,,,,,,,,,,,,,,,,,,,,,,,,,,,,,,,,,,,,,,,,,,,,,,,,,,,
,119238710566,CAB,3/12/2000,1,2023-03-15_20h26.02.349,OS3_Mult_verification,2022.2.4,Win32,60.04563468,,,,,,,,,,,,,,,,,,,,,,,,,,,,,,,,,,,,,,,,,,,,,,,,,,,,,,,,,,,,,,,,,,,,,,,,,,,,,,,,,left,1,0.4021,,,,,,physical,8,3,8 | 3,5,0.065,0.05,congruent,left,0,64,64,22,1,,,,,,,,,,,,,,,,,,,,,,,,,,,,,,,,,,,,,,,,,,,,,,,,,,,,,,,,,,,,,,,,,,,,,,,,
,119238710566,CAB,3/12/2000,1,2023-03-15_20h26.02.349,OS3_Mult_verification,2022.2.4,Win32,60.04563468,,,,,,,,,,,,,,,,,,,,,,,,,,,,,,,,,,,,,,,,,,,,,,,,,,,,,,,,,,,,,,,,,,,,,,,,,,,,,,,,,left,1,0.4149,,,,,,physical,3,3,3 | 3,0,0.065,0.05,neutral,left,0,65,65,49,1,,,,,,,,,,,,,,,,,,,,,,,,,,,,,,,,,,,,,,,,,,,,,,,,,,,,,,,,,,,,,,,,,,,,,,,,
,119238710566,CAB,3/12/2000,1,2023-03-15_20h26.02.349,OS3_Mult_verification,2022.2.4,Win32,60.04563468,,,,,,,,,,,,,,,,,,,,,,,,,,,,,,,,,,,,,,,,,,,,,,,,,,,,,,,,,,,,,,,,,,,,,,,,,,,,,,,,,left,1,0.4119,,,,,,physical,9,4,9 | 4,5,0.065,0.05,congruent,left,0,66,66,23,1,,,,,,,,,,,,,,,,,,,,,,,,,,,,,,,,,,,,,,,,,,,,,,,,,,,,,,,,,,,,,,,,,,,,,,,,
,119238710566,CAB,3/12/2000,1,2023-03-15_20h26.02.349,OS3_Mult_verification,2022.2.4,Win32,60.04563468,,,,,,,,,,,,,,,,,,,,,,,,,,,,,,,,,,,,,,,,,,,,,,,,,,,,,,,,,,,,,,,,,,,,,,,,,,,,,,,,,right,1,0.5868,,,,,,physical,6,8,6 | 8,2,0.05,0.065,congruent,right,0,67,67,10,1,,,,,,,,,,,,,,,,,,,,,,,,,,,,,,,,,,,,,,,,,,,,,,,,,,,,,,,,,,,,,,,,,,,,,,,,
,119238710566,CAB,3/12/2000,1,2023-03-15_20h26.02.349,OS3_Mult_verification,2022.2.4,Win32,60.04563468,,,,,,,,,,,,,,,,,,,,,,,,,,,,,,,,,,,,,,,,,,,,,,,,,,,,,,,,,,,,,,,,,,,,,,,,,,,,,,,,,left,1,0.5271,,,,,,physical,1,3,1 | 3,2,0.065,0.05,incongruent,left,0,68,68,32,1,,,,,,,,,,,,,,,,,,,,,,,,,,,,,,,,,,,,,,,,,,,,,,,,,,,,,,,,,,,,,,,,,,,,,,,,
