windowSize,participant,group,DOB (DD/MM/YEAR),session,date,expName,psychopyVersion,OS,frameRate,typing_instr_resp.keys,typing_instr_resp.rt,typing_response,typing_rt,typing_score,typingSpeed_input_resp.keys,typingSpeed_input_resp.rt,typing_speed_trials.thisRepN,typing_speed_trials.thisTrialN,typing_speed_trials.thisN,typing_speed_trials.thisIndex,typing_speed_trials.ran,typing_speed_stim,typing_report_resp.keys,typing_report_resp.rt,vpt_trial_resp1.keys,vpt_trial_resp1.rt,typedResponse,fluency_rt,fluency_score,fluencyInputResp.keys,fluencyInputResp.rt,fluencyPracLoop.thisRepN,fluencyPracLoop.thisTrialN,fluencyPracLoop.thisN,fluencyPracLoop.thisIndex,fluencyPracLoop.ran,problem,answers,fluencyLoop.thisRepN,fluencyLoop.thisTrialN,fluencyLoop.thisN,fluencyLoop.thisIndex,fluencyLoop.ran,sampleAudio_resp.keys,sampleAudio_resp.rt,subjResponse,audio_rt,DS_score,inputResp.keys,inputResp.rt,audioPracticeLoop.thisRepN,audioPracticeLoop.thisTrialN,audioPracticeLoop.thisN,audioPracticeLoop.thisIndex,audioPracticeLoop.ran,digitSpan,digits_audioStim,soundsFile,typeDS,audioTrials_Loop.thisRepN,audioTrials_Loop.thisTrialN,audioTrials_Loop.thisN,audioTrials_Loop.thisIndex,audioTrials_Loop.ran,audioBlocks_loop.thisRepN,audioBlocks_loop.thisTrialN,audioBlocks_loop.thisN,audioBlocks_loop.thisIndex,audioBlocks_loop.ran,ConditionFile,digitSpanTask_loop.thisRepN,digitSpanTask_loop.thisTrialN,digitSpanTask_loop.thisN,digitSpanTask_loop.thisIndex,digitSpanTask_loop.ran,dsFile,TASK_C.thisRepN,TASK_C.thisTrialN,TASK_C.thisN,TASK_C.thisIndex,TASK_C.ran,controlTaskOrder.thisRepN,controlTaskOrder.thisTrialN,controlTaskOrder.thisN,controlTaskOrder.thisIndex,controlTaskOrder.ran,nRepsTask1,nRepsTask2,nRepsTask3,vptCorrect,vpt_rt,respMouse.x,respMouse.y,respMouse.leftButton,respMouse.midButton,respMouse.rightButton,vptPracticeLoop.thisRepN,vptPracticeLoop.thisTrialN,vptPracticeLoop.thisN,vptPracticeLoop.thisIndex,vptPracticeLoop.ran,trialType,tiles,rows,cols,vptTrialLoop.thisRepN,vptTrialLoop.thisTrialN,vptTrialLoop.thisN,vptTrialLoop.thisIndex,vptTrialLoop.ran,noOfBlocks,TASK_B.thisRepN,TASK_B.thisTrialN,TASK_B.thisN,TASK_B.thisIndex,TASK_B.ran,stroopResp.keys,stroopResp.corr,stroopResp.rt,stroopPracLoop.thisRepN,stroopPracLoop.thisTrialN,stroopPracLoop.thisN,stroopPracLoop.thisIndex,stroopPracLoop.ran,stroopCond,leftNo,rightNo,displayProblem,numDistance,leftNo_size,rightNo_size,Dims,keyAnswer,stroopLoop.thisRepN,stroopLoop.thisTrialN,stroopLoop.thisN,stroopLoop.thisIndex,stroopLoop.ran,stroopBlocks.thisRepN,stroopBlocks.thisTrialN,stroopBlocks.thisN,stroopBlocks.thisIndex,stroopBlocks.ran,stroop_condition,stroop_pracFile,ActionInst,instrImage,TASK_A.thisRepN,TASK_A.thisTrialN,TASK_A.thisN,TASK_A.thisIndex,TASK_A.ran,veriStim_resp.keys,veriStim_resp.corr,veriStim_resp.rt,verificationPracLoop.thisRepN,verificationPracLoop.thisTrialN,verificationPracLoop.thisN,verificationPracLoop.thisIndex,verificationPracLoop.ran,mult_problem,mult_answer,mult_type,error_distance,interferenceScore,problemType,interferenceLevel,problemSize,img_leftButton,img_rightButton,veriLoop.thisRepN,veriLoop.thisTrialN,veriLoop.thisN,veriLoop.thisIndex,veriLoop.ran,veriBlock.thisRepN,veriBlock.thisTrialN,veriBlock.thisN,veriBlock.thisIndex,veriBlock.ran,verificationFiles,end_resp.keys,end_resp.rt
"[1280,595]",8824,CBA,31/12/2004,001,2023-12-08_14h29.38.153,OS3_Mult_verification,2022.2.4,Win32,60.35731531,,,,,,,,,,,,,,,,,,,,,,,,,,,,,,,,,,,,,,,,,,,,,,,,,,,,,,,,,,,,,,,,,,,,,,,,,,,,,,,,,,,,,,,,,,,,,,,,,,,,,,,,,,,,,,,,,,,,,,,,,,,,,,,,,,,,,,,,,,,,,,,,,,,,,,,,,,,,,,,,,,,,,,,,,,,,,,
,8824,CBA,31/12/2004,001,2023-12-08_14h29.38.153,OS3_Mult_verification,2022.2.4,Win32,60.35731531,,,,,,,,,,,,,,,,,,,,,,,,,,,,,,,,,,,,,,,,,,,,,,,,,,,,,,,,,,,,,,,,,,,,,,,,,,,,,,,,,,,,,,,,,,,,,,,,,,,,,,,,,,,,,,,,,,,,,,,,,,,,,,,,,,,,,,,,,,,,,,,,,,,,,,,,,,,,,,,,,,,,,,,,,,,,,,
,8824,CBA,31/12/2004,001,2023-12-08_14h29.38.153,OS3_Mult_verification,2022.2.4,Win32,60.35731531,space,17.4168,,,,,,,,,,,,,,,,,,,,,,,,,,,,,,,,,,,,,,,,,,,,,,,,,,,,,,,,,,,,,,,,,,,,,,,,,,,,,,,,,,,,,,,,,,,,,,,,,,,,,,,,,,,,,,,,,,,,,,,,,,,,,,,,,,,,,,,,,,,,,,,,,,,,,,,,,,,,,,,,,,,,,,,,,,,,
,8824,CBA,31/12/2004,001,2023-12-08_14h29.38.153,OS3_Mult_verification,2022.2.4,Win32,60.35731531,,,64,9.8138,1,"[""return"",""6"",""4"",""return""]","[6.035600000023834,8.218899999976145,8.456100000023838,9.77019999992848]",0,0,0,28,1,64,,,,,,,,,,,,,,,,,,,,,,,,,,,,,,,,,,,,,,,,,,,,,,,,,,,,,,,,,,,,,,,,,,,,,,,,,,,,,,,,,,,,,,,,,,,,,,,,,,,,,,,,,,,,,,,,,,,,,,,,,,,,,,,,,,,,,,,,,,,,,,,,,,,,,,,,,,,,,,,,,
,8824,CBA,31/12/2004,001,2023-12-08_14h29.38.153,OS3_Mult_verification,2022.2.4,Win32,60.35731531,,,63,1.9487,1,"[""6"",""3"",""return""]","[1.1512999999523288,1.5503999999761788,1.9062999999523242]",0,1,1,27,1,63,,,,,,,,,,,,,,,,,,,,,,,,,,,,,,,,,,,,,,,,,,,,,,,,,,,,,,,,,,,,,,,,,,,,,,,,,,,,,,,,,,,,,,,,,,,,,,,,,,,,,,,,,,,,,,,,,,,,,,,,,,,,,,,,,,,,,,,,,,,,,,,,,,,,,,,,,,,,,,,,,
,8824,CBA,31/12/2004,001,2023-12-08_14h29.38.153,OS3_Mult_verification,2022.2.4,Win32,60.35731531,,,49,1.4872,1,"[""4"",""9"",""return""]","[0.8073000000715354,1.1690000000000111,1.4428000000715144]",0,2,2,24,1,49,,,,,,,,,,,,,,,,,,,,,,,,,,,,,,,,,,,,,,,,,,,,,,,,,,,,,,,,,,,,,,,,,,,,,,,,,,,,,,,,,,,,,,,,,,,,,,,,,,,,,,,,,,,,,,,,,,,,,,,,,,,,,,,,,,,,,,,,,,,,,,,,,,,,,,,,,,,,,,,,,
,8824,CBA,31/12/2004,001,2023-12-08_14h29.38.153,OS3_Mult_verification,2022.2.4,Win32,60.35731531,,,28,1.911,1,"[""2"",""8"",""return""]","[0.7701000000238594,1.485299999952332,1.8695000000000164]",0,3,3,15,1,28,,,,,,,,,,,,,,,,,,,,,,,,,,,,,,,,,,,,,,,,,,,,,,,,,,,,,,,,,,,,,,,,,,,,,,,,,,,,,,,,,,,,,,,,,,,,,,,,,,,,,,,,,,,,,,,,,,,,,,,,,,,,,,,,,,,,,,,,,,,,,,,,,,,,,,,,,,,,,,,,,
,8824,CBA,31/12/2004,001,2023-12-08_14h29.38.153,OS3_Mult_verification,2022.2.4,Win32,60.35731531,,,45,1.1684,1,"[""4"",""5"",""return""]","[0.7040000000000077,0.9083999999761829,1.1325000000000216]",0,4,4,22,1,45,,,,,,,,,,,,,,,,,,,,,,,,,,,,,,,,,,,,,,,,,,,,,,,,,,,,,,,,,,,,,,,,,,,,,,,,,,,,,,,,,,,,,,,,,,,,,,,,,,,,,,,,,,,,,,,,,,,,,,,,,,,,,,,,,,,,,,,,,,,,,,,,,,,,,,,,,,,,,,,,,
,8824,CBA,31/12/2004,001,2023-12-08_14h29.38.153,OS3_Mult_verification,2022.2.4,Win32,60.35731531,,,18,1.3159,1,"[""1"",""8"",""return""]","[0.6858999999761579,1.0006999999284574,1.2703999999761493]",0,5,5,9,1,18,,,,,,,,,,,,,,,,,,,,,,,,,,,,,,,,,,,,,,,,,,,,,,,,,,,,,,,,,,,,,,,,,,,,,,,,,,,,,,,,,,,,,,,,,,,,,,,,,,,,,,,,,,,,,,,,,,,,,,,,,,,,,,,,,,,,,,,,,,,,,,,,,,,,,,,,,,,,,,,,,
,8824,CBA,31/12/2004,001,2023-12-08_14h29.38.153,OS3_Mult_verification,2022.2.4,Win32,60.35731531,,,36,1.2831,1,"[""3"",""6"",""return""]","[0.7789999999999964,1.0382000000476808,1.2337000000476905]",0,6,6,19,1,36,,,,,,,,,,,,,,,,,,,,,,,,,,,,,,,,,,,,,,,,,,,,,,,,,,,,,,,,,,,,,,,,,,,,,,,,,,,,,,,,,,,,,,,,,,,,,,,,,,,,,,,,,,,,,,,,,,,,,,,,,,,,,,,,,,,,,,,,,,,,,,,,,,,,,,,,,,,,,,,,,
,8824,CBA,31/12/2004,001,2023-12-08_14h29.38.153,OS3_Mult_verification,2022.2.4,Win32,60.35731531,,,72,1.6268,1,"[""7"",""2"",""return""]","[0.9051000000238503,1.3011000000238369,1.5888999999761495]",0,7,7,29,1,72,,,,,,,,,,,,,,,,,,,,,,,,,,,,,,,,,,,,,,,,,,,,,,,,,,,,,,,,,,,,,,,,,,,,,,,,,,,,,,,,,,,,,,,,,,,,,,,,,,,,,,,,,,,,,,,,,,,,,,,,,,,,,,,,,,,,,,,,,,,,,,,,,,,,,,,,,,,,,,,,,
,8824,CBA,31/12/2004,001,2023-12-08_14h29.38.153,OS3_Mult_verification,2022.2.4,Win32,60.35731531,,,30,1.2616,1,"[""3"",""0"",""return""]","[0.6501999999284749,1.0037999999523208,1.2247999999523245]",0,8,8,16,1,30,,,,,,,,,,,,,,,,,,,,,,,,,,,,,,,,,,,,,,,,,,,,,,,,,,,,,,,,,,,,,,,,,,,,,,,,,,,,,,,,,,,,,,,,,,,,,,,,,,,,,,,,,,,,,,,,,,,,,,,,,,,,,,,,,,,,,,,,,,,,,,,,,,,,,,,,,,,,,,,,,
,8824,CBA,31/12/2004,001,2023-12-08_14h29.38.153,OS3_Mult_verification,2022.2.4,Win32,60.35731531,,,81,1.5614,1,"[""8"",""1"",""return""]","[0.8156000000238635,1.207000000000022,1.5177999999523308]",0,9,9,30,1,81,,,,,,,,,,,,,,,,,,,,,,,,,,,,,,,,,,,,,,,,,,,,,,,,,,,,,,,,,,,,,,,,,,,,,,,,,,,,,,,,,,,,,,,,,,,,,,,,,,,,,,,,,,,,,,,,,,,,,,,,,,,,,,,,,,,,,,,,,,,,,,,,,,,,,,,,,,,,,,,,,
,8824,CBA,31/12/2004,001,2023-12-08_14h29.38.153,OS3_Mult_verification,2022.2.4,Win32,60.35731531,,,14,1.2828,1,"[""1"",""4"",""return""]","[0.7068999999761445,0.9512999999523117,1.233200000047674]",0,10,10,6,1,14,,,,,,,,,,,,,,,,,,,,,,,,,,,,,,,,,,,,,,,,,,,,,,,,,,,,,,,,,,,,,,,,,,,,,,,,,,,,,,,,,,,,,,,,,,,,,,,,,,,,,,,,,,,,,,,,,,,,,,,,,,,,,,,,,,,,,,,,,,,,,,,,,,,,,,,,,,,,,,,,,
,8824,CBA,31/12/2004,001,2023-12-08_14h29.38.153,OS3_Mult_verification,2022.2.4,Win32,60.35731531,,,42,1.499,1,"[""4"",""2"",""return""]","[0.7849999999999966,1.1693000000715017,1.4594999999999914]",0,11,11,21,1,42,,,,,,,,,,,,,,,,,,,,,,,,,,,,,,,,,,,,,,,,,,,,,,,,,,,,,,,,,,,,,,,,,,,,,,,,,,,,,,,,,,,,,,,,,,,,,,,,,,,,,,,,,,,,,,,,,,,,,,,,,,,,,,,,,,,,,,,,,,,,,,,,,,,,,,,,,,,,,,,,,
,8824,CBA,31/12/2004,001,2023-12-08_14h29.38.153,OS3_Mult_verification,2022.2.4,Win32,60.35731531,,,48,1.4819,1,"[""4"",""8"",""return""]","[0.8276000000238355,1.2024999999999864,1.4423000000715263]",0,12,12,23,1,48,,,,,,,,,,,,,,,,,,,,,,,,,,,,,,,,,,,,,,,,,,,,,,,,,,,,,,,,,,,,,,,,,,,,,,,,,,,,,,,,,,,,,,,,,,,,,,,,,,,,,,,,,,,,,,,,,,,,,,,,,,,,,,,,,,,,,,,,,,,,,,,,,,,,,,,,,,,,,,,,,
,8824,CBA,31/12/2004,001,2023-12-08_14h29.38.153,OS3_Mult_verification,2022.2.4,Win32,60.35731531,,,54,1.2488,1,"[""5"",""4"",""return""]","[0.7923999999761691,1.035099999904645,1.2163999999761472]",0,13,13,25,1,54,,,,,,,,,,,,,,,,,,,,,,,,,,,,,,,,,,,,,,,,,,,,,,,,,,,,,,,,,,,,,,,,,,,,,,,,,,,,,,,,,,,,,,,,,,,,,,,,,,,,,,,,,,,,,,,,,,,,,,,,,,,,,,,,,,,,,,,,,,,,,,,,,,,,,,,,,,,,,,,,,
,8824,CBA,31/12/2004,001,2023-12-08_14h29.38.153,OS3_Mult_verification,2022.2.4,Win32,60.35731531,,,40,1.683,1,"[""4"",""0"",""return""]","[0.9890000000000043,1.3613999999761575,1.6335999999046464]",0,14,14,20,1,40,,,,,,,,,,,,,,,,,,,,,,,,,,,,,,,,,,,,,,,,,,,,,,,,,,,,,,,,,,,,,,,,,,,,,,,,,,,,,,,,,,,,,,,,,,,,,,,,,,,,,,,,,,,,,,,,,,,,,,,,,,,,,,,,,,,,,,,,,,,,,,,,,,,,,,,,,,,,,,,,,
,8824,CBA,31/12/2004,001,2023-12-08_14h29.38.153,OS3_Mult_verification,2022.2.4,Win32,60.35731531,,,24,1.3494,1,"[""2"",""4"",""return""]","[0.6365000000000123,0.9023999999761543,1.3086000000238585]",0,15,15,12,1,24,,,,,,,,,,,,,,,,,,,,,,,,,,,,,,,,,,,,,,,,,,,,,,,,,,,,,,,,,,,,,,,,,,,,,,,,,,,,,,,,,,,,,,,,,,,,,,,,,,,,,,,,,,,,,,,,,,,,,,,,,,,,,,,,,,,,,,,,,,,,,,,,,,,,,,,,,,,,,,,,,
,8824,CBA,31/12/2004,001,2023-12-08_14h29.38.153,OS3_Mult_verification,2022.2.4,Win32,60.35731531,,,10,1.396,1,"[""1"",""0"",""return""]","[0.6868000000715426,1.073800000071543,1.3498000000715251]",0,16,16,4,1,10,,,,,,,,,,,,,,,,,,,,,,,,,,,,,,,,,,,,,,,,,,,,,,,,,,,,,,,,,,,,,,,,,,,,,,,,,,,,,,,,,,,,,,,,,,,,,,,,,,,,,,,,,,,,,,,,,,,,,,,,,,,,,,,,,,,,,,,,,,,,,,,,,,,,,,,,,,,,,,,,,
,8824,CBA,31/12/2004,001,2023-12-08_14h29.38.153,OS3_Mult_verification,2022.2.4,Win32,60.35731531,,,15,1.2485,1,"[""1"",""5"",""return""]","[0.6273999999761486,0.9604999999999961,1.2037000000476894]",0,17,17,7,1,15,,,,,,,,,,,,,,,,,,,,,,,,,,,,,,,,,,,,,,,,,,,,,,,,,,,,,,,,,,,,,,,,,,,,,,,,,,,,,,,,,,,,,,,,,,,,,,,,,,,,,,,,,,,,,,,,,,,,,,,,,,,,,,,,,,,,,,,,,,,,,,,,,,,,,,,,,,,,,,,,,
,8824,CBA,31/12/2004,001,2023-12-08_14h29.38.153,OS3_Mult_verification,2022.2.4,Win32,60.35731531,,,9,1.1988,1,"[""9"",""return""]","[0.8523999999761429,1.1522999999523051]",0,18,18,3,1,9,,,,,,,,,,,,,,,,,,,,,,,,,,,,,,,,,,,,,,,,,,,,,,,,,,,,,,,,,,,,,,,,,,,,,,,,,,,,,,,,,,,,,,,,,,,,,,,,,,,,,,,,,,,,,,,,,,,,,,,,,,,,,,,,,,,,,,,,,,,,,,,,,,,,,,,,,,,,,,,,,
,8824,CBA,31/12/2004,001,2023-12-08_14h29.38.153,OS3_Mult_verification,2022.2.4,Win32,60.35731531,,,56,1.1328,1,"[""5"",""6"",""return""]","[0.7268000000715062,0.9027000000476733,1.1004999999999825]",0,19,19,26,1,56,,,,,,,,,,,,,,,,,,,,,,,,,,,,,,,,,,,,,,,,,,,,,,,,,,,,,,,,,,,,,,,,,,,,,,,,,,,,,,,,,,,,,,,,,,,,,,,,,,,,,,,,,,,,,,,,,,,,,,,,,,,,,,,,,,,,,,,,,,,,,,,,,,,,,,,,,,,,,,,,,
,8824,CBA,31/12/2004,001,2023-12-08_14h29.38.153,OS3_Mult_verification,2022.2.4,Win32,60.35731531,,,4,1.0768,1,"[""4"",""return""]","[0.8337000000476849,1.0451000000238366]",0,20,20,0,1,4,,,,,,,,,,,,,,,,,,,,,,,,,,,,,,,,,,,,,,,,,,,,,,,,,,,,,,,,,,,,,,,,,,,,,,,,,,,,,,,,,,,,,,,,,,,,,,,,,,,,,,,,,,,,,,,,,,,,,,,,,,,,,,,,,,,,,,,,,,,,,,,,,,,,,,,,,,,,,,,,,
,8824,CBA,31/12/2004,001,2023-12-08_14h29.38.153,OS3_Mult_verification,2022.2.4,Win32,60.35731531,,,25,1.2152,1,"[""2"",""5"",""return""]","[0.6357000000477058,0.9339999999999975,1.1830000000000211]",0,21,21,13,1,25,,,,,,,,,,,,,,,,,,,,,,,,,,,,,,,,,,,,,,,,,,,,,,,,,,,,,,,,,,,,,,,,,,,,,,,,,,,,,,,,,,,,,,,,,,,,,,,,,,,,,,,,,,,,,,,,,,,,,,,,,,,,,,,,,,,,,,,,,,,,,,,,,,,,,,,,,,,,,,,,,
,8824,CBA,31/12/2004,001,2023-12-08_14h29.38.153,OS3_Mult_verification,2022.2.4,Win32,60.35731531,,,6,0.9991,1,"[""6"",""return""]","[0.7560000000000002,0.9596999999284606]",0,22,22,1,1,6,,,,,,,,,,,,,,,,,,,,,,,,,,,,,,,,,,,,,,,,,,,,,,,,,,,,,,,,,,,,,,,,,,,,,,,,,,,,,,,,,,,,,,,,,,,,,,,,,,,,,,,,,,,,,,,,,,,,,,,,,,,,,,,,,,,,,,,,,,,,,,,,,,,,,,,,,,,,,,,,,
,8824,CBA,31/12/2004,001,2023-12-08_14h29.38.153,OS3_Mult_verification,2022.2.4,Win32,60.35731531,,,20,1.2325,1,"[""2"",""0"",""return""]","[0.6503999999761447,1.0196000000238428,1.1908999999761534]",0,23,23,10,1,20,,,,,,,,,,,,,,,,,,,,,,,,,,,,,,,,,,,,,,,,,,,,,,,,,,,,,,,,,,,,,,,,,,,,,,,,,,,,,,,,,,,,,,,,,,,,,,,,,,,,,,,,,,,,,,,,,,,,,,,,,,,,,,,,,,,,,,,,,,,,,,,,,,,,,,,,,,,,,,,,,
,8824,CBA,31/12/2004,001,2023-12-08_14h29.38.153,OS3_Mult_verification,2022.2.4,Win32,60.35731531,,,35,1.4381,1,"[""3"",""5"",""return""]","[0.7607999999523258,1.0738999999761631,1.3838999999761654]",0,24,24,18,1,35,,,,,,,,,,,,,,,,,,,,,,,,,,,,,,,,,,,,,,,,,,,,,,,,,,,,,,,,,,,,,,,,,,,,,,,,,,,,,,,,,,,,,,,,,,,,,,,,,,,,,,,,,,,,,,,,,,,,,,,,,,,,,,,,,,,,,,,,,,,,,,,,,,,,,,,,,,,,,,,,,
,8824,CBA,31/12/2004,001,2023-12-08_14h29.38.153,OS3_Mult_verification,2022.2.4,Win32,60.35731531,,,21,1.0825,1,"[""2"",""1"",""return""]","[0.623500000000007,0.8487999999523197,1.0502999999523297]",0,25,25,11,1,21,,,,,,,,,,,,,,,,,,,,,,,,,,,,,,,,,,,,,,,,,,,,,,,,,,,,,,,,,,,,,,,,,,,,,,,,,,,,,,,,,,,,,,,,,,,,,,,,,,,,,,,,,,,,,,,,,,,,,,,,,,,,,,,,,,,,,,,,,,,,,,,,,,,,,,,,,,,,,,,,,
,8824,CBA,31/12/2004,001,2023-12-08_14h29.38.153,OS3_Mult_verification,2022.2.4,Win32,60.35731531,,,32,1.0672,1,"[""3"",""2"",""return""]","[0.6376000000238378,0.8504000000953624,1.0324999999999989]",0,26,26,17,1,32,,,,,,,,,,,,,,,,,,,,,,,,,,,,,,,,,,,,,,,,,,,,,,,,,,,,,,,,,,,,,,,,,,,,,,,,,,,,,,,,,,,,,,,,,,,,,,,,,,,,,,,,,,,,,,,,,,,,,,,,,,,,,,,,,,,,,,,,,,,,,,,,,,,,,,,,,,,,,,,,,
,8824,CBA,31/12/2004,001,2023-12-08_14h29.38.153,OS3_Mult_verification,2022.2.4,Win32,60.35731531,,,16,1.2212,1,"[""1"",""6"",""return""]","[0.6543000000715438,0.9870000000000232,1.1839999999999975]",0,27,27,8,1,16,,,,,,,,,,,,,,,,,,,,,,,,,,,,,,,,,,,,,,,,,,,,,,,,,,,,,,,,,,,,,,,,,,,,,,,,,,,,,,,,,,,,,,,,,,,,,,,,,,,,,,,,,,,,,,,,,,,,,,,,,,,,,,,,,,,,,,,,,,,,,,,,,,,,,,,,,,,,,,,,,
,8824,CBA,31/12/2004,001,2023-12-08_14h29.38.153,OS3_Mult_verification,2022.2.4,Win32,60.35731531,,,8,1.0541,1,"[""8"",""return""]","[0.8592999999522988,1.0168999999761468]",0,28,28,2,1,8,,,,,,,,,,,,,,,,,,,,,,,,,,,,,,,,,,,,,,,,,,,,,,,,,,,,,,,,,,,,,,,,,,,,,,,,,,,,,,,,,,,,,,,,,,,,,,,,,,,,,,,,,,,,,,,,,,,,,,,,,,,,,,,,,,,,,,,,,,,,,,,,,,,,,,,,,,,,,,,,,
,8824,CBA,31/12/2004,001,2023-12-08_14h29.38.153,OS3_Mult_verification,2022.2.4,Win32,60.35731531,,,12,1.0159,1,"[""1"",""2"",""return""]","[0.5916999999284656,0.7846999999284776,0.9725999999046451]",0,29,29,5,1,12,,,,,,,,,,,,,,,,,,,,,,,,,,,,,,,,,,,,,,,,,,,,,,,,,,,,,,,,,,,,,,,,,,,,,,,,,,,,,,,,,,,,,,,,,,,,,,,,,,,,,,,,,,,,,,,,,,,,,,,,,,,,,,,,,,,,,,,,,,,,,,,,,,,,,,,,,,,,,,,,,
,8824,CBA,31/12/2004,001,2023-12-08_14h29.38.153,OS3_Mult_verification,2022.2.4,Win32,60.35731531,,,27,1.2491,1,"[""2"",""7"",""return""]","[0.6693999999761502,0.9913999999761529,1.2001999999284862]",0,30,30,14,1,27,,,,,,,,,,,,,,,,,,,,,,,,,,,,,,,,,,,,,,,,,,,,,,,,,,,,,,,,,,,,,,,,,,,,,,,,,,,,,,,,,,,,,,,,,,,,,,,,,,,,,,,,,,,,,,,,,,,,,,,,,,,,,,,,,,,,,,,,,,,,,,,,,,,,,,,,,,,,,,,,,
,8824,CBA,31/12/2004,001,2023-12-08_14h29.38.153,OS3_Mult_verification,2022.2.4,Win32,60.35731531,,,20,1.2326,1,"[""2"",""0"",""return""]","[0.5828999999761493,0.9340999999046176,1.1853999999761413]",1,0,31,10,1,20,,,,,,,,,,,,,,,,,,,,,,,,,,,,,,,,,,,,,,,,,,,,,,,,,,,,,,,,,,,,,,,,,,,,,,,,,,,,,,,,,,,,,,,,,,,,,,,,,,,,,,,,,,,,,,,,,,,,,,,,,,,,,,,,,,,,,,,,,,,,,,,,,,,,,,,,,,,,,,,,,
,8824,CBA,31/12/2004,001,2023-12-08_14h29.38.153,OS3_Mult_verification,2022.2.4,Win32,60.35731531,,,30,1.1613,1,"[""3"",""0"",""return""]","[0.5869999999999891,0.9391000000238421,1.1271000000238303]",1,1,32,16,1,30,,,,,,,,,,,,,,,,,,,,,,,,,,,,,,,,,,,,,,,,,,,,,,,,,,,,,,,,,,,,,,,,,,,,,,,,,,,,,,,,,,,,,,,,,,,,,,,,,,,,,,,,,,,,,,,,,,,,,,,,,,,,,,,,,,,,,,,,,,,,,,,,,,,,,,,,,,,,,,,,,
,8824,CBA,31/12/2004,001,2023-12-08_14h29.38.153,OS3_Mult_verification,2022.2.4,Win32,60.35731531,,,6,0.949,1,"[""6"",""return""]","[0.76010000002384,0.9086000000238528]",1,2,33,1,1,6,,,,,,,,,,,,,,,,,,,,,,,,,,,,,,,,,,,,,,,,,,,,,,,,,,,,,,,,,,,,,,,,,,,,,,,,,,,,,,,,,,,,,,,,,,,,,,,,,,,,,,,,,,,,,,,,,,,,,,,,,,,,,,,,,,,,,,,,,,,,,,,,,,,,,,,,,,,,,,,,,
,8824,CBA,31/12/2004,001,2023-12-08_14h29.38.153,OS3_Mult_verification,2022.2.4,Win32,60.35731531,,,45,1.1948,1,"[""4"",""5"",""return""]","[0.7909999999999968,0.961900000095369,1.1557000000476876]",1,3,34,22,1,45,,,,,,,,,,,,,,,,,,,,,,,,,,,,,,,,,,,,,,,,,,,,,,,,,,,,,,,,,,,,,,,,,,,,,,,,,,,,,,,,,,,,,,,,,,,,,,,,,,,,,,,,,,,,,,,,,,,,,,,,,,,,,,,,,,,,,,,,,,,,,,,,,,,,,,,,,,,,,,,,,
,8824,CBA,31/12/2004,001,2023-12-08_14h29.38.153,OS3_Mult_verification,2022.2.4,Win32,60.35731531,,,18,1.2372,1,"[""1"",""8"",""return""]","[0.6939000000953683,1.0032000000476842,1.1839999999999975]",1,4,35,9,1,18,,,,,,,,,,,,,,,,,,,,,,,,,,,,,,,,,,,,,,,,,,,,,,,,,,,,,,,,,,,,,,,,,,,,,,,,,,,,,,,,,,,,,,,,,,,,,,,,,,,,,,,,,,,,,,,,,,,,,,,,,,,,,,,,,,,,,,,,,,,,,,,,,,,,,,,,,,,,,,,,,
,8824,CBA,31/12/2004,001,2023-12-08_14h29.38.153,OS3_Mult_verification,2022.2.4,Win32,60.35731531,,,25,1.1494,1,"[""2"",""5"",""return""]","[0.5852000000477062,0.8733999999761579,1.1057000000476762]",1,5,36,13,1,25,,,,,,,,,,,,,,,,,,,,,,,,,,,,,,,,,,,,,,,,,,,,,,,,,,,,,,,,,,,,,,,,,,,,,,,,,,,,,,,,,,,,,,,,,,,,,,,,,,,,,,,,,,,,,,,,,,,,,,,,,,,,,,,,,,,,,,,,,,,,,,,,,,,,,,,,,,,,,,,,,
,8824,CBA,31/12/2004,001,2023-12-08_14h29.38.153,OS3_Mult_verification,2022.2.4,Win32,60.35731531,,,72,1.5662,1,"[""7"",""2"",""return""]","[0.8531000000238578,1.3381000000238714,1.5209000000953665]",1,6,37,29,1,72,,,,,,,,,,,,,,,,,,,,,,,,,,,,,,,,,,,,,,,,,,,,,,,,,,,,,,,,,,,,,,,,,,,,,,,,,,,,,,,,,,,,,,,,,,,,,,,,,,,,,,,,,,,,,,,,,,,,,,,,,,,,,,,,,,,,,,,,,,,,,,,,,,,,,,,,,,,,,,,,,
,8824,CBA,31/12/2004,001,2023-12-08_14h29.38.153,OS3_Mult_verification,2022.2.4,Win32,60.35731531,,,4,0.8488,1,"[""4"",""return""]","[0.6263999999761722,0.8045999999046103]",1,7,38,0,1,4,,,,,,,,,,,,,,,,,,,,,,,,,,,,,,,,,,,,,,,,,,,,,,,,,,,,,,,,,,,,,,,,,,,,,,,,,,,,,,,,,,,,,,,,,,,,,,,,,,,,,,,,,,,,,,,,,,,,,,,,,,,,,,,,,,,,,,,,,,,,,,,,,,,,,,,,,,,,,,,,,
,8824,CBA,31/12/2004,001,2023-12-08_14h29.38.153,OS3_Mult_verification,2022.2.4,Win32,60.35731531,,,48,1.1824,1,"[""4"",""8"",""return""]","[0.7256999999284517,1.0172999999522858,1.1401000000238355]",1,8,39,23,1,48,,,,,,,,,,,,,,,,,,,,,,,,,,,,,,,,,,,,,,,,,,,,,,,,,,,,,,,,,,,,,,,,,,,,,,,,,,,,,,,,,,,,,,,,,,,,,,,,,,,,,,,,,,,,,,,,,,,,,,,,,,,,,,,,,,,,,,,,,,,,,,,,,,,,,,,,,,,,,,,,,
,8824,CBA,31/12/2004,001,2023-12-08_14h29.38.153,OS3_Mult_verification,2022.2.4,Win32,60.35731531,,,63,1.3655,1,"[""6"",""3"",""return""]","[0.7381999999284403,1.0708999999761204,1.3173999999761463]",1,9,40,27,1,63,,,,,,,,,,,,,,,,,,,,,,,,,,,,,,,,,,,,,,,,,,,,,,,,,,,,,,,,,,,,,,,,,,,,,,,,,,,,,,,,,,,,,,,,,,,,,,,,,,,,,,,,,,,,,,,,,,,,,,,,,,,,,,,,,,,,,,,,,,,,,,,,,,,,,,,,,,,,,,,,,
,8824,CBA,31/12/2004,001,2023-12-08_14h29.38.153,OS3_Mult_verification,2022.2.4,Win32,60.35731531,,,21,0.982,1,"[""2"",""1"",""return""]","[0.5559000000953347,0.6742000000476764,0.9449000000953447]",1,10,41,11,1,21,,,,,,,,,,,,,,,,,,,,,,,,,,,,,,,,,,,,,,,,,,,,,,,,,,,,,,,,,,,,,,,,,,,,,,,,,,,,,,,,,,,,,,,,,,,,,,,,,,,,,,,,,,,,,,,,,,,,,,,,,,,,,,,,,,,,,,,,,,,,,,,,,,,,,,,,,,,,,,,,,
,8824,CBA,31/12/2004,001,2023-12-08_14h29.38.153,OS3_Mult_verification,2022.2.4,Win32,60.35731531,,,56,1.0657,1,"[""5"",""6"",""return""]","[0.6554999999999609,0.8267000000476514,1.0198999999761327]",1,11,42,26,1,56,,,,,,,,,,,,,,,,,,,,,,,,,,,,,,,,,,,,,,,,,,,,,,,,,,,,,,,,,,,,,,,,,,,,,,,,,,,,,,,,,,,,,,,,,,,,,,,,,,,,,,,,,,,,,,,,,,,,,,,,,,,,,,,,,,,,,,,,,,,,,,,,,,,,,,,,,,,,,,,,,
,8824,CBA,31/12/2004,001,2023-12-08_14h29.38.153,OS3_Mult_verification,2022.2.4,Win32,60.35731531,,,8,0.9332,1,"[""8"",""return""]","[0.7287999999522867,0.8847000000476442]",1,12,43,2,1,8,,,,,,,,,,,,,,,,,,,,,,,,,,,,,,,,,,,,,,,,,,,,,,,,,,,,,,,,,,,,,,,,,,,,,,,,,,,,,,,,,,,,,,,,,,,,,,,,,,,,,,,,,,,,,,,,,,,,,,,,,,,,,,,,,,,,,,,,,,,,,,,,,,,,,,,,,,,,,,,,,
,8824,CBA,31/12/2004,001,2023-12-08_14h29.38.153,OS3_Mult_verification,2022.2.4,Win32,60.35731531,,,27,1.1153,1,"[""2"",""7"",""return""]","[0.5856999999284653,0.8736999999284762,1.0815000000000055]",1,13,44,14,1,27,,,,,,,,,,,,,,,,,,,,,,,,,,,,,,,,,,,,,,,,,,,,,,,,,,,,,,,,,,,,,,,,,,,,,,,,,,,,,,,,,,,,,,,,,,,,,,,,,,,,,,,,,,,,,,,,,,,,,,,,,,,,,,,,,,,,,,,,,,,,,,,,,,,,,,,,,,,,,,,,,
,8824,CBA,31/12/2004,001,2023-12-08_14h29.38.153,OS3_Mult_verification,2022.2.4,Win32,60.35731531,,,36,1.2317,1,"[""3"",""6"",""return""]","[0.7358999999761977,0.9882999999523463,1.1872999999523586]",1,14,45,19,1,36,,,,,,,,,,,,,,,,,,,,,,,,,,,,,,,,,,,,,,,,,,,,,,,,,,,,,,,,,,,,,,,,,,,,,,,,,,,,,,,,,,,,,,,,,,,,,,,,,,,,,,,,,,,,,,,,,,,,,,,,,,,,,,,,,,,,,,,,,,,,,,,,,,,,,,,,,,,,,,,,,
,8824,CBA,31/12/2004,001,2023-12-08_14h29.38.153,OS3_Mult_verification,2022.2.4,Win32,60.35731531,,,16,1.2489,1,"[""1"",""6"",""return""]","[0.6406000000238237,1.001900000095361,1.2053000000715315]",1,15,46,8,1,16,,,,,,,,,,,,,,,,,,,,,,,,,,,,,,,,,,,,,,,,,,,,,,,,,,,,,,,,,,,,,,,,,,,,,,,,,,,,,,,,,,,,,,,,,,,,,,,,,,,,,,,,,,,,,,,,,,,,,,,,,,,,,,,,,,,,,,,,,,,,,,,,,,,,,,,,,,,,,,,,,
,8824,CBA,31/12/2004,001,2023-12-08_14h29.38.153,OS3_Mult_verification,2022.2.4,Win32,60.35731531,,,15,1.2535,1,"[""1"",""5"",""return""]","[0.675599999904648,0.9841999999284781,1.2152999999523217]",1,16,47,7,1,15,,,,,,,,,,,,,,,,,,,,,,,,,,,,,,,,,,,,,,,,,,,,,,,,,,,,,,,,,,,,,,,,,,,,,,,,,,,,,,,,,,,,,,,,,,,,,,,,,,,,,,,,,,,,,,,,,,,,,,,,,,,,,,,,,,,,,,,,,,,,,,,,,,,,,,,,,,,,,,,,,
,8824,CBA,31/12/2004,001,2023-12-08_14h29.38.153,OS3_Mult_verification,2022.2.4,Win32,60.35731531,,,81,1.5652,1,"[""8"",""1"",""return""]","[0.9182999999523531,1.2672999999523427,1.5267999999523454]",1,17,48,30,1,81,,,,,,,,,,,,,,,,,,,,,,,,,,,,,,,,,,,,,,,,,,,,,,,,,,,,,,,,,,,,,,,,,,,,,,,,,,,,,,,,,,,,,,,,,,,,,,,,,,,,,,,,,,,,,,,,,,,,,,,,,,,,,,,,,,,,,,,,,,,,,,,,,,,,,,,,,,,,,,,,,
,8824,CBA,31/12/2004,001,2023-12-08_14h29.38.153,OS3_Mult_verification,2022.2.4,Win32,60.35731531,,,64,1.3458,1,"[""6"",""4"",""return""]","[0.8347000000476896,1.0889000000953502,1.3076000000238537]",1,18,49,28,1,64,,,,,,,,,,,,,,,,,,,,,,,,,,,,,,,,,,,,,,,,,,,,,,,,,,,,,,,,,,,,,,,,,,,,,,,,,,,,,,,,,,,,,,,,,,,,,,,,,,,,,,,,,,,,,,,,,,,,,,,,,,,,,,,,,,,,,,,,,,,,,,,,,,,,,,,,,,,,,,,,,
,8824,CBA,31/12/2004,001,2023-12-08_14h29.38.153,OS3_Mult_verification,2022.2.4,Win32,60.35731531,,,35,1.1937,1,"[""3"",""5"",""return""]","[0.7175000000000296,0.9518999999762059,1.1566000000238432]",1,19,50,18,1,35,,,,,,,,,,,,,,,,,,,,,,,,,,,,,,,,,,,,,,,,,,,,,,,,,,,,,,,,,,,,,,,,,,,,,,,,,,,,,,,,,,,,,,,,,,,,,,,,,,,,,,,,,,,,,,,,,,,,,,,,,,,,,,,,,,,,,,,,,,,,,,,,,,,,,,,,,,,,,,,,,
,8824,CBA,31/12/2004,001,2023-12-08_14h29.38.153,OS3_Mult_verification,2022.2.4,Win32,60.35731531,,,14,1.1156,1,"[""1"",""4"",""return""]","[0.5842999999522931,0.8486000000237937,1.0752999999522785]",1,20,51,6,1,14,,,,,,,,,,,,,,,,,,,,,,,,,,,,,,,,,,,,,,,,,,,,,,,,,,,,,,,,,,,,,,,,,,,,,,,,,,,,,,,,,,,,,,,,,,,,,,,,,,,,,,,,,,,,,,,,,,,,,,,,,,,,,,,,,,,,,,,,,,,,,,,,,,,,,,,,,,,,,,,,,
,8824,CBA,31/12/2004,001,2023-12-08_14h29.38.153,OS3_Mult_verification,2022.2.4,Win32,60.35731531,,,24,1.1707,1,"[""2"",""4"",""return""]","[0.6321000000238541,0.9166999999284826,1.1223999999761531]",1,21,52,12,1,24,,,,,,,,,,,,,,,,,,,,,,,,,,,,,,,,,,,,,,,,,,,,,,,,,,,,,,,,,,,,,,,,,,,,,,,,,,,,,,,,,,,,,,,,,,,,,,,,,,,,,,,,,,,,,,,,,,,,,,,,,,,,,,,,,,,,,,,,,,,,,,,,,,,,,,,,,,,,,,,,,
,8824,CBA,31/12/2004,001,2023-12-08_14h29.38.153,OS3_Mult_verification,2022.2.4,Win32,60.35731531,,,42,1.3327,1,"[""4"",""2"",""return""]","[0.720100000023848,1.0941000000238716,1.292700000047688]",1,22,53,21,1,42,,,,,,,,,,,,,,,,,,,,,,,,,,,,,,,,,,,,,,,,,,,,,,,,,,,,,,,,,,,,,,,,,,,,,,,,,,,,,,,,,,,,,,,,,,,,,,,,,,,,,,,,,,,,,,,,,,,,,,,,,,,,,,,,,,,,,,,,,,,,,,,,,,,,,,,,,,,,,,,,,
,8824,CBA,31/12/2004,001,2023-12-08_14h29.38.153,OS3_Mult_verification,2022.2.4,Win32,60.35731531,,,10,1.1996,1,"[""1"",""0"",""return""]","[0.5840000000000032,0.944899999976144,1.1492999999522908]",1,23,54,4,1,10,,,,,,,,,,,,,,,,,,,,,,,,,,,,,,,,,,,,,,,,,,,,,,,,,,,,,,,,,,,,,,,,,,,,,,,,,,,,,,,,,,,,,,,,,,,,,,,,,,,,,,,,,,,,,,,,,,,,,,,,,,,,,,,,,,,,,,,,,,,,,,,,,,,,,,,,,,,,,,,,,
,8824,CBA,31/12/2004,001,2023-12-08_14h29.38.153,OS3_Mult_verification,2022.2.4,Win32,60.35731531,,,49,1.4157,1,"[""4"",""9"",""return""]","[0.8091999999284667,1.1529999999999632,1.3742999999523136]",1,24,55,24,1,49,,,,,,,,,,,,,,,,,,,,,,,,,,,,,,,,,,,,,,,,,,,,,,,,,,,,,,,,,,,,,,,,,,,,,,,,,,,,,,,,,,,,,,,,,,,,,,,,,,,,,,,,,,,,,,,,,,,,,,,,,,,,,,,,,,,,,,,,,,,,,,,,,,,,,,,,,,,,,,,,,
,8824,CBA,31/12/2004,001,2023-12-08_14h29.38.153,OS3_Mult_verification,2022.2.4,Win32,60.35731531,,,12,0.9774,1,"[""1"",""2"",""return""]","[0.5834000000953665,0.759700000047701,0.9452000000476914]",1,25,56,5,1,12,,,,,,,,,,,,,,,,,,,,,,,,,,,,,,,,,,,,,,,,,,,,,,,,,,,,,,,,,,,,,,,,,,,,,,,,,,,,,,,,,,,,,,,,,,,,,,,,,,,,,,,,,,,,,,,,,,,,,,,,,,,,,,,,,,,,,,,,,,,,,,,,,,,,,,,,,,,,,,,,,
,8824,CBA,31/12/2004,001,2023-12-08_14h29.38.153,OS3_Mult_verification,2022.2.4,Win32,60.35731531,,,54,1.1538,1,"[""5"",""4"",""return""]","[0.7017000000477083,0.9207000000477024,1.1083000000715515]",1,26,57,25,1,54,,,,,,,,,,,,,,,,,,,,,,,,,,,,,,,,,,,,,,,,,,,,,,,,,,,,,,,,,,,,,,,,,,,,,,,,,,,,,,,,,,,,,,,,,,,,,,,,,,,,,,,,,,,,,,,,,,,,,,,,,,,,,,,,,,,,,,,,,,,,,,,,,,,,,,,,,,,,,,,,,
,8824,CBA,31/12/2004,001,2023-12-08_14h29.38.153,OS3_Mult_verification,2022.2.4,Win32,60.35731531,,,32,1.1823,1,"[""3"",""2"",""return""]","[0.6778999999761481,0.9358999999761295,1.1361000000238164]",1,27,58,17,1,32,,,,,,,,,,,,,,,,,,,,,,,,,,,,,,,,,,,,,,,,,,,,,,,,,,,,,,,,,,,,,,,,,,,,,,,,,,,,,,,,,,,,,,,,,,,,,,,,,,,,,,,,,,,,,,,,,,,,,,,,,,,,,,,,,,,,,,,,,,,,,,,,,,,,,,,,,,,,,,,,,
,8824,CBA,31/12/2004,001,2023-12-08_14h29.38.153,OS3_Mult_verification,2022.2.4,Win32,60.35731531,,,9,1.0163,1,"[""9"",""return""]","[0.8097999999523608,0.9683999999761568]",1,28,59,3,1,9,,,,,,,,,,,,,,,,,,,,,,,,,,,,,,,,,,,,,,,,,,,,,,,,,,,,,,,,,,,,,,,,,,,,,,,,,,,,,,,,,,,,,,,,,,,,,,,,,,,,,,,,,,,,,,,,,,,,,,,,,,,,,,,,,,,,,,,,,,,,,,,,,,,,,,,,,,,,,,,,,
,8824,CBA,31/12/2004,001,2023-12-08_14h29.38.153,OS3_Mult_verification,2022.2.4,Win32,60.35731531,,,28,1.3495,1,"[""2"",""8"",""return""]","[0.785699999928454,1.1158999999761363,1.3001999999284521]",1,29,60,15,1,28,,,,,,,,,,,,,,,,,,,,,,,,,,,,,,,,,,,,,,,,,,,,,,,,,,,,,,,,,,,,,,,,,,,,,,,,,,,,,,,,,,,,,,,,,,,,,,,,,,,,,,,,,,,,,,,,,,,,,,,,,,,,,,,,,,,,,,,,,,,,,,,,,,,,,,,,,,,,,,,,,
,8824,CBA,31/12/2004,001,2023-12-08_14h29.38.153,OS3_Mult_verification,2022.2.4,Win32,60.35731531,,,40,1.1495,1,"[""4"",""0"",""return""]","[0.5876000000238264,0.9182000000477046,1.1153999999761481]",1,30,61,20,1,40,,,,,,,,,,,,,,,,,,,,,,,,,,,,,,,,,,,,,,,,,,,,,,,,,,,,,,,,,,,,,,,,,,,,,,,,,,,,,,,,,,,,,,,,,,,,,,,,,,,,,,,,,,,,,,,,,,,,,,,,,,,,,,,,,,,,,,,,,,,,,,,,,,,,,,,,,,,,,,,,,
,8824,CBA,31/12/2004,001,2023-12-08_14h29.38.153,OS3_Mult_verification,2022.2.4,Win32,60.35731531,,,,,,,,,,,,,,space,2.9556,,,,,,,,,,,,,,,,,,,,,,,,,,,,,,,,,,,,,,,,,,,,,,,,,,,,,,,,,,,,,,,,,,,,,,,,,,,,,,,,,,,,,,,,,,,,,,,,,,,,,,,,,,,,,,,,,,,,,,,,,,,,,,,,,,,,,,,,,,,,,,,,,,,,,,,,,,,,,,,
,8824,CBA,31/12/2004,001,2023-12-08_14h29.38.153,OS3_Mult_verification,2022.2.4,Win32,60.35731531,,,,,,,,,,,,,,,,,,,,,,,,,,,,,,,,,,,,,,,,,,,,,,,,,,,,,,,,,,,,,,,,,,,,,,,,,,,,,,,,,,,,,,,,,,,,,,,,,,,,,,,,,,,,,,,,,,,,,,,,,,,,,,,,,,,,,,,,,,,,,,,,,,,,,,,,,,,,,,,,,,,,,,,,,,,,,,
,8824,CBA,31/12/2004,001,2023-12-08_14h29.38.153,OS3_Mult_verification,2022.2.4,Win32,60.35731531,,,,,,,,,,,,,,,,space,2.8447,,,,,,,,,,,,,,,,,,,,,,,,,,,,,,,,,,,,,,,,,,,,,,,,,,,,,,,,,,,,,,,,,,,,,,,,,,,,,,,,,,,,,,,,,,,,,,,,,,,,,,,,,,,,,,,,,,,,,,,,,,,,,,,,,,,,,,,,,,,,,,,,,,,,,,,,,,,,,
,8824,CBA,31/12/2004,001,2023-12-08_14h29.38.153,OS3_Mult_verification,2022.2.4,Win32,60.35731531,,,,,,,,,,,,,,,,,,20,2.3297,1,"[""2"",""0"",""return""]","[1.14939999997614,1.5148000000714887,2.024600000023838]",0,0,0,1,1,2 × 10 =,20,,,,,,,,,,,,,,,,,,,,,,,,,,,,,,,,,,,,,,,,,,,,,,,,,,,,,,,,,,,,,,,,,,,,,,,,,,,,,,,,,,,,,,,,,,,,,,,,,,,,,,,,,,,,,,,,,,,,,,,,,,,,,,,,,,,,,,,,,,,,,,,,,
,8824,CBA,31/12/2004,001,2023-12-08_14h29.38.153,OS3_Mult_verification,2022.2.4,Win32,60.35731531,,,,,,,,,,,,,,,,,,22,1.8194,1,"[""2"",""2"",""return""]","[1.0548000000715092,1.2138000000715579,1.5369999999999777]",0,1,1,2,1,2 × 11 =,22,,,,,,,,,,,,,,,,,,,,,,,,,,,,,,,,,,,,,,,,,,,,,,,,,,,,,,,,,,,,,,,,,,,,,,,,,,,,,,,,,,,,,,,,,,,,,,,,,,,,,,,,,,,,,,,,,,,,,,,,,,,,,,,,,,,,,,,,,,,,,,,,,
,8824,CBA,31/12/2004,001,2023-12-08_14h29.38.153,OS3_Mult_verification,2022.2.4,Win32,60.35731531,,,,,,,,,,,,,,,,,,7,1.4312,1,"[""7"",""return""]","[0.896000000000015,1.1364000000953638]",0,2,2,0,1,1 × 7 =,7,,,,,,,,,,,,,,,,,,,,,,,,,,,,,,,,,,,,,,,,,,,,,,,,,,,,,,,,,,,,,,,,,,,,,,,,,,,,,,,,,,,,,,,,,,,,,,,,,,,,,,,,,,,,,,,,,,,,,,,,,,,,,,,,,,,,,,,,,,,,,,,,,
,8824,CBA,31/12/2004,001,2023-12-08_14h29.38.153,OS3_Mult_verification,2022.2.4,Win32,60.35731531,,,,,,,,,,,,,,,,,,,,,,,,,,,,,,,,,,,,,,,,,,,,,,,,,,,,,,,,,,,,,,,,,,,,,,,,,,,,,,,,,,,,,,,,,,,,,,,,,,,,,,,,,,,,,,,,,,,,,,,,,,,,,,,,,,,,,,,,,,,,,,,,,,,,,,,,,,,,,,,,,,,,,,,,,,,,,,
,8824,CBA,31/12/2004,001,2023-12-08_14h29.38.153,OS3_Mult_verification,2022.2.4,Win32,60.35731531,,,,,,,,,,,,,,,,,,,,,,,,,,,,,,,,,,,,,,,,,,,,,,,,,,,,,,,,,,,,,,,,,,,,,,,,,,,,,,,,,,,,,,,,,,,,,,,,,,,,,,,,,,,,,,,,,,,,,,,,,,,,,,,,,,,,,,,,,,,,,,,,,,,,,,,,,,,,,,,,,,,,,,,,,,,,,,
,8824,CBA,31/12/2004,001,2023-12-08_14h29.38.153,OS3_Mult_verification,2022.2.4,Win32,60.35731531,,,,,,,,,,,,,,,,,,6,1.9661,1,"[""6"",""return""]","[1.268599999904609,1.6775999999046576]",,,,,,2 × 3 =,6,0,0,0,0,1,,,,,,,,,,,,,,,,,,,,,,,,,,,,,,,,,,,,,,,,,,,,,,,,,,,,,,,,,,,,,,,,,,,,,,,,,,,,,,,,,,,,,,,,,,,,,,,,,,,,,,,,,,,,,,,,,,,,,,,,,,,,,,,,,,,,,,,,,,,,
,8824,CBA,31/12/2004,001,2023-12-08_14h29.38.153,OS3_Mult_verification,2022.2.4,Win32,60.35731531,,,,,,,,,,,,,,,,,,40,2.1489,1,"[""4"",""0"",""return""]","[1.1011000000238482,1.4866000000238273,1.86129999995228]",,,,,,5 × 8 =,40,0,1,1,1,1,,,,,,,,,,,,,,,,,,,,,,,,,,,,,,,,,,,,,,,,,,,,,,,,,,,,,,,,,,,,,,,,,,,,,,,,,,,,,,,,,,,,,,,,,,,,,,,,,,,,,,,,,,,,,,,,,,,,,,,,,,,,,,,,,,,,,,,,,,,,
,8824,CBA,31/12/2004,001,2023-12-08_14h29.38.153,OS3_Mult_verification,2022.2.4,Win32,60.35731531,,,,,,,,,,,,,,,,,,12,1.8159,1,"[""1"",""2"",""return""]","[1.065499999999986,1.2555999999046321,1.5371999999284753]",,,,,,3 × 4 =,12,0,2,2,2,1,,,,,,,,,,,,,,,,,,,,,,,,,,,,,,,,,,,,,,,,,,,,,,,,,,,,,,,,,,,,,,,,,,,,,,,,,,,,,,,,,,,,,,,,,,,,,,,,,,,,,,,,,,,,,,,,,,,,,,,,,,,,,,,,,,,,,,,,,,,,
,8824,CBA,31/12/2004,001,2023-12-08_14h29.38.153,OS3_Mult_verification,2022.2.4,Win32,60.35731531,,,,,,,,,,,,,,,,,,15,2.099,1,"[""1"",""5"",""return""]","[1.065999999999974,1.413000000000011,1.8142000000476628]",,,,,,5 × 3 =,15,0,3,3,3,1,,,,,,,,,,,,,,,,,,,,,,,,,,,,,,,,,,,,,,,,,,,,,,,,,,,,,,,,,,,,,,,,,,,,,,,,,,,,,,,,,,,,,,,,,,,,,,,,,,,,,,,,,,,,,,,,,,,,,,,,,,,,,,,,,,,,,,,,,,,,
,8824,CBA,31/12/2004,001,2023-12-08_14h29.38.153,OS3_Mult_verification,2022.2.4,Win32,60.35731531,,,,,,,,,,,,,,,,,,8,1.5328,1,"[""8"",""return""]","[1.0178000000715315,1.2292000000476833]",,,,,,2 × 4 =,8,0,4,4,4,1,,,,,,,,,,,,,,,,,,,,,,,,,,,,,,,,,,,,,,,,,,,,,,,,,,,,,,,,,,,,,,,,,,,,,,,,,,,,,,,,,,,,,,,,,,,,,,,,,,,,,,,,,,,,,,,,,,,,,,,,,,,,,,,,,,,,,,,,,,,,
,8824,CBA,31/12/2004,001,2023-12-08_14h29.38.153,OS3_Mult_verification,2022.2.4,Win32,60.35731531,,,,,,,,,,,,,,,,,,4,1.7658,1,"[""4"",""return""]","[1.212000000000046,1.4612999999523595]",,,,,,2 × 2 =,4,0,5,5,5,1,,,,,,,,,,,,,,,,,,,,,,,,,,,,,,,,,,,,,,,,,,,,,,,,,,,,,,,,,,,,,,,,,,,,,,,,,,,,,,,,,,,,,,,,,,,,,,,,,,,,,,,,,,,,,,,,,,,,,,,,,,,,,,,,,,,,,,,,,,,,
,8824,CBA,31/12/2004,001,2023-12-08_14h29.38.153,OS3_Mult_verification,2022.2.4,Win32,60.35731531,,,,,,,,,,,,,,,,,,20,1.9658,1,"[""2"",""0"",""return""]","[0.9853999999761527,1.3621000000238155,1.6811000000238323]",,,,,,4 × 5 =,20,0,6,6,6,1,,,,,,,,,,,,,,,,,,,,,,,,,,,,,,,,,,,,,,,,,,,,,,,,,,,,,,,,,,,,,,,,,,,,,,,,,,,,,,,,,,,,,,,,,,,,,,,,,,,,,,,,,,,,,,,,,,,,,,,,,,,,,,,,,,,,,,,,,,,,
,8824,CBA,31/12/2004,001,2023-12-08_14h29.38.153,OS3_Mult_verification,2022.2.4,Win32,60.35731531,,,,,,,,,,,,,,,,,,9,1.4655,1,"[""9"",""return""]","[0.9483999999761181,1.1636000000238482]",,,,,,3 × 3 =,9,0,7,7,7,1,,,,,,,,,,,,,,,,,,,,,,,,,,,,,,,,,,,,,,,,,,,,,,,,,,,,,,,,,,,,,,,,,,,,,,,,,,,,,,,,,,,,,,,,,,,,,,,,,,,,,,,,,,,,,,,,,,,,,,,,,,,,,,,,,,,,,,,,,,,,
,8824,CBA,31/12/2004,001,2023-12-08_14h29.38.153,OS3_Mult_verification,2022.2.4,Win32,60.35731531,,,,,,,,,,,,,,,,,,10,2.3159,1,"[""1"",""0"",""return""]","[1.4518000000715574,1.7987000000476883,2.0353000000715156]",,,,,,5 × 2 =,10,0,8,8,8,1,,,,,,,,,,,,,,,,,,,,,,,,,,,,,,,,,,,,,,,,,,,,,,,,,,,,,,,,,,,,,,,,,,,,,,,,,,,,,,,,,,,,,,,,,,,,,,,,,,,,,,,,,,,,,,,,,,,,,,,,,,,,,,,,,,,,,,,,,,,,
,8824,CBA,31/12/2004,001,2023-12-08_14h29.38.153,OS3_Mult_verification,2022.2.4,Win32,60.35731531,,,,,,,,,,,,,,,,,,16,1.9328,1,"[""1"",""6"",""return""]","[1.0972000000476783,1.3638999999761268,1.649499999999989]",,,,,,4 × 4 =,16,0,9,9,9,1,,,,,,,,,,,,,,,,,,,,,,,,,,,,,,,,,,,,,,,,,,,,,,,,,,,,,,,,,,,,,,,,,,,,,,,,,,,,,,,,,,,,,,,,,,,,,,,,,,,,,,,,,,,,,,,,,,,,,,,,,,,,,,,,,,,,,,,,,,,,
,8824,CBA,31/12/2004,001,2023-12-08_14h29.38.153,OS3_Mult_verification,2022.2.4,Win32,60.35731531,,,,,,,,,,,,,,,,,,24,1.6812,1,"[""2"",""4"",""return""]","[0.9459000000953779,1.1519999999999868,1.3848000000715501]",,,,,,8 × 3 =,24,0,10,10,10,1,,,,,,,,,,,,,,,,,,,,,,,,,,,,,,,,,,,,,,,,,,,,,,,,,,,,,,,,,,,,,,,,,,,,,,,,,,,,,,,,,,,,,,,,,,,,,,,,,,,,,,,,,,,,,,,,,,,,,,,,,,,,,,,,,,,,,,,,,,,,
,8824,CBA,31/12/2004,001,2023-12-08_14h29.38.153,OS3_Mult_verification,2022.2.4,Win32,60.35731531,,,,,,,,,,,,,,,,,,35,2.4657,0,"[""3"",""5"",""return""]","[1.649000000000001,1.8822000000477033,2.1742000000476764]",,,,,,6 × 5 =,30,0,11,11,11,1,,,,,,,,,,,,,,,,,,,,,,,,,,,,,,,,,,,,,,,,,,,,,,,,,,,,,,,,,,,,,,,,,,,,,,,,,,,,,,,,,,,,,,,,,,,,,,,,,,,,,,,,,,,,,,,,,,,,,,,,,,,,,,,,,,,,,,,,,,,,
,8824,CBA,31/12/2004,001,2023-12-08_14h29.38.153,OS3_Mult_verification,2022.2.4,Win32,60.35731531,,,,,,,,,,,,,,,,,,14,1.7325,1,"[""1"",""4"",""return""]","[0.9784999999999968,1.1903999999761936,1.4497000000476987]",,,,,,7 × 2 =,14,0,12,12,12,1,,,,,,,,,,,,,,,,,,,,,,,,,,,,,,,,,,,,,,,,,,,,,,,,,,,,,,,,,,,,,,,,,,,,,,,,,,,,,,,,,,,,,,,,,,,,,,,,,,,,,,,,,,,,,,,,,,,,,,,,,,,,,,,,,,,,,,,,,,,,
,8824,CBA,31/12/2004,001,2023-12-08_14h29.38.153,OS3_Mult_verification,2022.2.4,Win32,60.35731531,,,,,,,,,,,,,,,,,,27,3.1822,1,"[""2"",""8"",""backspace"",""7"",""return""]","[1.3157000000476842,1.6488000000715033,2.336200000047654,2.474800000071525,2.8791000000238114]",,,,,,3 × 9 =,27,0,13,13,13,1,,,,,,,,,,,,,,,,,,,,,,,,,,,,,,,,,,,,,,,,,,,,,,,,,,,,,,,,,,,,,,,,,,,,,,,,,,,,,,,,,,,,,,,,,,,,,,,,,,,,,,,,,,,,,,,,,,,,,,,,,,,,,,,,,,,,,,,,,,,,
,8824,CBA,31/12/2004,001,2023-12-08_14h29.38.153,OS3_Mult_verification,2022.2.4,Win32,60.35731531,,,,,,,,,,,,,,,,,,16,1.8074,1,"[""1"",""6"",""return""]","[0.8188000000715192,1.1912000000476723,1.521000000000015]",,,,,,2 × 8 =,16,0,14,14,14,1,,,,,,,,,,,,,,,,,,,,,,,,,,,,,,,,,,,,,,,,,,,,,,,,,,,,,,,,,,,,,,,,,,,,,,,,,,,,,,,,,,,,,,,,,,,,,,,,,,,,,,,,,,,,,,,,,,,,,,,,,,,,,,,,,,,,,,,,,,,,
,8824,CBA,31/12/2004,001,2023-12-08_14h29.38.153,OS3_Mult_verification,2022.2.4,Win32,60.35731531,,,,,,,,,,,,,,,,,,24,1.9326,1,"[""2"",""4"",""return""]","[1.1815000000000282,1.4148000000715228,1.6324000000954015]",,,,,,4 × 6 =,24,0,15,15,15,1,,,,,,,,,,,,,,,,,,,,,,,,,,,,,,,,,,,,,,,,,,,,,,,,,,,,,,,,,,,,,,,,,,,,,,,,,,,,,,,,,,,,,,,,,,,,,,,,,,,,,,,,,,,,,,,,,,,,,,,,,,,,,,,,,,,,,,,,,,,,
,8824,CBA,31/12/2004,001,2023-12-08_14h29.38.153,OS3_Mult_verification,2022.2.4,Win32,60.35731531,,,,,,,,,,,,,,,,,,21,2.3491,1,"[""3"",""backspace"",""2"",""1"",""return""]","[0.7997999999523131,1.3302999999523308,1.5485999999046385,1.6659999999999968,2.0620999999046603]",,,,,,7 × 3 =,21,0,16,16,16,1,,,,,,,,,,,,,,,,,,,,,,,,,,,,,,,,,,,,,,,,,,,,,,,,,,,,,,,,,,,,,,,,,,,,,,,,,,,,,,,,,,,,,,,,,,,,,,,,,,,,,,,,,,,,,,,,,,,,,,,,,,,,,,,,,,,,,,,,,,,,
,8824,CBA,31/12/2004,001,2023-12-08_14h29.38.153,OS3_Mult_verification,2022.2.4,Win32,60.35731531,,,,,,,,,,,,,,,,,,27,1.8988,1,"[""2"",""7"",""return""]","[1.0475999999046621,1.3635999999046362,1.5973999999761759]",,,,,,9 × 3 =,27,0,17,17,17,1,,,,,,,,,,,,,,,,,,,,,,,,,,,,,,,,,,,,,,,,,,,,,,,,,,,,,,,,,,,,,,,,,,,,,,,,,,,,,,,,,,,,,,,,,,,,,,,,,,,,,,,,,,,,,,,,,,,,,,,,,,,,,,,,,,,,,,,,,,,,
,8824,CBA,31/12/2004,001,2023-12-08_14h29.38.153,OS3_Mult_verification,2022.2.4,Win32,60.35731531,,,,,,,,,,,,,,,,,,28,5.5818,1,"[""2"",""8"",""return""]","[4.717200000047683,5.085100000023829,5.299899999976162]",,,,,,4 × 7 =,28,0,18,18,18,1,,,,,,,,,,,,,,,,,,,,,,,,,,,,,,,,,,,,,,,,,,,,,,,,,,,,,,,,,,,,,,,,,,,,,,,,,,,,,,,,,,,,,,,,,,,,,,,,,,,,,,,,,,,,,,,,,,,,,,,,,,,,,,,,,,,,,,,,,,,,
,8824,CBA,31/12/2004,001,2023-12-08_14h29.38.153,OS3_Mult_verification,2022.2.4,Win32,60.35731531,,,,,,,,,,,,,,,,,,18,1.9252,1,"[""1"",""8"",""return""]","[1.100999999999999,1.4358999999761295,1.6315000000000168]",,,,,,2 × 9 =,18,0,19,19,19,1,,,,,,,,,,,,,,,,,,,,,,,,,,,,,,,,,,,,,,,,,,,,,,,,,,,,,,,,,,,,,,,,,,,,,,,,,,,,,,,,,,,,,,,,,,,,,,,,,,,,,,,,,,,,,,,,,,,,,,,,,,,,,,,,,,,,,,,,,,,,
,8824,CBA,31/12/2004,001,2023-12-08_14h29.38.153,OS3_Mult_verification,2022.2.4,Win32,60.35731531,,,,,,,,,,,,,,,,,,56,2.8155,0,"[""5"",""6"",""return""]","[1.5573000000715638,1.7978999999761527,2.513899999976161]",,,,,,9 × 8 =,72,0,20,20,20,1,,,,,,,,,,,,,,,,,,,,,,,,,,,,,,,,,,,,,,,,,,,,,,,,,,,,,,,,,,,,,,,,,,,,,,,,,,,,,,,,,,,,,,,,,,,,,,,,,,,,,,,,,,,,,,,,,,,,,,,,,,,,,,,,,,,,,,,,,,,,
,8824,CBA,31/12/2004,001,2023-12-08_14h29.38.153,OS3_Mult_verification,2022.2.4,Win32,60.35731531,,,,,,,,,,,,,,,,,,42,5.1392,1,"[""4"",""2"",""return""]","[4.248299999952337,4.4643999999761945,4.849299999952336]",,,,,,7 × 6 =,42,0,21,21,21,1,,,,,,,,,,,,,,,,,,,,,,,,,,,,,,,,,,,,,,,,,,,,,,,,,,,,,,,,,,,,,,,,,,,,,,,,,,,,,,,,,,,,,,,,,,,,,,,,,,,,,,,,,,,,,,,,,,,,,,,,,,,,,,,,,,,,,,,,,,,,
,8824,CBA,31/12/2004,001,2023-12-08_14h29.38.153,OS3_Mult_verification,2022.2.4,Win32,60.35731531,,,,,,,,,,,,,,,,,,54,5.4035,1,"[""5"",""4"",""return""]","[4.702099999904647,4.898500000000013,5.116000000000042]",,,,,,6 × 9 =,54,0,22,22,22,1,,,,,,,,,,,,,,,,,,,,,,,,,,,,,,,,,,,,,,,,,,,,,,,,,,,,,,,,,,,,,,,,,,,,,,,,,,,,,,,,,,,,,,,,,,,,,,,,,,,,,,,,,,,,,,,,,,,,,,,,,,,,,,,,,,,,,,,,,,,,
,8824,CBA,31/12/2004,001,2023-12-08_14h29.38.153,OS3_Mult_verification,2022.2.4,Win32,60.35731531,,,,,,,,,,,,,,,,,,45,5.3369,1,"[""4"",""5"",""return""]","[4.496799999952316,4.718399999976157,5.0542999999522635]",,,,,,9 × 5 =,45,0,23,23,23,1,,,,,,,,,,,,,,,,,,,,,,,,,,,,,,,,,,,,,,,,,,,,,,,,,,,,,,,,,,,,,,,,,,,,,,,,,,,,,,,,,,,,,,,,,,,,,,,,,,,,,,,,,,,,,,,,,,,,,,,,,,,,,,,,,,,,,,,,,,,,
,8824,CBA,31/12/2004,001,2023-12-08_14h29.38.153,OS3_Mult_verification,2022.2.4,Win32,60.35731531,,,,,,,,,,,,,,,,,,56,1.8215,1,"[""5"",""6"",""return""]","[1.0790000000000077,1.2644999999999982,1.5286000000238005]",,,,,,8 × 7 =,56,0,24,24,24,1,,,,,,,,,,,,,,,,,,,,,,,,,,,,,,,,,,,,,,,,,,,,,,,,,,,,,,,,,,,,,,,,,,,,,,,,,,,,,,,,,,,,,,,,,,,,,,,,,,,,,,,,,,,,,,,,,,,,,,,,,,,,,,,,,,,,,,,,,,,,
,8824,CBA,31/12/2004,001,2023-12-08_14h29.38.153,OS3_Mult_verification,2022.2.4,Win32,60.35731531,,,,,,,,,,,,,,,,,,36,1.8991,1,"[""3"",""6"",""return""]","[1.1357999999523258,1.3815999999046653,1.6142999999523227]",,,,,,6 × 6 =,36,0,25,25,25,1,,,,,,,,,,,,,,,,,,,,,,,,,,,,,,,,,,,,,,,,,,,,,,,,,,,,,,,,,,,,,,,,,,,,,,,,,,,,,,,,,,,,,,,,,,,,,,,,,,,,,,,,,,,,,,,,,,,,,,,,,,,,,,,,,,,,,,,,,,,,
,8824,CBA,31/12/2004,001,2023-12-08_14h29.38.153,OS3_Mult_verification,2022.2.4,Win32,60.35731531,,,,,,,,,,,,,,,,,,35,4.3821,1,"[""3"",""5"",""return""]","[3.63149999999996,3.8399000000953265,4.0803000000715315]",,,,,,5 × 7 =,35,0,26,26,26,1,,,,,,,,,,,,,,,,,,,,,,,,,,,,,,,,,,,,,,,,,,,,,,,,,,,,,,,,,,,,,,,,,,,,,,,,,,,,,,,,,,,,,,,,,,,,,,,,,,,,,,,,,,,,,,,,,,,,,,,,,,,,,,,,,,,,,,,,,,,,
,8824,CBA,31/12/2004,001,2023-12-08_14h29.38.153,OS3_Mult_verification,2022.2.4,Win32,60.35731531,,,,,,,,,,,,,,,,,,24,3.4036,0,"[""2"",""4"",""return""]","[1.7851000000238173,2.574299999952302,3.120700000047691]",,,,,,4 × 9 =,36,0,27,27,27,1,,,,,,,,,,,,,,,,,,,,,,,,,,,,,,,,,,,,,,,,,,,,,,,,,,,,,,,,,,,,,,,,,,,,,,,,,,,,,,,,,,,,,,,,,,,,,,,,,,,,,,,,,,,,,,,,,,,,,,,,,,,,,,,,,,,,,,,,,,,,
,8824,CBA,31/12/2004,001,2023-12-08_14h29.38.153,OS3_Mult_verification,2022.2.4,Win32,60.35731531,,,,,,,,,,,,,,,,,,48,7.2198,1,"[""4"",""8"",""return""]","[6.4025999999046235,6.715499999999963,6.937999999999988]",,,,,,8 × 6 =,48,0,28,28,28,1,,,,,,,,,,,,,,,,,,,,,,,,,,,,,,,,,,,,,,,,,,,,,,,,,,,,,,,,,,,,,,,,,,,,,,,,,,,,,,,,,,,,,,,,,,,,,,,,,,,,,,,,,,,,,,,,,,,,,,,,,,,,,,,,,,,,,,,,,,,,
,8824,CBA,31/12/2004,001,2023-12-08_14h29.38.153,OS3_Mult_verification,2022.2.4,Win32,60.35731531,,,,,,,,,,,,,,,,,,63,5.3366,1,"[""6"",""3"",""return""]","[4.432000000000016,4.814700000047708,5.04849999999999]",,,,,,9 × 7 =,63,0,29,29,29,1,,,,,,,,,,,,,,,,,,,,,,,,,,,,,,,,,,,,,,,,,,,,,,,,,,,,,,,,,,,,,,,,,,,,,,,,,,,,,,,,,,,,,,,,,,,,,,,,,,,,,,,,,,,,,,,,,,,,,,,,,,,,,,,,,,,,,,,,,,,,
,8824,CBA,31/12/2004,001,2023-12-08_14h29.38.153,OS3_Mult_verification,2022.2.4,Win32,60.35731531,,,,,,,,,,,,,,,,,,12,1.52,1,"[""1"",""2"",""return""]","[0.8645000000000209,0.9834999999999923,1.2404999999999973]",,,,,,4 × 3 =,12,0,30,30,30,1,,,,,,,,,,,,,,,,,,,,,,,,,,,,,,,,,,,,,,,,,,,,,,,,,,,,,,,,,,,,,,,,,,,,,,,,,,,,,,,,,,,,,,,,,,,,,,,,,,,,,,,,,,,,,,,,,,,,,,,,,,,,,,,,,,,,,,,,,,,,
,8824,CBA,31/12/2004,001,2023-12-08_14h29.38.153,OS3_Mult_verification,2022.2.4,Win32,60.35731531,,,,,,,,,,,,,,,,,,25,1.7661,1,"[""2"",""5"",""return""]","[0.9141000000238364,1.152600000023881,1.4791000000238341]",,,,,,5 × 5 =,25,0,31,31,31,1,,,,,,,,,,,,,,,,,,,,,,,,,,,,,,,,,,,,,,,,,,,,,,,,,,,,,,,,,,,,,,,,,,,,,,,,,,,,,,,,,,,,,,,,,,,,,,,,,,,,,,,,,,,,,,,,,,,,,,,,,,,,,,,,,,,,,,,,,,,,
,8824,CBA,31/12/2004,001,2023-12-08_14h29.38.153,OS3_Mult_verification,2022.2.4,Win32,60.35731531,,,,,,,,,,,,,,,,,,,0.283,0,,,,,,,,3 × 2 =,6,0,32,32,32,1,,,,,,,,,,,,,,,,,,,,,,,,,,,,,,,,,,,,,,,,,,,,,,,,,,,,,,,,,,,,,,,,,,,,,,,,,,,,,,,,,,,,,,,,,,,,,,,,,,,,,,,,,,,,,,,,,,,,,,,,,,,,,,,,,,,,,,,,,,,,
,8824,CBA,31/12/2004,001,2023-12-08_14h29.38.153,OS3_Mult_verification,2022.2.4,Win32,60.35731531,,,,,,,,,,,,,,,,space,1.6874,,,,,,,,,,,,,,,,,,space,7.1586,123,2.815,1,"[""1"",""2"",""3"",""return""]","[1.2063000000715078,1.6048000000715206,2.0037000000476723,2.778900000095348]",0,0,0,0,1,3,123,Audio/123.mp3,practice,,,,,,,,,,,,,,,,,,,,,,,,,,,,,,,,,,,,,,,,,,,,,,,,,,,,,,,,,,,,,,,,,,,,,,,,,,,,,,,,,,,,,,,,,,,,,,,,,,,,,,,,,,,,,,,,,,,,,,,,,,,,
,8824,CBA,31/12/2004,001,2023-12-08_14h29.38.153,OS3_Mult_verification,2022.2.4,Win32,60.35731531,,,,,,,,,,,,,,,,,,,,,,,,,,,,,,,,,,,,,321,1.8658,1,"[""3"",""2"",""1"",""return""]","[0.7591000000238637,0.9673999999761804,1.181799999952318,1.8420000000000414]",0,1,1,1,1,3,321,Audio/321.mp3,practice,,,,,,,,,,,,,,,,,,,,,,,,,,,,,,,,,,,,,,,,,,,,,,,,,,,,,,,,,,,,,,,,,,,,,,,,,,,,,,,,,,,,,,,,,,,,,,,,,,,,,,,,,,,,,,,,,,,,,,,,,,,,
,8824,CBA,31/12/2004,001,2023-12-08_14h29.38.153,OS3_Mult_verification,2022.2.4,Win32,60.35731531,,,,,,,,,,,,,,,,,,,,,,,,,,,,,,,,,,,,,911,1.8323,1,"[""9"",""1"",""1"",""return""]","[0.5007999999523349,1.1007000000476523,1.253499999999974,1.7966000000238296]",0,2,2,2,1,3,911,Audio/911.mp3,practice,,,,,,,,,,,,,,,,,,,,,,,,,,,,,,,,,,,,,,,,,,,,,,,,,,,,,,,,,,,,,,,,,,,,,,,,,,,,,,,,,,,,,,,,,,,,,,,,,,,,,,,,,,,,,,,,,,,,,,,,,,,,
,8824,CBA,31/12/2004,001,2023-12-08_14h29.38.153,OS3_Mult_verification,2022.2.4,Win32,60.35731531,,,,,,,,,,,,,,,,,,,,,,,,,,,,,,,,,,,,,46,1.8489,1,"[""4"",""6"",""return""]","[0.9254999999999995,1.28060000002381,1.8141000000238137]",,,,,,2,46,Audio/46.mp3,EGNER,0,0,0,0,1,,,,,,,,,,,,,,,,,,,,,,,,,,,,,,,,,,,,,,,,,,,,,,,,,,,,,,,,,,,,,,,,,,,,,,,,,,,,,,,,,,,,,,,,,,,,,,,,,,,,,,,,,,,,,,,,,,,,,,,
,8824,CBA,31/12/2004,001,2023-12-08_14h29.38.153,OS3_Mult_verification,2022.2.4,Win32,60.35731531,,,,,,,,,,,,,,,,,,,,,,,,,,,,,,,,,,,,,82,1.6993,1,"[""8"",""2"",""return""]","[0.7484999999999786,1.1136000000238369,1.6644999999999754]",,,,,,2,82,Audio/82.mp3,EGNER,0,1,1,1,1,,,,,,,,,,,,,,,,,,,,,,,,,,,,,,,,,,,,,,,,,,,,,,,,,,,,,,,,,,,,,,,,,,,,,,,,,,,,,,,,,,,,,,,,,,,,,,,,,,,,,,,,,,,,,,,,,,,,,,,
,8824,CBA,31/12/2004,001,2023-12-08_14h29.38.153,OS3_Mult_verification,2022.2.4,Win32,60.35731531,,,,,,,,,,,,,,,,,,,,,,,,,,,,,,,,,,,,,,,,,,,,,,,,,,,,,,,,0,0,0,0,1,digitSpan_stim/twoAudio.xlsx,,,,,,,,,,,,,,,,,,,,,,,,,,,,,,,,,,,,,,,,,,,,,,,,,,,,,,,,,,,,,,,,,,,,,,,,,,,,,,,,,,,,,,,,,,,,,,,,,,,,,,,,,,,,,,,,,
,8824,CBA,31/12/2004,001,2023-12-08_14h29.38.153,OS3_Mult_verification,2022.2.4,Win32,60.35731531,,,,,,,,,,,,,,,,,,,,,,,,,,,,,,,,,,,,,157,1.7158,1,"[""1"",""5"",""7"",""return""]","[0.43980000007155695,0.6930000000000405,1.13870000004772,1.6811000000238323]",,,,,,3,157,Audio/157.mp3,EGNER,0,0,0,0,1,,,,,,,,,,,,,,,,,,,,,,,,,,,,,,,,,,,,,,,,,,,,,,,,,,,,,,,,,,,,,,,,,,,,,,,,,,,,,,,,,,,,,,,,,,,,,,,,,,,,,,,,,,,,,,,,,,,,,,,
,8824,CBA,31/12/2004,001,2023-12-08_14h29.38.153,OS3_Mult_verification,2022.2.4,Win32,60.35731531,,,,,,,,,,,,,,,,,,,,,,,,,,,,,,,,,,,,,397,1.9486,1,"[""3"",""9"",""7"",""return""]","[0.7316000000238319,1.2425000000000637,1.6238999999761745,1.9155000000000655]",,,,,,3,397,Audio/397.mp3,EGNER,0,1,1,1,1,,,,,,,,,,,,,,,,,,,,,,,,,,,,,,,,,,,,,,,,,,,,,,,,,,,,,,,,,,,,,,,,,,,,,,,,,,,,,,,,,,,,,,,,,,,,,,,,,,,,,,,,,,,,,,,,,,,,,,,
,8824,CBA,31/12/2004,001,2023-12-08_14h29.38.153,OS3_Mult_verification,2022.2.4,Win32,60.35731531,,,,,,,,,,,,,,,,,,,,,,,,,,,,,,,,,,,,,,,,,,,,,,,,,,,,,,,,0,1,1,1,1,digitSpan_stim/threeAudio.xlsx,,,,,,,,,,,,,,,,,,,,,,,,,,,,,,,,,,,,,,,,,,,,,,,,,,,,,,,,,,,,,,,,,,,,,,,,,,,,,,,,,,,,,,,,,,,,,,,,,,,,,,,,,,,,,,,,,
,8824,CBA,31/12/2004,001,2023-12-08_14h29.38.153,OS3_Mult_verification,2022.2.4,Win32,60.35731531,,,,,,,,,,,,,,,,,,,,,,,,,,,,,,,,,,,,,6352,1.9156,1,"[""6"",""3"",""5"",""2"",""return""]","[0.7825999999046189,1.0086999999284672,1.2001999999284862,1.4480999999046844,1.8807999999522735]",,,,,,4,6352,Audio/6352.mp3,EGNER,0,0,0,0,1,,,,,,,,,,,,,,,,,,,,,,,,,,,,,,,,,,,,,,,,,,,,,,,,,,,,,,,,,,,,,,,,,,,,,,,,,,,,,,,,,,,,,,,,,,,,,,,,,,,,,,,,,,,,,,,,,,,,,,,
,8824,CBA,31/12/2004,001,2023-12-08_14h29.38.153,OS3_Mult_verification,2022.2.4,Win32,60.35731531,,,,,,,,,,,,,,,,,,,,,,,,,,,,,,,,,,,,,9184,1.7153,1,"[""9"",""1"",""8"",""4"",""return""]","[0.7746000000237814,0.9662000000475359,1.165899999976034,1.3974999999998658,1.6874999999999432]",,,,,,4,9184,Audio/9184.mp3,EGNER,0,1,1,1,1,,,,,,,,,,,,,,,,,,,,,,,,,,,,,,,,,,,,,,,,,,,,,,,,,,,,,,,,,,,,,,,,,,,,,,,,,,,,,,,,,,,,,,,,,,,,,,,,,,,,,,,,,,,,,,,,,,,,,,,
,8824,CBA,31/12/2004,001,2023-12-08_14h29.38.153,OS3_Mult_verification,2022.2.4,Win32,60.35731531,,,,,,,,,,,,,,,,,,,,,,,,,,,,,,,,,,,,,,,,,,,,,,,,,,,,,,,,0,2,2,2,1,digitSpan_stim/fourAudio.xlsx,,,,,,,,,,,,,,,,,,,,,,,,,,,,,,,,,,,,,,,,,,,,,,,,,,,,,,,,,,,,,,,,,,,,,,,,,,,,,,,,,,,,,,,,,,,,,,,,,,,,,,,,,,,,,,,,,
,8824,CBA,31/12/2004,001,2023-12-08_14h29.38.153,OS3_Mult_verification,2022.2.4,Win32,60.35731531,,,,,,,,,,,,,,,,,,,,,,,,,,,,,,,,,,,,,59281,3.2157,1,"[""5"",""9"",""2"",""8"",""1"",""return""]","[0.6063999999761336,1.0320999999046307,1.7525999999046462,2.115000000000009,2.830899999976168,3.1829999999999927]",,,,,,5,59281,Audio/59281.mp3,EGNER,0,0,0,0,1,,,,,,,,,,,,,,,,,,,,,,,,,,,,,,,,,,,,,,,,,,,,,,,,,,,,,,,,,,,,,,,,,,,,,,,,,,,,,,,,,,,,,,,,,,,,,,,,,,,,,,,,,,,,,,,,,,,,,,,
,8824,CBA,31/12/2004,001,2023-12-08_14h29.38.153,OS3_Mult_verification,2022.2.4,Win32,60.35731531,,,,,,,,,,,,,,,,,,,,,,,,,,,,,,,,,,,,,64738,2.6487,1,"[""6"",""4"",""7"",""3"",""8"",""return""]","[0.8837999999523163,1.1517999999523454,1.4143999999761263,1.7397000000477192,1.8980000000000246,2.615799999952287]",,,,,,5,64738,Audio/64738.mp3,EGNER,0,1,1,1,1,,,,,,,,,,,,,,,,,,,,,,,,,,,,,,,,,,,,,,,,,,,,,,,,,,,,,,,,,,,,,,,,,,,,,,,,,,,,,,,,,,,,,,,,,,,,,,,,,,,,,,,,,,,,,,,,,,,,,,,
,8824,CBA,31/12/2004,001,2023-12-08_14h29.38.153,OS3_Mult_verification,2022.2.4,Win32,60.35731531,,,,,,,,,,,,,,,,,,,,,,,,,,,,,,,,,,,,,,,,,,,,,,,,,,,,,,,,0,3,3,3,1,digitSpan_stim/fiveAudio.xlsx,,,,,,,,,,,,,,,,,,,,,,,,,,,,,,,,,,,,,,,,,,,,,,,,,,,,,,,,,,,,,,,,,,,,,,,,,,,,,,,,,,,,,,,,,,,,,,,,,,,,,,,,,,,,,,,,,
,8824,CBA,31/12/2004,001,2023-12-08_14h29.38.153,OS3_Mult_verification,2022.2.4,Win32,60.35731531,,,,,,,,,,,,,,,,,,,,,,,,,,,,,,,,,,,,,396172,3.1158,1,"[""3"",""9"",""6"",""1"",""7"",""2"",""return""]","[0.7005000000000337,0.9321000000238655,1.4333000000715401,2.1715000000000373,2.3521000000239383,2.541200000047752,3.0813000000715647]",,,,,,6,396172,Audio/396172.mp3,EGNER,0,0,0,0,1,,,,,,,,,,,,,,,,,,,,,,,,,,,,,,,,,,,,,,,,,,,,,,,,,,,,,,,,,,,,,,,,,,,,,,,,,,,,,,,,,,,,,,,,,,,,,,,,,,,,,,,,,,,,,,,,,,,,,,,
,8824,CBA,31/12/2004,001,2023-12-08_14h29.38.153,OS3_Mult_verification,2022.2.4,Win32,60.35731531,,,,,,,,,,,,,,,,,,,,,,,,,,,,,,,,,,,,,594631,3.4822,1,"[""5"",""9"",""4"",""6"",""3"",""1"",""return""]","[0.9156000000238009,1.2569999999999482,1.5868000000715483,2.132899999976189,2.5482000000477,2.8483999999760954,3.4567000000477037]",,,,,,6,594631,Audio/594631.mp3,EGNER,0,1,1,1,1,,,,,,,,,,,,,,,,,,,,,,,,,,,,,,,,,,,,,,,,,,,,,,,,,,,,,,,,,,,,,,,,,,,,,,,,,,,,,,,,,,,,,,,,,,,,,,,,,,,,,,,,,,,,,,,,,,,,,,,
,8824,CBA,31/12/2004,001,2023-12-08_14h29.38.153,OS3_Mult_verification,2022.2.4,Win32,60.35731531,,,,,,,,,,,,,,,,,,,,,,,,,,,,,,,,,,,,,,,,,,,,,,,,,,,,,,,,0,4,4,4,1,digitSpan_stim/sixAudio.xlsx,,,,,,,,,,,,,,,,,,,,,,,,,,,,,,,,,,,,,,,,,,,,,,,,,,,,,,,,,,,,,,,,,,,,,,,,,,,,,,,,,,,,,,,,,,,,,,,,,,,,,,,,,,,,,,,,,
,8824,CBA,31/12/2004,001,2023-12-08_14h29.38.153,OS3_Mult_verification,2022.2.4,Win32,60.35731531,,,,,,,,,,,,,,,,,,,,,,,,,,,,,,,,,,,,,8241973,3.299,1,"[""8"",""2"",""4"",""1"",""9"",""7"",""3"",""return""]","[0.5032000000476273,0.7419999999999618,0.9861000000238391,1.441000000000031,1.76400000000001,2.224200000047631,2.7568000000715074,3.272200000047633]",,,,,,7,8241973,Audio/8241973.mp3,EGNER,0,0,0,0,1,,,,,,,,,,,,,,,,,,,,,,,,,,,,,,,,,,,,,,,,,,,,,,,,,,,,,,,,,,,,,,,,,,,,,,,,,,,,,,,,,,,,,,,,,,,,,,,,,,,,,,,,,,,,,,,,,,,,,,,
,8824,CBA,31/12/2004,001,2023-12-08_14h29.38.153,OS3_Mult_verification,2022.2.4,Win32,60.35731531,,,,,,,,,,,,,,,,,,,,,,,,,,,,,,,,,,,,,2814387,8.448,0,"[""2"",""8"",""1"",""4"",""3"",""8"",""7"",""return""]","[1.0397000000476737,1.32549999999992,1.800700000047641,2.6426000000237764,3.2996000000238155,7.265800000071522,7.557399999976155,8.415200000047662]",,,,,,7,2814367,Audio/2814367.mp3,EGNER,0,1,1,1,1,,,,,,,,,,,,,,,,,,,,,,,,,,,,,,,,,,,,,,,,,,,,,,,,,,,,,,,,,,,,,,,,,,,,,,,,,,,,,,,,,,,,,,,,,,,,,,,,,,,,,,,,,,,,,,,,,,,,,,,
,8824,CBA,31/12/2004,001,2023-12-08_14h29.38.153,OS3_Mult_verification,2022.2.4,Win32,60.35731531,,,,,,,,,,,,,,,,,,,,,,,,,,,,,,,,,,,,,,,,,,,,,,,,,,,,,,,,0,5,5,5,1,digitSpan_stim/sevenAudio.xlsx,,,,,,,,,,,,,,,,,,,,,,,,,,,,,,,,,,,,,,,,,,,,,,,,,,,,,,,,,,,,,,,,,,,,,,,,,,,,,,,,,,,,,,,,,,,,,,,,,,,,,,,,,,,,,,,,,
,8824,CBA,31/12/2004,001,2023-12-08_14h29.38.153,OS3_Mult_verification,2022.2.4,Win32,60.35731531,,,,,,,,,,,,,,,,,,,,,,,,,,,,,,,,,,,,,53827164,4.8152,1,"[""5"",""3"",""8"",""2"",""7"",""1"",""6"",""4"",""return""]","[1.1512999999523572,1.5163999999762154,1.9158999999762045,2.29849999999999,3.001700000047663,3.5342999999523954,3.965899999976159,4.365299999952299,4.782299999952329]",,,,,,8,53827164,Audio/53827164.mp3,EGNER,0,0,0,0,1,,,,,,,,,,,,,,,,,,,,,,,,,,,,,,,,,,,,,,,,,,,,,,,,,,,,,,,,,,,,,,,,,,,,,,,,,,,,,,,,,,,,,,,,,,,,,,,,,,,,,,,,,,,,,,,,,,,,,,,
,8824,CBA,31/12/2004,001,2023-12-08_14h29.38.153,OS3_Mult_verification,2022.2.4,Win32,60.35731531,,,,,,,,,,,,,,,,,,,,,,,,,,,,,,,,,,,,,75241739,5.1485,1,"[""7"",""5"",""2"",""4"",""1"",""7"",""3"",""9"",""return""]","[2.3799999999999955,2.6807999999523418,2.949299999952359,3.146699999928501,3.581199999928458,3.9200999999046644,4.263399999976173,4.540199999928518,5.115399999976148]",,,,,,8,75241739,Audio/75241739.mp3,EGNER,0,1,1,1,1,,,,,,,,,,,,,,,,,,,,,,,,,,,,,,,,,,,,,,,,,,,,,,,,,,,,,,,,,,,,,,,,,,,,,,,,,,,,,,,,,,,,,,,,,,,,,,,,,,,,,,,,,,,,,,,,,,,,,,,
,8824,CBA,31/12/2004,001,2023-12-08_14h29.38.153,OS3_Mult_verification,2022.2.4,Win32,60.35731531,,,,,,,,,,,,,,,,,,,,,,,,,,,,,,,,,,,,,,,,,,,,,,,,,,,,,,,,0,6,6,6,1,digitSpan_stim/eightAudio.xlsx,,,,,,,,,,,,,,,,,,,,,,,,,,,,,,,,,,,,,,,,,,,,,,,,,,,,,,,,,,,,,,,,,,,,,,,,,,,,,,,,,,,,,,,,,,,,,,,,,,,,,,,,,,,,,,,,,
,8824,CBA,31/12/2004,001,2023-12-08_14h29.38.153,OS3_Mult_verification,2022.2.4,Win32,60.35731531,,,,,,,,,,,,,,,,,,,,,,,,,,,,,,,,,,,,,672594316,5.2649,0,"[""6"",""7"",""2"",""5"",""9"",""4"",""3"",""1"",""6"",""return""]","[1.1151000000238582,2.1338999999761654,2.4647999999523336,2.6507000000477774,3.268799999952421,3.640799999952378,4.062100000023861,4.399200000047699,4.680100000023913,5.231299999952398]",,,,,,9,682594316,Audio/682594316.mp3,EGNER,0,0,0,0,1,,,,,,,,,,,,,,,,,,,,,,,,,,,,,,,,,,,,,,,,,,,,,,,,,,,,,,,,,,,,,,,,,,,,,,,,,,,,,,,,,,,,,,,,,,,,,,,,,,,,,,,,,,,,,,,,,,,,,,,
,8824,CBA,31/12/2004,001,2023-12-08_14h29.38.153,OS3_Mult_verification,2022.2.4,Win32,60.35731531,,,,,,,,,,,,,,,,,,,,,,,,,,,,,,,,,,,,,142963758,5.8314,1,"[""1"",""4"",""2"",""9"",""6"",""3"",""7"",""5"",""8"",""return""]","[0.7150000000000318,1.2137999999523572,1.5493999999761172,2.06669999992846,2.9886999999284853,3.7685000000000173,4.322499999999991,4.763399999976173,5.173399999976141,5.805399999976203]",,,,,,9,142963758,Audio/142963758.mp3,EGNER,0,1,1,1,1,,,,,,,,,,,,,,,,,,,,,,,,,,,,,,,,,,,,,,,,,,,,,,,,,,,,,,,,,,,,,,,,,,,,,,,,,,,,,,,,,,,,,,,,,,,,,,,,,,,,,,,,,,,,,,,,,,,,,,,
,8824,CBA,31/12/2004,001,2023-12-08_14h29.38.153,OS3_Mult_verification,2022.2.4,Win32,60.35731531,,,,,,,,,,,,,,,,,,,,,,,,,,,,,,,,,,,,,,,,,,,,,,,,,,,,,,,,0,7,7,7,1,digitSpan_stim/nineAudio.xlsx,,,,,,,,,,,,,,,,,,,,,,,,,,,,,,,,,,,,,,,,,,,,,,,,,,,,,,,,,,,,,,,,,,,,,,,,,,,,,,,,,,,,,,,,,,,,,,,,,,,,,,,,,,,,,,,,,
,8824,CBA,31/12/2004,001,2023-12-08_14h29.38.153,OS3_Mult_verification,2022.2.4,Win32,60.35731531,,,,,,,,,,,,,,,,,,,,,,,,,,,,,,,,,,,,,,,,,,,,,,,Egner,,,,,,,,,,,,,,,0,0,0,0,1,digitSpan_stim/Egner.xlsx,,,,,,,,,,,,,,,,,,,,,,,,,,,,,,,,,,,,,,,,,,,,,,,,,,,,,,,,,,,,,,,,,,,,,,,,,,,,,,,,,,,,,,,,,,,,,,,,,,,,,,,,,,,
,8824,CBA,31/12/2004,001,2023-12-08_14h29.38.153,OS3_Mult_verification,2022.2.4,Win32,60.35731531,,,,,,,,,,,,,,,,,,,,,,,,,,,,,,,,,,,,,97,1.466,1,"[""9"",""7"",""return""]","[0.8353999999761754,1.0848999999760736,1.432099999904608]",,,,,,2,97,Audio/97.mp3,WAIS,0,0,0,0,1,,,,,,,,,,,,,,,,,,,,,,,,,,,,,,,,,,,,,,,,,,,,,,,,,,,,,,,,,,,,,,,,,,,,,,,,,,,,,,,,,,,,,,,,,,,,,,,,,,,,,,,,,,,,,,,,,,,,,,,
,8824,CBA,31/12/2004,001,2023-12-08_14h29.38.153,OS3_Mult_verification,2022.2.4,Win32,60.35731531,,,,,,,,,,,,,,,,,,,,,,,,,,,,,,,,,,,,,63,1.1488,1,"[""6"",""3"",""return""]","[0.36879999995221624,0.7968999999760626,1.1176000000237991]",,,,,,2,63,Audio/63.mp3,WAIS,0,1,1,1,1,,,,,,,,,,,,,,,,,,,,,,,,,,,,,,,,,,,,,,,,,,,,,,,,,,,,,,,,,,,,,,,,,,,,,,,,,,,,,,,,,,,,,,,,,,,,,,,,,,,,,,,,,,,,,,,,,,,,,,,
,8824,CBA,31/12/2004,001,2023-12-08_14h29.38.153,OS3_Mult_verification,2022.2.4,Win32,60.35731531,,,,,,,,,,,,,,,,,,,,,,,,,,,,,,,,,,,,,,,,,,,,,,,,,,,,,,,,0,0,0,0,1,digitSpan_stim/twoWAIS.xlsx,,,,,,,,,,,,,,,,,,,,,,,,,,,,,,,,,,,,,,,,,,,,,,,,,,,,,,,,,,,,,,,,,,,,,,,,,,,,,,,,,,,,,,,,,,,,,,,,,,,,,,,,,,,,,,,,,
,8824,CBA,31/12/2004,001,2023-12-08_14h29.38.153,OS3_Mult_verification,2022.2.4,Win32,60.35731531,,,,,,,,,,,,,,,,,,,,,,,,,,,,,,,,,,,,,582,1.3156,1,"[""5"",""8"",""2"",""return""]","[0.5331000000238646,0.7318000000715301,0.9495000000000573,1.2833000000715629]",,,,,,3,582,Audio/582.mp3,WAIS,0,0,0,0,1,,,,,,,,,,,,,,,,,,,,,,,,,,,,,,,,,,,,,,,,,,,,,,,,,,,,,,,,,,,,,,,,,,,,,,,,,,,,,,,,,,,,,,,,,,,,,,,,,,,,,,,,,,,,,,,,,,,,,,,
,8824,CBA,31/12/2004,001,2023-12-08_14h29.38.153,OS3_Mult_verification,2022.2.4,Win32,60.35731531,,,,,,,,,,,,,,,,,,,,,,,,,,,,,,,,,,,,,694,1.216,1,"[""6"",""9"",""4"",""return""]","[0.4037999999522981,0.6041999999284826,0.871799999952259,1.1811999999284808]",,,,,,3,694,Audio/694.mp3,WAIS,0,1,1,1,1,,,,,,,,,,,,,,,,,,,,,,,,,,,,,,,,,,,,,,,,,,,,,,,,,,,,,,,,,,,,,,,,,,,,,,,,,,,,,,,,,,,,,,,,,,,,,,,,,,,,,,,,,,,,,,,,,,,,,,,
,8824,CBA,31/12/2004,001,2023-12-08_14h29.38.153,OS3_Mult_verification,2022.2.4,Win32,60.35731531,,,,,,,,,,,,,,,,,,,,,,,,,,,,,,,,,,,,,,,,,,,,,,,,,,,,,,,,0,1,1,1,1,digitSpan_stim/threeWAIS.xlsx,,,,,,,,,,,,,,,,,,,,,,,,,,,,,,,,,,,,,,,,,,,,,,,,,,,,,,,,,,,,,,,,,,,,,,,,,,,,,,,,,,,,,,,,,,,,,,,,,,,,,,,,,,,,,,,,,
,8824,CBA,31/12/2004,001,2023-12-08_14h29.38.153,OS3_Mult_verification,2022.2.4,Win32,60.35731531,,,,,,,,,,,,,,,,,,,,,,,,,,,,,,,,,,,,,7286,2.1819,1,"[""7"",""2"",""8"",""6"",""return""]","[0.6338000000714601,1.0149000000953947,1.2490000000000236,1.5138000000714555,2.1481000000238737]",,,,,,4,7286,Audio/7286.mp3,WAIS,0,0,0,0,1,,,,,,,,,,,,,,,,,,,,,,,,,,,,,,,,,,,,,,,,,,,,,,,,,,,,,,,,,,,,,,,,,,,,,,,,,,,,,,,,,,,,,,,,,,,,,,,,,,,,,,,,,,,,,,,,,,,,,,,
,8824,CBA,31/12/2004,001,2023-12-08_14h29.38.153,OS3_Mult_verification,2022.2.4,Win32,60.35731531,,,,,,,,,,,,,,,,,,,,,,,,,,,,,,,,,,,,,6439,1.9993,1,"[""6"",""4"",""3"",""9"",""return""]","[0.7895999999045671,1.0415000000000418,1.2429999999999382,1.439599999904658,1.9643999999761945]",,,,,,4,6439,Audio/6439.mp3,WAIS,0,1,1,1,1,,,,,,,,,,,,,,,,,,,,,,,,,,,,,,,,,,,,,,,,,,,,,,,,,,,,,,,,,,,,,,,,,,,,,,,,,,,,,,,,,,,,,,,,,,,,,,,,,,,,,,,,,,,,,,,,,,,,,,,
,8824,CBA,31/12/2004,001,2023-12-08_14h29.38.153,OS3_Mult_verification,2022.2.4,Win32,60.35731531,,,,,,,,,,,,,,,,,,,,,,,,,,,,,,,,,,,,,,,,,,,,,,,,,,,,,,,,0,2,2,2,1,digitSpan_stim/fourWAIS.xlsx,,,,,,,,,,,,,,,,,,,,,,,,,,,,,,,,,,,,,,,,,,,,,,,,,,,,,,,,,,,,,,,,,,,,,,,,,,,,,,,,,,,,,,,,,,,,,,,,,,,,,,,,,,,,,,,,,
,8824,CBA,31/12/2004,001,2023-12-08_14h29.38.153,OS3_Mult_verification,2022.2.4,Win32,60.35731531,,,,,,,,,,,,,,,,,,,,,,,,,,,,,,,,,,,,,42731,2.5986,1,"[""4"",""2"",""7"",""3"",""1"",""return""]","[0.5323999999761782,0.7385000000000446,1.8323999999762464,2.0515000000000327,2.269699999928548,2.5687999999523754]",,,,,,5,42731,Audio/42731.mp3,WAIS,0,0,0,0,1,,,,,,,,,,,,,,,,,,,,,,,,,,,,,,,,,,,,,,,,,,,,,,,,,,,,,,,,,,,,,,,,,,,,,,,,,,,,,,,,,,,,,,,,,,,,,,,,,,,,,,,,,,,,,,,,,,,,,,,
,8824,CBA,31/12/2004,001,2023-12-08_14h29.38.153,OS3_Mult_verification,2022.2.4,Win32,60.35731531,,,,,,,,,,,,,,,,,,,,,,,,,,,,,,,,,,,,,75836,3.1324,1,"[""7"",""5"",""8"",""3"",""6"",""return""]","[1.1382999999523236,1.4666999999284371,1.8835000000000264,2.1740999999046835,2.425599999904648,3.0997999999523245]",,,,,,5,75836,Audio/75836.mp3,WAIS,0,1,1,1,1,,,,,,,,,,,,,,,,,,,,,,,,,,,,,,,,,,,,,,,,,,,,,,,,,,,,,,,,,,,,,,,,,,,,,,,,,,,,,,,,,,,,,,,,,,,,,,,,,,,,,,,,,,,,,,,,,,,,,,,
,8824,CBA,31/12/2004,001,2023-12-08_14h29.38.153,OS3_Mult_verification,2022.2.4,Win32,60.35731531,,,,,,,,,,,,,,,,,,,,,,,,,,,,,,,,,,,,,,,,,,,,,,,,,,,,,,,,0,3,3,3,1,digitSpan_stim/fiveWAIS.xlsx,,,,,,,,,,,,,,,,,,,,,,,,,,,,,,,,,,,,,,,,,,,,,,,,,,,,,,,,,,,,,,,,,,,,,,,,,,,,,,,,,,,,,,,,,,,,,,,,,,,,,,,,,,,,,,,,,
,8824,CBA,31/12/2004,001,2023-12-08_14h29.38.153,OS3_Mult_verification,2022.2.4,Win32,60.35731531,,,,,,,,,,,,,,,,,,,,,,,,,,,,,,,,,,,,,392487,3.8985,1,"[""3"",""9"",""2"",""4"",""8"",""7"",""return""]","[0.6634999999999991,0.8832000000477365,1.3497000000477328,1.731300000071542,2.400800000071513,2.847899999976221,3.8732000000477456]",,,,,,6,392487,Audio/392487.mp3,WAIS,0,0,0,0,1,,,,,,,,,,,,,,,,,,,,,,,,,,,,,,,,,,,,,,,,,,,,,,,,,,,,,,,,,,,,,,,,,,,,,,,,,,,,,,,,,,,,,,,,,,,,,,,,,,,,,,,,,,,,,,,,,,,,,,,
,8824,CBA,31/12/2004,001,2023-12-08_14h29.38.153,OS3_Mult_verification,2022.2.4,Win32,60.35731531,,,,,,,,,,,,,,,,,,,,,,,,,,,,,,,,,,,,,619473,2.8487,1,"[""6"",""1"",""9"",""4"",""7"",""3"",""return""]","[0.7149999999999181,1.0721999999284435,1.4463999999761654,1.97199999999998,2.3808999999761227,2.582899999976121,2.8142999999522544]",,,,,,6,619473,Audio/619473.mp3,WAIS,0,1,1,1,1,,,,,,,,,,,,,,,,,,,,,,,,,,,,,,,,,,,,,,,,,,,,,,,,,,,,,,,,,,,,,,,,,,,,,,,,,,,,,,,,,,,,,,,,,,,,,,,,,,,,,,,,,,,,,,,,,,,,,,,
,8824,CBA,31/12/2004,001,2023-12-08_14h29.38.153,OS3_Mult_verification,2022.2.4,Win32,60.35731531,,,,,,,,,,,,,,,,,,,,,,,,,,,,,,,,,,,,,,,,,,,,,,,,,,,,,,,,0,4,4,4,1,digitSpan_stim/sixWAIS.xlsx,,,,,,,,,,,,,,,,,,,,,,,,,,,,,,,,,,,,,,,,,,,,,,,,,,,,,,,,,,,,,,,,,,,,,,,,,,,,,,,,,,,,,,,,,,,,,,,,,,,,,,,,,,,,,,,,,
,8824,CBA,31/12/2004,001,2023-12-08_14h29.38.153,OS3_Mult_verification,2022.2.4,Win32,60.35731531,,,,,,,,,,,,,,,,,,,,,,,,,,,,,,,,,,,,,6917428,5.649,1,"[""6"",""9"",""1"",""7"",""4"",""2"",""7"",""backspace"",""8"",""return""]","[1.067600000023731,1.46449999999993,1.933499999999981,2.175600000023792,2.641100000023812,2.973700000047643,3.1914000000953138,3.7852000000476664,4.084400000095343,5.62399999999991]",,,,,,7,6917428,Audio/6917428.mp3,WAIS,0,0,0,0,1,,,,,,,,,,,,,,,,,,,,,,,,,,,,,,,,,,,,,,,,,,,,,,,,,,,,,,,,,,,,,,,,,,,,,,,,,,,,,,,,,,,,,,,,,,,,,,,,,,,,,,,,,,,,,,,,,,,,,,,
,8824,CBA,31/12/2004,001,2023-12-08_14h29.38.153,OS3_Mult_verification,2022.2.4,Win32,60.35731531,,,,,,,,,,,,,,,,,,,,,,,,,,,,,,,,,,,,,4971386,6.965,0,"[""4"",""9"",""7"",""1"",""3"",""8"",""6"",""return""]","[1.2306000000238555,1.8003000000716156,3.013600000023871,4.2003999999761845,6.049000000000092,6.347000000000094,6.602000000000089,6.9325000000000045]",,,,,,7,4179386,Audio/4179386.mp3,WAIS,0,1,1,1,1,,,,,,,,,,,,,,,,,,,,,,,,,,,,,,,,,,,,,,,,,,,,,,,,,,,,,,,,,,,,,,,,,,,,,,,,,,,,,,,,,,,,,,,,,,,,,,,,,,,,,,,,,,,,,,,,,,,,,,,
,8824,CBA,31/12/2004,001,2023-12-08_14h29.38.153,OS3_Mult_verification,2022.2.4,Win32,60.35731531,,,,,,,,,,,,,,,,,,,,,,,,,,,,,,,,,,,,,,,,,,,,,,,,,,,,,,,,0,5,5,5,1,digitSpan_stim/sevenWAIS.xlsx,,,,,,,,,,,,,,,,,,,,,,,,,,,,,,,,,,,,,,,,,,,,,,,,,,,,,,,,,,,,,,,,,,,,,,,,,,,,,,,,,,,,,,,,,,,,,,,,,,,,,,,,,,,,,,,,,
,8824,CBA,31/12/2004,001,2023-12-08_14h29.38.153,OS3_Mult_verification,2022.2.4,Win32,60.35731531,,,,,,,,,,,,,,,,,,,,,,,,,,,,,,,,,,,,,38296174,3.2987,1,"[""3"",""8"",""2"",""9"",""6"",""1"",""7"",""4"",""return""]","[0.7882999999523008,0.962699999928418,1.137199999928498,1.36129999995228,1.817099999904599,2.5289999999999964,2.796299999952339,3.0128999999761845,3.2623999999761963]",,,,,,8,38296174,Audio/38296174.mp3,WAIS,0,0,0,0,1,,,,,,,,,,,,,,,,,,,,,,,,,,,,,,,,,,,,,,,,,,,,,,,,,,,,,,,,,,,,,,,,,,,,,,,,,,,,,,,,,,,,,,,,,,,,,,,,,,,,,,,,,,,,,,,,,,,,,,,
,8824,CBA,31/12/2004,001,2023-12-08_14h29.38.153,OS3_Mult_verification,2022.2.4,Win32,60.35731531,,,,,,,,,,,,,,,,,,,,,,,,,,,,,,,,,,,,,52932847,13.097,0,"[""5"",""2"",""9"",""3"",""2"",""8"",""4"",""7"",""return""]","[6.012800000071479,6.483800000071483,7.245400000095401,7.5873000000715365,8.736800000071526,12.098500000000058,12.513600000023871,12.701999999999998,13.069600000023797]",,,,,,8,58132647,Audio/58132647.mp3,WAIS,0,1,1,1,1,,,,,,,,,,,,,,,,,,,,,,,,,,,,,,,,,,,,,,,,,,,,,,,,,,,,,,,,,,,,,,,,,,,,,,,,,,,,,,,,,,,,,,,,,,,,,,,,,,,,,,,,,,,,,,,,,,,,,,,
,8824,CBA,31/12/2004,001,2023-12-08_14h29.38.153,OS3_Mult_verification,2022.2.4,Win32,60.35731531,,,,,,,,,,,,,,,,,,,,,,,,,,,,,,,,,,,,,,,,,,,,,,,,,,,,,,,,0,6,6,6,1,digitSpan_stim/eightWAIS.xlsx,,,,,,,,,,,,,,,,,,,,,,,,,,,,,,,,,,,,,,,,,,,,,,,,,,,,,,,,,,,,,,,,,,,,,,,,,,,,,,,,,,,,,,,,,,,,,,,,,,,,,,,,,,,,,,,,,
,8824,CBA,31/12/2004,001,2023-12-08_14h29.38.153,OS3_Mult_verification,2022.2.4,Win32,60.35731531,,,,,,,,,,,,,,,,,,,,,,,,,,,,,,,,,,,,,275863194,6.0479,1,"[""2"",""7"",""5"",""8"",""6"",""3"",""1"",""9"",""4"",""return""]","[0.538799999952289,0.7637999999523117,1.181799999952318,1.4461000000237618,2.2133999999761045,2.764100000023859,4.512100000023793,5.080799999952319,5.513299999952324,6.0151000000238355]",,,,,,9,275863194,Audio/275863194.mp3,WAIS,0,0,0,0,1,,,,,,,,,,,,,,,,,,,,,,,,,,,,,,,,,,,,,,,,,,,,,,,,,,,,,,,,,,,,,,,,,,,,,,,,,,,,,,,,,,,,,,,,,,,,,,,,,,,,,,,,,,,,,,,,,,,,,,,
,8824,CBA,31/12/2004,001,2023-12-08_14h29.38.153,OS3_Mult_verification,2022.2.4,Win32,60.35731531,,,,,,,,,,,,,,,,,,,,,,,,,,,,,,,,,,,,,371942568,12.0633,0,"[""3"",""7"",""2"",""9"",""backspace"",""backspace"",""backspace"",""backspace"",""backspace"",""3"",""7"",""1"",""9"",""4"",""2"",""5"",""6"",""8"",""return""]","[1.5173999999761918,1.8298999999761918,2.4495000000000573,2.652500000000032,4.16439999997624,4.316200000047729,4.449399999976208,4.585600000023874,4.735100000023863,7.764100000023859,7.996500000000083,8.712100000023838,8.977600000023926,9.613000000000056,10.177999999999997,10.661700000047745,11.381600000023923,11.75370000004773,12.037600000023872]",,,,,,9,713942568,Audio/713942568.mp3,WAIS,0,1,1,1,1,,,,,,,,,,,,,,,,,,,,,,,,,,,,,,,,,,,,,,,,,,,,,,,,,,,,,,,,,,,,,,,,,,,,,,,,,,,,,,,,,,,,,,,,,,,,,,,,,,,,,,,,,,,,,,,,,,,,,,,
,8824,CBA,31/12/2004,001,2023-12-08_14h29.38.153,OS3_Mult_verification,2022.2.4,Win32,60.35731531,,,,,,,,,,,,,,,,,,,,,,,,,,,,,,,,,,,,,,,,,,,,,,,,,,,,,,,,0,7,7,7,1,digitSpan_stim/nineWAIS.xlsx,,,,,,,,,,,,,,,,,,,,,,,,,,,,,,,,,,,,,,,,,,,,,,,,,,,,,,,,,,,,,,,,,,,,,,,,,,,,,,,,,,,,,,,,,,,,,,,,,,,,,,,,,,,,,,,,,
,8824,CBA,31/12/2004,001,2023-12-08_14h29.38.153,OS3_Mult_verification,2022.2.4,Win32,60.35731531,,,,,,,,,,,,,,,,,,,,,,,,,,,,,,,,,,,,,,,,,,,,,,,WAIS,,,,,,,,,,,,,,,0,1,1,1,1,digitSpan_stim/WAIS.xlsx,,,,,,,,,,,,,,,,,,,,,,,,,,,,,,,,,,,,,,,,,,,,,,,,,,,,,,,,,,,,,,,,,,,,,,,,,,,,,,,,,,,,,,,,,,,,,,,,,,,,,,,,,,,
,8824,CBA,31/12/2004,001,2023-12-08_14h29.38.153,OS3_Mult_verification,2022.2.4,Win32,60.35731531,,,,,,,,,,,,,,,,,,,,,,,,,,,,,,,,,,,,,,,,,,,,,,,,,,,,,,,,,,,,,,,,,,,,0,0,0,0,1,,,,,,,,,,,,,,,,,,,,,,,,,,,,,,,,,,,,,,,,,,,,,,,,,,,,,,,,,,,,,,,,,,,,,,,,,,,,,,,,,,,,,,,,,,,,,,,,,,,,,,
,8824,CBA,31/12/2004,001,2023-12-08_14h29.38.153,OS3_Mult_verification,2022.2.4,Win32,60.35731531,,,,,,,,,,,,,,,,,,,,,,,,,,,,,,,,,,,,,,,,,,,,,,,,,,,,,,,,,,,,,,,,,,,,,,,,,0,0,0,0,1,0,0,1,,,,,,,,,,,,,,,,,,,,,,,,,,,,,,,,,,,,,,,,,,,,,,,,,,,,,,,,,,,,,,,,,,,,,,,,,,,,,,,,,,,,,,,,,,,,,,
,8824,CBA,31/12/2004,001,2023-12-08_14h29.38.153,OS3_Mult_verification,2022.2.4,Win32,60.35731531,,,,,,,,,,,,,,,,space,1.0073,,,,,,,,,,,,,,,,,,,,,,,,,,,,,,,,,,,,,,,,,,,,,,,,,,,,,,,,,,,,,,,,TRUE,4.1484,-0.033333333,-0.345138889,1,0,0,0,0,0,1,1,practice trial,,3,3,,,,,,,,,,,,,,,,,,,,,,,,,,,,,,,,,,,,,,,,,,,,,,,,,,,,,,,,,,,,,,,,,,,,,,,,,,,,,,
,8824,CBA,31/12/2004,001,2023-12-08_14h29.38.153,OS3_Mult_verification,2022.2.4,Win32,60.35731531,,,,,,,,,,,,,,,,,,,,,,,,,,,,,,,,,,,,,,,,,,,,,,,,,,,,,,,,,,,,,,,,,,,,,,,,,,,,,,,,,TRUE,2.4163,0.013194444,-0.352777778,1,0,0,0,1,1,0,1,practice trial,,3,3,,,,,,,,,,,,,,,,,,,,,,,,,,,,,,,,,,,,,,,,,,,,,,,,,,,,,,,,,,,,,,,,,,,,,,,,,,,,,,
,8824,CBA,31/12/2004,001,2023-12-08_14h29.38.153,OS3_Mult_verification,2022.2.4,Win32,60.35731531,,,,,,,,,,,,,,,,,,,,,,,,,,,,,,,,,,,,,,,,,,,,,,,,,,,,,,,,,,,,,,,,,,,,,,,,,,,,,,,,,TRUE,2.3657,-0.040972222,-0.35625,1,0,0,0,2,2,2,1,practice trial,,3,3,,,,,,,,,,,,,,,,,,,,,,,,,,,,,,,,,,,,,,,,,,,,,,,,,,,,,,,,,,,,,,,,,,,,,,,,,,,,,,
,8824,CBA,31/12/2004,001,2023-12-08_14h29.38.153,OS3_Mult_verification,2022.2.4,Win32,60.35731531,,,,,,,,,,,,,,,,,,,,,,,,,,,,,,,,,,,,,,,,,,,,,,,,,,,,,,,,,,,,,,,,,,,,,,,,,,,,,,,,,TRUE,1.5487,-0.071527778,-0.339583333,1,0,0,,,,,,Trial #1,,2,2,0,0,0,0,1,2,,,,,,,,,,,,,,,,,,,,,,,,,,,,,,,,,,,,,,,,,,,,,,,,,,,,,,,,,,,,,,,,,,,,,,,,
,8824,CBA,31/12/2004,001,2023-12-08_14h29.38.153,OS3_Mult_verification,2022.2.4,Win32,60.35731531,,,,,,,,,,,,,,,,,,,,,,,,,,,,,,,,,,,,,,,,,,,,,,,,,,,,,,,,,,,,,,,,,,,,,,,,,,,,,,,,,TRUE,1.4495,0.004861111,-0.335416667,1,0,0,,,,,,Trial #1,,2,2,0,1,1,1,1,2,,,,,,,,,,,,,,,,,,,,,,,,,,,,,,,,,,,,,,,,,,,,,,,,,,,,,,,,,,,,,,,,,,,,,,,,
,8824,CBA,31/12/2004,001,2023-12-08_14h29.38.153,OS3_Mult_verification,2022.2.4,Win32,60.35731531,,,,,,,,,,,,,,,,,,,,,,,,,,,,,,,,,,,,,,,,,,,,,,,,,,,,,,,,,,,,,,,,,,,,,,,,,,,,,,,,,TRUE,1.2324,-0.038194444,-0.334027778,1,0,0,,,,,,Trial #1,,2,2,0,2,2,2,1,2,,,,,,,,,,,,,,,,,,,,,,,,,,,,,,,,,,,,,,,,,,,,,,,,,,,,,,,,,,,,,,,,,,,,,,,,
,8824,CBA,31/12/2004,001,2023-12-08_14h29.38.153,OS3_Mult_verification,2022.2.4,Win32,60.35731531,,,,,,,,,,,,,,,,,,,,,,,,,,,,,,,,,,,,,,,,,,,,,,,,,,,,,,,,,,,,,,,,,,,,,,,,,,,,,,,,,TRUE,1.8324,0.04375,-0.341666667,1,0,0,,,,,,Trial #2,,3,3,0,0,0,0,1,3,,,,,,,,,,,,,,,,,,,,,,,,,,,,,,,,,,,,,,,,,,,,,,,,,,,,,,,,,,,,,,,,,,,,,,,,
,8824,CBA,31/12/2004,001,2023-12-08_14h29.38.153,OS3_Mult_verification,2022.2.4,Win32,60.35731531,,,,,,,,,,,,,,,,,,,,,,,,,,,,,,,,,,,,,,,,,,,,,,,,,,,,,,,,,,,,,,,,,,,,,,,,,,,,,,,,,TRUE,1.633,0.039583333,-0.353472222,1,0,0,,,,,,Trial #2,,3,3,0,1,1,1,1,3,,,,,,,,,,,,,,,,,,,,,,,,,,,,,,,,,,,,,,,,,,,,,,,,,,,,,,,,,,,,,,,,,,,,,,,,
,8824,CBA,31/12/2004,001,2023-12-08_14h29.38.153,OS3_Mult_verification,2022.2.4,Win32,60.35731531,,,,,,,,,,,,,,,,,,,,,,,,,,,,,,,,,,,,,,,,,,,,,,,,,,,,,,,,,,,,,,,,,,,,,,,,,,,,,,,,,TRUE,1.6327,0.04375,-0.353472222,1,0,0,,,,,,Trial #2,,3,3,0,2,2,2,1,3,,,,,,,,,,,,,,,,,,,,,,,,,,,,,,,,,,,,,,,,,,,,,,,,,,,,,,,,,,,,,,,,,,,,,,,,
,8824,CBA,31/12/2004,001,2023-12-08_14h29.38.153,OS3_Mult_verification,2022.2.4,Win32,60.35731531,,,,,,,,,,,,,,,,,,,,,,,,,,,,,,,,,,,,,,,,,,,,,,,,,,,,,,,,,,,,,,,,,,,,,,,,,,,,,,,,,TRUE,1.8992,-0.015972222,-0.356944444,1,0,0,,,,,,Trial #3,,3,3,0,0,0,0,1,4,,,,,,,,,,,,,,,,,,,,,,,,,,,,,,,,,,,,,,,,,,,,,,,,,,,,,,,,,,,,,,,,,,,,,,,,
,8824,CBA,31/12/2004,001,2023-12-08_14h29.38.153,OS3_Mult_verification,2022.2.4,Win32,60.35731531,,,,,,,,,,,,,,,,,,,,,,,,,,,,,,,,,,,,,,,,,,,,,,,,,,,,,,,,,,,,,,,,,,,,,,,,,,,,,,,,,TRUE,1.9824,-0.027777778,-0.339583333,1,0,0,,,,,,Trial #3,,3,3,0,1,1,1,1,4,,,,,,,,,,,,,,,,,,,,,,,,,,,,,,,,,,,,,,,,,,,,,,,,,,,,,,,,,,,,,,,,,,,,,,,,
,8824,CBA,31/12/2004,001,2023-12-08_14h29.38.153,OS3_Mult_verification,2022.2.4,Win32,60.35731531,,,,,,,,,,,,,,,,,,,,,,,,,,,,,,,,,,,,,,,,,,,,,,,,,,,,,,,,,,,,,,,,,,,,,,,,,,,,,,,,,TRUE,1.7321,0.022222222,-0.34375,1,0,0,,,,,,Trial #3,,3,3,0,2,2,2,1,4,,,,,,,,,,,,,,,,,,,,,,,,,,,,,,,,,,,,,,,,,,,,,,,,,,,,,,,,,,,,,,,,,,,,,,,,
,8824,CBA,31/12/2004,001,2023-12-08_14h29.38.153,OS3_Mult_verification,2022.2.4,Win32,60.35731531,,,,,,,,,,,,,,,,,,,,,,,,,,,,,,,,,,,,,,,,,,,,,,,,,,,,,,,,,,,,,,,,,,,,,,,,,,,,,,,,,TRUE,3.1985,-0.009027778,-0.33125,1,0,0,,,,,,Trial #4,,4,4,0,0,0,0,1,5,,,,,,,,,,,,,,,,,,,,,,,,,,,,,,,,,,,,,,,,,,,,,,,,,,,,,,,,,,,,,,,,,,,,,,,,
,8824,CBA,31/12/2004,001,2023-12-08_14h29.38.153,OS3_Mult_verification,2022.2.4,Win32,60.35731531,,,,,,,,,,,,,,,,,,,,,,,,,,,,,,,,,,,,,,,,,,,,,,,,,,,,,,,,,,,,,,,,,,,,,,,,,,,,,,,,,TRUE,2.1661,0.044444444,-0.329861111,1,0,0,,,,,,Trial #4,,4,4,0,1,1,1,1,5,,,,,,,,,,,,,,,,,,,,,,,,,,,,,,,,,,,,,,,,,,,,,,,,,,,,,,,,,,,,,,,,,,,,,,,,
,8824,CBA,31/12/2004,001,2023-12-08_14h29.38.153,OS3_Mult_verification,2022.2.4,Win32,60.35731531,,,,,,,,,,,,,,,,,,,,,,,,,,,,,,,,,,,,,,,,,,,,,,,,,,,,,,,,,,,,,,,,,,,,,,,,,,,,,,,,,TRUE,2.2155,-0.063888889,-0.327777778,1,0,0,,,,,,Trial #4,,4,4,0,2,2,2,1,5,,,,,,,,,,,,,,,,,,,,,,,,,,,,,,,,,,,,,,,,,,,,,,,,,,,,,,,,,,,,,,,,,,,,,,,,
,8824,CBA,31/12/2004,001,2023-12-08_14h29.38.153,OS3_Mult_verification,2022.2.4,Win32,60.35731531,,,,,,,,,,,,,,,,,,,,,,,,,,,,,,,,,,,,,,,,,,,,,,,,,,,,,,,,,,,,,,,,,,,,,,,,,,,,,,,,,TRUE,2.2664,0.117361111,-0.316666667,1,0,0,,,,,,Trial #5,,4,4,0,0,0,0,1,6,,,,,,,,,,,,,,,,,,,,,,,,,,,,,,,,,,,,,,,,,,,,,,,,,,,,,,,,,,,,,,,,,,,,,,,,
,8824,CBA,31/12/2004,001,2023-12-08_14h29.38.153,OS3_Mult_verification,2022.2.4,Win32,60.35731531,,,,,,,,,,,,,,,,,,,,,,,,,,,,,,,,,,,,,,,,,,,,,,,,,,,,,,,,,,,,,,,,,,,,,,,,,,,,,,,,,TRUE,2.9153,-0.109722222,-0.326388889,1,0,0,,,,,,Trial #5,,4,4,0,1,1,1,1,6,,,,,,,,,,,,,,,,,,,,,,,,,,,,,,,,,,,,,,,,,,,,,,,,,,,,,,,,,,,,,,,,,,,,,,,,
,8824,CBA,31/12/2004,001,2023-12-08_14h29.38.153,OS3_Mult_verification,2022.2.4,Win32,60.35731531,,,,,,,,,,,,,,,,,,,,,,,,,,,,,,,,,,,,,,,,,,,,,,,,,,,,,,,,,,,,,,,,,,,,,,,,,,,,,,,,,TRUE,2.8488,0.024305556,-0.326388889,1,0,0,,,,,,Trial #5,,4,4,0,2,2,2,1,6,,,,,,,,,,,,,,,,,,,,,,,,,,,,,,,,,,,,,,,,,,,,,,,,,,,,,,,,,,,,,,,,,,,,,,,,
,8824,CBA,31/12/2004,001,2023-12-08_14h29.38.153,OS3_Mult_verification,2022.2.4,Win32,60.35731531,,,,,,,,,,,,,,,,,,,,,,,,,,,,,,,,,,,,,,,,,,,,,,,,,,,,,,,,,,,,,,,,,,,,,,,,,,,,,,,,,TRUE,2.7485,-0.029166667,-0.334027778,1,0,0,,,,,,Trial #6,,4,4,0,0,0,0,1,7,,,,,,,,,,,,,,,,,,,,,,,,,,,,,,,,,,,,,,,,,,,,,,,,,,,,,,,,,,,,,,,,,,,,,,,,
,8824,CBA,31/12/2004,001,2023-12-08_14h29.38.153,OS3_Mult_verification,2022.2.4,Win32,60.35731531,,,,,,,,,,,,,,,,,,,,,,,,,,,,,,,,,,,,,,,,,,,,,,,,,,,,,,,,,,,,,,,,,,,,,,,,,,,,,,,,,TRUE,2.8651,0.029166667,-0.359027778,1,0,0,,,,,,Trial #6,,4,4,0,1,1,1,1,7,,,,,,,,,,,,,,,,,,,,,,,,,,,,,,,,,,,,,,,,,,,,,,,,,,,,,,,,,,,,,,,,,,,,,,,,
,8824,CBA,31/12/2004,001,2023-12-08_14h29.38.153,OS3_Mult_verification,2022.2.4,Win32,60.35731531,,,,,,,,,,,,,,,,,,,,,,,,,,,,,,,,,,,,,,,,,,,,,,,,,,,,,,,,,,,,,,,,,,,,,,,,,,,,,,,,,TRUE,2.8325,0.022222222,-0.330555556,1,0,0,,,,,,Trial #6,,4,4,0,2,2,2,1,7,,,,,,,,,,,,,,,,,,,,,,,,,,,,,,,,,,,,,,,,,,,,,,,,,,,,,,,,,,,,,,,,,,,,,,,,
,8824,CBA,31/12/2004,001,2023-12-08_14h29.38.153,OS3_Mult_verification,2022.2.4,Win32,60.35731531,,,,,,,,,,,,,,,,,,,,,,,,,,,,,,,,,,,,,,,,,,,,,,,,,,,,,,,,,,,,,,,,,,,,,,,,,,,,,,,,,TRUE,3.3996,0.045138889,-0.349305556,1,0,0,,,,,,Trial #7,,4,4,0,0,0,0,1,8,,,,,,,,,,,,,,,,,,,,,,,,,,,,,,,,,,,,,,,,,,,,,,,,,,,,,,,,,,,,,,,,,,,,,,,,
,8824,CBA,31/12/2004,001,2023-12-08_14h29.38.153,OS3_Mult_verification,2022.2.4,Win32,60.35731531,,,,,,,,,,,,,,,,,,,,,,,,,,,,,,,,,,,,,,,,,,,,,,,,,,,,,,,,,,,,,,,,,,,,,,,,,,,,,,,,,TRUE,3.183,-0.006944444,-0.359722222,1,0,0,,,,,,Trial #7,,4,4,0,1,1,1,1,8,,,,,,,,,,,,,,,,,,,,,,,,,,,,,,,,,,,,,,,,,,,,,,,,,,,,,,,,,,,,,,,,,,,,,,,,
,8824,CBA,31/12/2004,001,2023-12-08_14h29.38.153,OS3_Mult_verification,2022.2.4,Win32,60.35731531,,,,,,,,,,,,,,,,,,,,,,,,,,,,,,,,,,,,,,,,,,,,,,,,,,,,,,,,,,,,,,,,,,,,,,,,,,,,,,,,,TRUE,2.7998,0.059027778,-0.343055556,1,0,0,,,,,,Trial #7,,4,4,0,2,2,2,1,8,,,,,,,,,,,,,,,,,,,,,,,,,,,,,,,,,,,,,,,,,,,,,,,,,,,,,,,,,,,,,,,,,,,,,,,,
,8824,CBA,31/12/2004,001,2023-12-08_14h29.38.153,OS3_Mult_verification,2022.2.4,Win32,60.35731531,,,,,,,,,,,,,,,,,,,,,,,,,,,,,,,,,,,,,,,,,,,,,,,,,,,,,,,,,,,,,,,,,,,,,,,,,,,,,,,,,TRUE,3.2655,0.099305556,-0.35,1,0,0,,,,,,Trial #8,,5,5,0,0,0,0,1,9,,,,,,,,,,,,,,,,,,,,,,,,,,,,,,,,,,,,,,,,,,,,,,,,,,,,,,,,,,,,,,,,,,,,,,,,
,8824,CBA,31/12/2004,001,2023-12-08_14h29.38.153,OS3_Mult_verification,2022.2.4,Win32,60.35731531,,,,,,,,,,,,,,,,,,,,,,,,,,,,,,,,,,,,,,,,,,,,,,,,,,,,,,,,,,,,,,,,,,,,,,,,,,,,,,,,,FALSE,11.0807,-0.0375,-0.345138889,1,0,0,,,,,,Trial #8,,5,5,0,1,1,1,1,9,,,,,,,,,,,,,,,,,,,,,,,,,,,,,,,,,,,,,,,,,,,,,,,,,,,,,,,,,,,,,,,,,,,,,,,,
,8824,CBA,31/12/2004,001,2023-12-08_14h29.38.153,OS3_Mult_verification,2022.2.4,Win32,60.35731531,,,,,,,,,,,,,,,,,,,,,,,,,,,,,,,,,,,,,,,,,,,,,,,,,,,,,,,,,,,,,,,,,,,,,,,,,,,,,,,,,TRUE,3.8158,0.075,-0.354166667,1,0,0,,,,,,Trial #8,,5,5,0,2,2,2,1,9,,,,,,,,,,,,,,,,,,,,,,,,,,,,,,,,,,,,,,,,,,,,,,,,,,,,,,,,,,,,,,,,,,,,,,,,
,8824,CBA,31/12/2004,001,2023-12-08_14h29.38.153,OS3_Mult_verification,2022.2.4,Win32,60.35731531,,,,,,,,,,,,,,,,,,,,,,,,,,,,,,,,,,,,,,,,,,,,,,,,,,,,,,,,,,,,,,,,,,,,,,,,,,,,,,,,,TRUE,3.1992,0.049305556,-0.329166667,1,0,0,,,,,,Trial #9,,5,5,0,0,0,0,1,10,,,,,,,,,,,,,,,,,,,,,,,,,,,,,,,,,,,,,,,,,,,,,,,,,,,,,,,,,,,,,,,,,,,,,,,,
,8824,CBA,31/12/2004,001,2023-12-08_14h29.38.153,OS3_Mult_verification,2022.2.4,Win32,60.35731531,,,,,,,,,,,,,,,,,,,,,,,,,,,,,,,,,,,,,,,,,,,,,,,,,,,,,,,,,,,,,,,,,,,,,,,,,,,,,,,,,TRUE,3.5653,-0.000694444,-0.345138889,1,0,0,,,,,,Trial #9,,5,5,0,1,1,1,1,10,,,,,,,,,,,,,,,,,,,,,,,,,,,,,,,,,,,,,,,,,,,,,,,,,,,,,,,,,,,,,,,,,,,,,,,,
,8824,CBA,31/12/2004,001,2023-12-08_14h29.38.153,OS3_Mult_verification,2022.2.4,Win32,60.35731531,,,,,,,,,,,,,,,,,,,,,,,,,,,,,,,,,,,,,,,,,,,,,,,,,,,,,,,,,,,,,,,,,,,,,,,,,,,,,,,,,TRUE,5.1487,0.083333333,-0.334722222,1,0,0,,,,,,Trial #9,,5,5,0,2,2,2,1,10,,,,,,,,,,,,,,,,,,,,,,,,,,,,,,,,,,,,,,,,,,,,,,,,,,,,,,,,,,,,,,,,,,,,,,,,
,8824,CBA,31/12/2004,001,2023-12-08_14h29.38.153,OS3_Mult_verification,2022.2.4,Win32,60.35731531,,,,,,,,,,,,,,,,,,,,,,,,,,,,,,,,,,,,,,,,,,,,,,,,,,,,,,,,,,,,,,,,,,,,,,,,,,,,,,,,,TRUE,3.8824,0.034027778,-0.344444444,1,0,0,,,,,,Trial #10,,5,5,0,0,0,0,1,11,,,,,,,,,,,,,,,,,,,,,,,,,,,,,,,,,,,,,,,,,,,,,,,,,,,,,,,,,,,,,,,,,,,,,,,,
,8824,CBA,31/12/2004,001,2023-12-08_14h29.38.153,OS3_Mult_verification,2022.2.4,Win32,60.35731531,,,,,,,,,,,,,,,,,,,,,,,,,,,,,,,,,,,,,,,,,,,,,,,,,,,,,,,,,,,,,,,,,,,,,,,,,,,,,,,,,TRUE,4.7486,0.120138889,-0.351388889,1,0,0,,,,,,Trial #10,,5,5,0,1,1,1,1,11,,,,,,,,,,,,,,,,,,,,,,,,,,,,,,,,,,,,,,,,,,,,,,,,,,,,,,,,,,,,,,,,,,,,,,,,
,8824,CBA,31/12/2004,001,2023-12-08_14h29.38.153,OS3_Mult_verification,2022.2.4,Win32,60.35731531,,,,,,,,,,,,,,,,,,,,,,,,,,,,,,,,,,,,,,,,,,,,,,,,,,,,,,,,,,,,,,,,,,,,,,,,,,,,,,,,,TRUE,4.632,0.049305556,-0.332638889,1,0,0,,,,,,Trial #10,,5,5,0,2,2,2,1,11,,,,,,,,,,,,,,,,,,,,,,,,,,,,,,,,,,,,,,,,,,,,,,,,,,,,,,,,,,,,,,,,,,,,,,,,
,8824,CBA,31/12/2004,001,2023-12-08_14h29.38.153,OS3_Mult_verification,2022.2.4,Win32,60.35731531,,,,,,,,,,,,,,,,,,,,,,,,,,,,,,,,,,,,,,,,,,,,,,,,,,,,,,,,,,,,,,,,,,,,,,,,,,,,,,,,,FALSE,7.3981,-0.051388889,-0.327083333,1,0,0,,,,,,Trial #11,,5,5,0,0,0,0,1,12,,,,,,,,,,,,,,,,,,,,,,,,,,,,,,,,,,,,,,,,,,,,,,,,,,,,,,,,,,,,,,,,,,,,,,,,
,8824,CBA,31/12/2004,001,2023-12-08_14h29.38.153,OS3_Mult_verification,2022.2.4,Win32,60.35731531,,,,,,,,,,,,,,,,,,,,,,,,,,,,,,,,,,,,,,,,,,,,,,,,,,,,,,,,,,,,,,,,,,,,,,,,,,,,,,,,,FALSE,5.5823,0.036111111,-0.34375,1,0,0,,,,,,Trial #11,,5,5,0,1,1,1,1,12,,,,,,,,,,,,,,,,,,,,,,,,,,,,,,,,,,,,,,,,,,,,,,,,,,,,,,,,,,,,,,,,,,,,,,,,
,8824,CBA,31/12/2004,001,2023-12-08_14h29.38.153,OS3_Mult_verification,2022.2.4,Win32,60.35731531,,,,,,,,,,,,,,,,,,,,,,,,,,,,,,,,,,,,,,,,,,,,,,,,,,,,,,,,,,,,,,,,,,,,,,,,,,,,,,,,,FALSE,15.7794,0.004861111,-0.321527778,1,0,0,,,,,,Trial #11,,5,5,0,2,2,2,1,12,,,,,,,,,,,,,,,,,,,,,,,,,,,,,,,,,,,,,,,,,,,,,,,,,,,,,,,,,,,,,,,,,,,,,,,,
,8824,CBA,31/12/2004,001,2023-12-08_14h29.38.153,OS3_Mult_verification,2022.2.4,Win32,60.35731531,,,,,,,,,,,,,,,,,,,,,,,,,,,,,,,,,,,,,,,,,,,,,,,,,,,,,,,,,,,,,,,,,,,,,,,,,,,,,,,,,,,,,,,,,,,,,,,,,,,,,,,0,0,0,0,1,,,,,,,,,,,,,,,,,,,,,,,,,,,,,,,,,,,,,,,,,,,,,,,,,,,,,,,,,,,,,,,,,,,
,8824,CBA,31/12/2004,001,2023-12-08_14h29.38.153,OS3_Mult_verification,2022.2.4,Win32,60.35731531,,,,,,,,,,,,,,,,,,,,,,,,,,,,,,,,,,,,,,,,,,,,,,,,,,,,,,,,,,,,,,,,,,,,,,,,,0,1,1,1,1,0,1,0,,,,,,,,,,,,,,,,,,,,,,,,,,,,,,,,,,,,,,,,,,,,,,,,,,,,,,,,,,,,,,,,,,,,,,,,,,,,,,,,,,,,,,,,,,,,,,
,8824,CBA,31/12/2004,001,2023-12-08_14h29.38.153,OS3_Mult_verification,2022.2.4,Win32,60.35731531,,,,,,,,,,,,,,,,space,1.3654,,,,,,,,,,,,,,,,,,,,,,,,,,,,,,,,,,,,,,,,,,,,,,,,,,,,,,,,,,,,,,,,,,,,,,,,,,,,,,,,,,,,,,,,,,,right,1,0.999,0,0,0,2,1,practice,9,9,9 | 9,0,0.05,0.065,neutral,right,,,,,,,,,,,,,,,,,,,,,,,,,,,,,,,,,,,,,,,,,,,,,,,,,,
,8824,CBA,31/12/2004,001,2023-12-08_14h29.38.153,OS3_Mult_verification,2022.2.4,Win32,60.35731531,,,,,,,,,,,,,,,,,,,,,,,,,,,,,,,,,,,,,,,,,,,,,,,,,,,,,,,,,,,,,,,,,,,,,,,,,,,,,,,,,,,,,,,,,,,,,,,,,,,,,,,,,,,,left,1,0.5358,0,1,1,0,1,practice,9,8,9 | 8,1,0.065,0.05,congruent,left,,,,,,,,,,,,,,,,,,,,,,,,,,,,,,,,,,,,,,,,,,,,,,,,,,
,8824,CBA,31/12/2004,001,2023-12-08_14h29.38.153,OS3_Mult_verification,2022.2.4,Win32,60.35731531,,,,,,,,,,,,,,,,,,,,,,,,,,,,,,,,,,,,,,,,,,,,,,,,,,,,,,,,,,,,,,,,,,,,,,,,,,,,,,,,,,,,,,,,,,,,,,,,,,,,,,,,,,,,right,1,0.4857,0,2,2,1,1,practice,4,3,4 | 3,1,0.05,0.065,incongruent,right,,,,,,,,,,,,,,,,,,,,,,,,,,,,,,,,,,,,,,,,,,,,,,,,,,
,8824,CBA,31/12/2004,001,2023-12-08_14h29.38.153,OS3_Mult_verification,2022.2.4,Win32,60.35731531,,,,,,,,,,,,,,,,,,,,,,,,,,,,,,,,,,,,,,,,,,,,,,,,,,,,,,,,,,,,,,,,,,,,,,,,,,,,,,,,,,,,,,,,,,,,,,,,,,,,,,,,,,,,left,1,1.1511,,,,,,physical,2,4,2 | 4,2,0.065,0.05,incongruent,left,0,0,0,33,1,,,,,,,,,,,,,,,,,,,,,,,,,,,,,,,,,,,,,,,,,,,,,
,8824,CBA,31/12/2004,001,2023-12-08_14h29.38.153,OS3_Mult_verification,2022.2.4,Win32,60.35731531,,,,,,,,,,,,,,,,,,,,,,,,,,,,,,,,,,,,,,,,,,,,,,,,,,,,,,,,,,,,,,,,,,,,,,,,,,,,,,,,,,,,,,,,,,,,,,,,,,,,,,,,,,,,left,1,0.7686,,,,,,physical,4,4,4 | 4,0,0.065,0.05,neutral,left,0,1,1,53,1,,,,,,,,,,,,,,,,,,,,,,,,,,,,,,,,,,,,,,,,,,,,,
,8824,CBA,31/12/2004,001,2023-12-08_14h29.38.153,OS3_Mult_verification,2022.2.4,Win32,60.35731531,,,,,,,,,,,,,,,,,,,,,,,,,,,,,,,,,,,,,,,,,,,,,,,,,,,,,,,,,,,,,,,,,,,,,,,,,,,,,,,,,,,,,,,,,,,,,,,,,,,,,,,,,,,,right,1,0.7188,,,,,,physical,7,2,7 | 2,5,0.05,0.065,incongruent,right,0,2,2,45,1,,,,,,,,,,,,,,,,,,,,,,,,,,,,,,,,,,,,,,,,,,,,,
,8824,CBA,31/12/2004,001,2023-12-08_14h29.38.153,OS3_Mult_verification,2022.2.4,Win32,60.35731531,,,,,,,,,,,,,,,,,,,,,,,,,,,,,,,,,,,,,,,,,,,,,,,,,,,,,,,,,,,,,,,,,,,,,,,,,,,,,,,,,,,,,,,,,,,,,,,,,,,,,,,,,,,,left,1,0.5611,,,,,,physical,2,2,2 | 2,0,0.065,0.05,neutral,left,0,3,3,52,1,,,,,,,,,,,,,,,,,,,,,,,,,,,,,,,,,,,,,,,,,,,,,
,8824,CBA,31/12/2004,001,2023-12-08_14h29.38.153,OS3_Mult_verification,2022.2.4,Win32,60.35731531,,,,,,,,,,,,,,,,,,,,,,,,,,,,,,,,,,,,,,,,,,,,,,,,,,,,,,,,,,,,,,,,,,,,,,,,,,,,,,,,,,,,,,,,,,,,,,,,,,,,,,,,,,,,right,1,0.5344,,,,,,physical,4,4,4 | 4,0,0.05,0.065,neutral,right,0,4,4,67,1,,,,,,,,,,,,,,,,,,,,,,,,,,,,,,,,,,,,,,,,,,,,,
,8824,CBA,31/12/2004,001,2023-12-08_14h29.38.153,OS3_Mult_verification,2022.2.4,Win32,60.35731531,,,,,,,,,,,,,,,,,,,,,,,,,,,,,,,,,,,,,,,,,,,,,,,,,,,,,,,,,,,,,,,,,,,,,,,,,,,,,,,,,,,,,,,,,,,,,,,,,,,,,,,,,,,,right,1,0.5337,,,,,,physical,2,4,2 | 4,2,0.05,0.065,congruent,right,0,5,5,9,1,,,,,,,,,,,,,,,,,,,,,,,,,,,,,,,,,,,,,,,,,,,,,
,8824,CBA,31/12/2004,001,2023-12-08_14h29.38.153,OS3_Mult_verification,2022.2.4,Win32,60.35731531,,,,,,,,,,,,,,,,,,,,,,,,,,,,,,,,,,,,,,,,,,,,,,,,,,,,,,,,,,,,,,,,,,,,,,,,,,,,,,,,,,,,,,,,,,,,,,,,,,,,,,,,,,,,left,1,0.5067,,,,,,physical,8,8,8 | 8,0,0.065,0.05,neutral,left,0,6,6,70,1,,,,,,,,,,,,,,,,,,,,,,,,,,,,,,,,,,,,,,,,,,,,,
,8824,CBA,31/12/2004,001,2023-12-08_14h29.38.153,OS3_Mult_verification,2022.2.4,Win32,60.35731531,,,,,,,,,,,,,,,,,,,,,,,,,,,,,,,,,,,,,,,,,,,,,,,,,,,,,,,,,,,,,,,,,,,,,,,,,,,,,,,,,,,,,,,,,,,,,,,,,,,,,,,,,,,,left,1,0.5056,,,,,,physical,3,3,3 | 3,0,0.065,0.05,neutral,left,0,7,7,66,1,,,,,,,,,,,,,,,,,,,,,,,,,,,,,,,,,,,,,,,,,,,,,
,8824,CBA,31/12/2004,001,2023-12-08_14h29.38.153,OS3_Mult_verification,2022.2.4,Win32,60.35731531,,,,,,,,,,,,,,,,,,,,,,,,,,,,,,,,,,,,,,,,,,,,,,,,,,,,,,,,,,,,,,,,,,,,,,,,,,,,,,,,,,,,,,,,,,,,,,,,,,,,,,,,,,,,right,1,0.5151,,,,,,physical,4,2,4 | 2,2,0.05,0.065,incongruent,right,0,8,8,37,1,,,,,,,,,,,,,,,,,,,,,,,,,,,,,,,,,,,,,,,,,,,,,
,8824,CBA,31/12/2004,001,2023-12-08_14h29.38.153,OS3_Mult_verification,2022.2.4,Win32,60.35731531,,,,,,,,,,,,,,,,,,,,,,,,,,,,,,,,,,,,,,,,,,,,,,,,,,,,,,,,,,,,,,,,,,,,,,,,,,,,,,,,,,,,,,,,,,,,,,,,,,,,,,,,,,,,left,1,0.5506,,,,,,physical,7,6,7 | 6,1,0.065,0.05,congruent,left,0,9,9,6,1,,,,,,,,,,,,,,,,,,,,,,,,,,,,,,,,,,,,,,,,,,,,,
,8824,CBA,31/12/2004,001,2023-12-08_14h29.38.153,OS3_Mult_verification,2022.2.4,Win32,60.35731531,,,,,,,,,,,,,,,,,,,,,,,,,,,,,,,,,,,,,,,,,,,,,,,,,,,,,,,,,,,,,,,,,,,,,,,,,,,,,,,,,,,,,,,,,,,,,,,,,,,,,,,,,,,,left,1,0.5843,,,,,,physical,1,2,1 | 2,1,0.065,0.05,incongruent,left,0,10,10,24,1,,,,,,,,,,,,,,,,,,,,,,,,,,,,,,,,,,,,,,,,,,,,,
,8824,CBA,31/12/2004,001,2023-12-08_14h29.38.153,OS3_Mult_verification,2022.2.4,Win32,60.35731531,,,,,,,,,,,,,,,,,,,,,,,,,,,,,,,,,,,,,,,,,,,,,,,,,,,,,,,,,,,,,,,,,,,,,,,,,,,,,,,,,,,,,,,,,,,,,,,,,,,,,,,,,,,,right,0,0.5412,,,,,,physical,1,1,1 | 1,0,0.065,0.05,neutral,left,0,11,11,64,1,,,,,,,,,,,,,,,,,,,,,,,,,,,,,,,,,,,,,,,,,,,,,
,8824,CBA,31/12/2004,001,2023-12-08_14h29.38.153,OS3_Mult_verification,2022.2.4,Win32,60.35731531,,,,,,,,,,,,,,,,,,,,,,,,,,,,,,,,,,,,,,,,,,,,,,,,,,,,,,,,,,,,,,,,,,,,,,,,,,,,,,,,,,,,,,,,,,,,,,,,,,,,,,,,,,,,left,1,0.6783,,,,,,physical,9,7,9 | 7,2,0.065,0.05,congruent,left,0,12,12,15,1,,,,,,,,,,,,,,,,,,,,,,,,,,,,,,,,,,,,,,,,,,,,,
,8824,CBA,31/12/2004,001,2023-12-08_14h29.38.153,OS3_Mult_verification,2022.2.4,Win32,60.35731531,,,,,,,,,,,,,,,,,,,,,,,,,,,,,,,,,,,,,,,,,,,,,,,,,,,,,,,,,,,,,,,,,,,,,,,,,,,,,,,,,,,,,,,,,,,,,,,,,,,,,,,,,,,,left,1,0.6679,,,,,,physical,9,8,9 | 8,1,0.065,0.05,congruent,left,0,13,13,7,1,,,,,,,,,,,,,,,,,,,,,,,,,,,,,,,,,,,,,,,,,,,,,
,8824,CBA,31/12/2004,001,2023-12-08_14h29.38.153,OS3_Mult_verification,2022.2.4,Win32,60.35731531,,,,,,,,,,,,,,,,,,,,,,,,,,,,,,,,,,,,,,,,,,,,,,,,,,,,,,,,,,,,,,,,,,,,,,,,,,,,,,,,,,,,,,,,,,,,,,,,,,,,,,,,,,,,right,1,0.5169,,,,,,physical,2,2,2 | 2,0,0.05,0.065,neutral,right,0,14,14,65,1,,,,,,,,,,,,,,,,,,,,,,,,,,,,,,,,,,,,,,,,,,,,,
,8824,CBA,31/12/2004,001,2023-12-08_14h29.38.153,OS3_Mult_verification,2022.2.4,Win32,60.35731531,,,,,,,,,,,,,,,,,,,,,,,,,,,,,,,,,,,,,,,,,,,,,,,,,,,,,,,,,,,,,,,,,,,,,,,,,,,,,,,,,,,,,,,,,,,,,,,,,,,,,,,,,,,,right,1,0.578,,,,,,physical,1,3,1 | 3,2,0.05,0.065,congruent,right,0,15,15,8,1,,,,,,,,,,,,,,,,,,,,,,,,,,,,,,,,,,,,,,,,,,,,,
,8824,CBA,31/12/2004,001,2023-12-08_14h29.38.153,OS3_Mult_verification,2022.2.4,Win32,60.35731531,,,,,,,,,,,,,,,,,,,,,,,,,,,,,,,,,,,,,,,,,,,,,,,,,,,,,,,,,,,,,,,,,,,,,,,,,,,,,,,,,,,,,,,,,,,,,,,,,,,,,,,,,,,,left,1,1.3688,,,,,,physical,7,9,7 | 9,2,0.065,0.05,incongruent,left,0,16,16,35,1,,,,,,,,,,,,,,,,,,,,,,,,,,,,,,,,,,,,,,,,,,,,,
,8824,CBA,31/12/2004,001,2023-12-08_14h29.38.153,OS3_Mult_verification,2022.2.4,Win32,60.35731531,,,,,,,,,,,,,,,,,,,,,,,,,,,,,,,,,,,,,,,,,,,,,,,,,,,,,,,,,,,,,,,,,,,,,,,,,,,,,,,,,,,,,,,,,,,,,,,,,,,,,,,,,,,,right,1,0.4729,,,,,,physical,3,4,3 | 4,1,0.05,0.065,congruent,right,0,17,17,1,1,,,,,,,,,,,,,,,,,,,,,,,,,,,,,,,,,,,,,,,,,,,,,
,8824,CBA,31/12/2004,001,2023-12-08_14h29.38.153,OS3_Mult_verification,2022.2.4,Win32,60.35731531,,,,,,,,,,,,,,,,,,,,,,,,,,,,,,,,,,,,,,,,,,,,,,,,,,,,,,,,,,,,,,,,,,,,,,,,,,,,,,,,,,,,,,,,,,,,,,,,,,,,,,,,,,,,right,1,0.5534,,,,,,physical,3,3,3 | 3,0,0.05,0.065,neutral,right,0,18,18,60,1,,,,,,,,,,,,,,,,,,,,,,,,,,,,,,,,,,,,,,,,,,,,,
,8824,CBA,31/12/2004,001,2023-12-08_14h29.38.153,OS3_Mult_verification,2022.2.4,Win32,60.35731531,,,,,,,,,,,,,,,,,,,,,,,,,,,,,,,,,,,,,,,,,,,,,,,,,,,,,,,,,,,,,,,,,,,,,,,,,,,,,,,,,,,,,,,,,,,,,,,,,,,,,,,,,,,,left,1,0.5012,,,,,,physical,8,3,8 | 3,5,0.065,0.05,congruent,left,0,19,19,22,1,,,,,,,,,,,,,,,,,,,,,,,,,,,,,,,,,,,,,,,,,,,,,
,8824,CBA,31/12/2004,001,2023-12-08_14h29.38.153,OS3_Mult_verification,2022.2.4,Win32,60.35731531,,,,,,,,,,,,,,,,,,,,,,,,,,,,,,,,,,,,,,,,,,,,,,,,,,,,,,,,,,,,,,,,,,,,,,,,,,,,,,,,,,,,,,,,,,,,,,,,,,,,,,,,,,,,right,1,0.4863,,,,,,physical,9,9,9 | 9,0,0.05,0.065,neutral,right,0,20,20,71,1,,,,,,,,,,,,,,,,,,,,,,,,,,,,,,,,,,,,,,,,,,,,,
,8824,CBA,31/12/2004,001,2023-12-08_14h29.38.153,OS3_Mult_verification,2022.2.4,Win32,60.35731531,,,,,,,,,,,,,,,,,,,,,,,,,,,,,,,,,,,,,,,,,,,,,,,,,,,,,,,,,,,,,,,,,,,,,,,,,,,,,,,,,,,,,,,,,,,,,,,,,,,,,,,,,,,,right,1,0.5341,,,,,,physical,1,1,1 | 1,0,0.05,0.065,neutral,right,0,21,21,56,1,,,,,,,,,,,,,,,,,,,,,,,,,,,,,,,,,,,,,,,,,,,,,
,8824,CBA,31/12/2004,001,2023-12-08_14h29.38.153,OS3_Mult_verification,2022.2.4,Win32,60.35731531,,,,,,,,,,,,,,,,,,,,,,,,,,,,,,,,,,,,,,,,,,,,,,,,,,,,,,,,,,,,,,,,,,,,,,,,,,,,,,,,,,,,,,,,,,,,,,,,,,,,,,,,,,,,left,1,0.5055,,,,,,physical,9,9,9 | 9,0,0.065,0.05,neutral,left,0,22,22,55,1,,,,,,,,,,,,,,,,,,,,,,,,,,,,,,,,,,,,,,,,,,,,,
,8824,CBA,31/12/2004,001,2023-12-08_14h29.38.153,OS3_Mult_verification,2022.2.4,Win32,60.35731531,,,,,,,,,,,,,,,,,,,,,,,,,,,,,,,,,,,,,,,,,,,,,,,,,,,,,,,,,,,,,,,,,,,,,,,,,,,,,,,,,,,,,,,,,,,,,,,,,,,,,,,,,,,,right,1,0.4175,,,,,,physical,9,7,9 | 7,2,0.05,0.065,incongruent,right,0,23,23,39,1,,,,,,,,,,,,,,,,,,,,,,,,,,,,,,,,,,,,,,,,,,,,,
,8824,CBA,31/12/2004,001,2023-12-08_14h29.38.153,OS3_Mult_verification,2022.2.4,Win32,60.35731531,,,,,,,,,,,,,,,,,,,,,,,,,,,,,,,,,,,,,,,,,,,,,,,,,,,,,,,,,,,,,,,,,,,,,,,,,,,,,,,,,,,,,,,,,,,,,,,,,,,,,,,,,,,,right,1,0.5101,,,,,,physical,9,9,9 | 9,0,0.05,0.065,neutral,right,0,24,24,63,1,,,,,,,,,,,,,,,,,,,,,,,,,,,,,,,,,,,,,,,,,,,,,
,8824,CBA,31/12/2004,001,2023-12-08_14h29.38.153,OS3_Mult_verification,2022.2.4,Win32,60.35731531,,,,,,,,,,,,,,,,,,,,,,,,,,,,,,,,,,,,,,,,,,,,,,,,,,,,,,,,,,,,,,,,,,,,,,,,,,,,,,,,,,,,,,,,,,,,,,,,,,,,,,,,,,,,left,1,0.525,,,,,,physical,1,1,1 | 1,0,0.065,0.05,neutral,left,0,25,25,48,1,,,,,,,,,,,,,,,,,,,,,,,,,,,,,,,,,,,,,,,,,,,,,
,8824,CBA,31/12/2004,001,2023-12-08_14h29.38.153,OS3_Mult_verification,2022.2.4,Win32,60.35731531,,,,,,,,,,,,,,,,,,,,,,,,,,,,,,,,,,,,,,,,,,,,,,,,,,,,,,,,,,,,,,,,,,,,,,,,,,,,,,,,,,,,,,,,,,,,,,,,,,,,,,,,,,,,right,1,0.4676,,,,,,physical,2,1,2 | 1,1,0.05,0.065,incongruent,right,0,26,26,28,1,,,,,,,,,,,,,,,,,,,,,,,,,,,,,,,,,,,,,,,,,,,,,
,8824,CBA,31/12/2004,001,2023-12-08_14h29.38.153,OS3_Mult_verification,2022.2.4,Win32,60.35731531,,,,,,,,,,,,,,,,,,,,,,,,,,,,,,,,,,,,,,,,,,,,,,,,,,,,,,,,,,,,,,,,,,,,,,,,,,,,,,,,,,,,,,,,,,,,,,,,,,,,,,,,,,,,right,1,0.5688,,,,,,physical,6,7,6 | 7,1,0.05,0.065,congruent,right,0,27,27,2,1,,,,,,,,,,,,,,,,,,,,,,,,,,,,,,,,,,,,,,,,,,,,,
,8824,CBA,31/12/2004,001,2023-12-08_14h29.38.153,OS3_Mult_verification,2022.2.4,Win32,60.35731531,,,,,,,,,,,,,,,,,,,,,,,,,,,,,,,,,,,,,,,,,,,,,,,,,,,,,,,,,,,,,,,,,,,,,,,,,,,,,,,,,,,,,,,,,,,,,,,,,,,,,,,,,,,,left,1,0.5818,,,,,,physical,4,2,4 | 2,2,0.065,0.05,congruent,left,0,28,28,13,1,,,,,,,,,,,,,,,,,,,,,,,,,,,,,,,,,,,,,,,,,,,,,
,8824,CBA,31/12/2004,001,2023-12-08_14h29.38.153,OS3_Mult_verification,2022.2.4,Win32,60.35731531,,,,,,,,,,,,,,,,,,,,,,,,,,,,,,,,,,,,,,,,,,,,,,,,,,,,,,,,,,,,,,,,,,,,,,,,,,,,,,,,,,,,,,,,,,,,,,,,,,,,,,,,,,,,left,1,0.7679,,,,,,physical,9,4,9 | 4,5,0.065,0.05,congruent,left,0,29,29,23,1,,,,,,,,,,,,,,,,,,,,,,,,,,,,,,,,,,,,,,,,,,,,,
,8824,CBA,31/12/2004,001,2023-12-08_14h29.38.153,OS3_Mult_verification,2022.2.4,Win32,60.35731531,,,,,,,,,,,,,,,,,,,,,,,,,,,,,,,,,,,,,,,,,,,,,,,,,,,,,,,,,,,,,,,,,,,,,,,,,,,,,,,,,,,,,,,,,,,,,,,,,,,,,,,,,,,,left,1,0.5762,,,,,,physical,7,2,7 | 2,5,0.065,0.05,congruent,left,0,30,30,21,1,,,,,,,,,,,,,,,,,,,,,,,,,,,,,,,,,,,,,,,,,,,,,
,8824,CBA,31/12/2004,001,2023-12-08_14h29.38.153,OS3_Mult_verification,2022.2.4,Win32,60.35731531,,,,,,,,,,,,,,,,,,,,,,,,,,,,,,,,,,,,,,,,,,,,,,,,,,,,,,,,,,,,,,,,,,,,,,,,,,,,,,,,,,,,,,,,,,,,,,,,,,,,,,,,,,,,left,1,0.6172,,,,,,physical,7,7,7 | 7,0,0.065,0.05,neutral,left,0,31,31,54,1,,,,,,,,,,,,,,,,,,,,,,,,,,,,,,,,,,,,,,,,,,,,,
,8824,CBA,31/12/2004,001,2023-12-08_14h29.38.153,OS3_Mult_verification,2022.2.4,Win32,60.35731531,,,,,,,,,,,,,,,,,,,,,,,,,,,,,,,,,,,,,,,,,,,,,,,,,,,,,,,,,,,,,,,,,,,,,,,,,,,,,,,,,,,,,,,,,,,,,,,,,,,,,,,,,,,,right,1,0.5513,,,,,,physical,7,7,7 | 7,0,0.05,0.065,neutral,right,0,32,32,69,1,,,,,,,,,,,,,,,,,,,,,,,,,,,,,,,,,,,,,,,,,,,,,
,8824,CBA,31/12/2004,001,2023-12-08_14h29.38.153,OS3_Mult_verification,2022.2.4,Win32,60.35731531,,,,,,,,,,,,,,,,,,,,,,,,,,,,,,,,,,,,,,,,,,,,,,,,,,,,,,,,,,,,,,,,,,,,,,,,,,,,,,,,,,,,,,,,,,,,,,,,,,,,,,,,,,,,left,1,0.5588,,,,,,physical,4,9,4 | 9,5,0.065,0.05,incongruent,left,0,33,33,43,1,,,,,,,,,,,,,,,,,,,,,,,,,,,,,,,,,,,,,,,,,,,,,
,8824,CBA,31/12/2004,001,2023-12-08_14h29.38.153,OS3_Mult_verification,2022.2.4,Win32,60.35731531,,,,,,,,,,,,,,,,,,,,,,,,,,,,,,,,,,,,,,,,,,,,,,,,,,,,,,,,,,,,,,,,,,,,,,,,,,,,,,,,,,,,,,,,,,,,,,,,,,,,,,,,,,,,left,1,0.7431,,,,,,physical,3,4,3 | 4,1,0.065,0.05,incongruent,left,0,34,34,25,1,,,,,,,,,,,,,,,,,,,,,,,,,,,,,,,,,,,,,,,,,,,,,
,8824,CBA,31/12/2004,001,2023-12-08_14h29.38.153,OS3_Mult_verification,2022.2.4,Win32,60.35731531,,,,,,,,,,,,,,,,,,,,,,,,,,,,,,,,,,,,,,,,,,,,,,,,,,,,,,,,,,,,,,,,,,,,,,,,,,,,,,,,,,,,,,,,,,,,,,,,,,,,,,,,,,,,left,1,0.8069,,,,,,physical,1,3,1 | 3,2,0.065,0.05,incongruent,left,0,35,35,32,1,,,,,,,,,,,,,,,,,,,,,,,,,,,,,,,,,,,,,,,,,,,,,
,8824,CBA,31/12/2004,001,2023-12-08_14h29.38.153,OS3_Mult_verification,2022.2.4,Win32,60.35731531,,,,,,,,,,,,,,,,,,,,,,,,,,,,,,,,,,,,,,,,,,,,,,,,,,,,,,,,,,,,,,,,,,,,,,,,,,,,,,,,,,,,,,,,,,,,,,,,,,,,,,,,,,,,right,1,0.5507,,,,,,physical,8,8,8 | 8,0,0.05,0.065,neutral,right,0,36,36,62,1,,,,,,,,,,,,,,,,,,,,,,,,,,,,,,,,,,,,,,,,,,,,,
,8824,CBA,31/12/2004,001,2023-12-08_14h29.38.153,OS3_Mult_verification,2022.2.4,Win32,60.35731531,,,,,,,,,,,,,,,,,,,,,,,,,,,,,,,,,,,,,,,,,,,,,,,,,,,,,,,,,,,,,,,,,,,,,,,,,,,,,,,,,,,,,,,,,,,,,,,,,,,,,,,,,,,,left,1,0.6184,,,,,,physical,8,9,8 | 9,1,0.065,0.05,incongruent,left,0,37,37,27,1,,,,,,,,,,,,,,,,,,,,,,,,,,,,,,,,,,,,,,,,,,,,,
,8824,CBA,31/12/2004,001,2023-12-08_14h29.38.153,OS3_Mult_verification,2022.2.4,Win32,60.35731531,,,,,,,,,,,,,,,,,,,,,,,,,,,,,,,,,,,,,,,,,,,,,,,,,,,,,,,,,,,,,,,,,,,,,,,,,,,,,,,,,,,,,,,,,,,,,,,,,,,,,,,,,,,,right,1,0.5686,,,,,,physical,7,7,7 | 7,0,0.05,0.065,neutral,right,0,38,38,59,1,,,,,,,,,,,,,,,,,,,,,,,,,,,,,,,,,,,,,,,,,,,,,
,8824,CBA,31/12/2004,001,2023-12-08_14h29.38.153,OS3_Mult_verification,2022.2.4,Win32,60.35731531,,,,,,,,,,,,,,,,,,,,,,,,,,,,,,,,,,,,,,,,,,,,,,,,,,,,,,,,,,,,,,,,,,,,,,,,,,,,,,,,,,,,,,,,,,,,,,,,,,,,,,,,,,,,right,1,0.4532,,,,,,physical,3,1,3 | 1,2,0.05,0.065,incongruent,right,0,39,39,36,1,,,,,,,,,,,,,,,,,,,,,,,,,,,,,,,,,,,,,,,,,,,,,
,8824,CBA,31/12/2004,001,2023-12-08_14h29.38.153,OS3_Mult_verification,2022.2.4,Win32,60.35731531,,,,,,,,,,,,,,,,,,,,,,,,,,,,,,,,,,,,,,,,,,,,,,,,,,,,,,,,,,,,,,,,,,,,,,,,,,,,,,,,,,,,,,,,,,,,,,,,,,,,,,,,,,,,left,1,0.5036,,,,,,physical,2,1,2 | 1,1,0.065,0.05,congruent,left,0,40,40,4,1,,,,,,,,,,,,,,,,,,,,,,,,,,,,,,,,,,,,,,,,,,,,,
,8824,CBA,31/12/2004,001,2023-12-08_14h29.38.153,OS3_Mult_verification,2022.2.4,Win32,60.35731531,,,,,,,,,,,,,,,,,,,,,,,,,,,,,,,,,,,,,,,,,,,,,,,,,,,,,,,,,,,,,,,,,,,,,,,,,,,,,,,,,,,,,,,,,,,,,,,,,,,,,,,,,,,,left,1,0.4276,,,,,,physical,1,6,1 | 6,5,0.065,0.05,incongruent,left,0,41,41,40,1,,,,,,,,,,,,,,,,,,,,,,,,,,,,,,,,,,,,,,,,,,,,,
,8824,CBA,31/12/2004,001,2023-12-08_14h29.38.153,OS3_Mult_verification,2022.2.4,Win32,60.35731531,,,,,,,,,,,,,,,,,,,,,,,,,,,,,,,,,,,,,,,,,,,,,,,,,,,,,,,,,,,,,,,,,,,,,,,,,,,,,,,,,,,,,,,,,,,,,,,,,,,,,,,,,,,,right,1,0.5884,,,,,,physical,6,8,6 | 8,2,0.05,0.065,congruent,right,0,42,42,10,1,,,,,,,,,,,,,,,,,,,,,,,,,,,,,,,,,,,,,,,,,,,,,
,8824,CBA,31/12/2004,001,2023-12-08_14h29.38.153,OS3_Mult_verification,2022.2.4,Win32,60.35731531,,,,,,,,,,,,,,,,,,,,,,,,,,,,,,,,,,,,,,,,,,,,,,,,,,,,,,,,,,,,,,,,,,,,,,,,,,,,,,,,,,,,,,,,,,,,,,,,,,,,,,,,,,,,right,1,0.4419,,,,,,physical,9,4,9 | 4,5,0.05,0.065,incongruent,right,0,43,43,47,1,,,,,,,,,,,,,,,,,,,,,,,,,,,,,,,,,,,,,,,,,,,,,
,8824,CBA,31/12/2004,001,2023-12-08_14h29.38.153,OS3_Mult_verification,2022.2.4,Win32,60.35731531,,,,,,,,,,,,,,,,,,,,,,,,,,,,,,,,,,,,,,,,,,,,,,,,,,,,,,,,,,,,,,,,,,,,,,,,,,,,,,,,,,,,,,,,,,,,,,,,,,,,,,,,,,,,left,1,0.4568,,,,,,physical,6,6,6 | 6,0,0.065,0.05,neutral,left,0,44,44,50,1,,,,,,,,,,,,,,,,,,,,,,,,,,,,,,,,,,,,,,,,,,,,,
,8824,CBA,31/12/2004,001,2023-12-08_14h29.38.153,OS3_Mult_verification,2022.2.4,Win32,60.35731531,,,,,,,,,,,,,,,,,,,,,,,,,,,,,,,,,,,,,,,,,,,,,,,,,,,,,,,,,,,,,,,,,,,,,,,,,,,,,,,,,,,,,,,,,,,,,,,,,,,,,,,,,,,,right,1,0.4664,,,,,,physical,4,4,4 | 4,0,0.05,0.065,neutral,right,0,45,45,61,1,,,,,,,,,,,,,,,,,,,,,,,,,,,,,,,,,,,,,,,,,,,,,
,8824,CBA,31/12/2004,001,2023-12-08_14h29.38.153,OS3_Mult_verification,2022.2.4,Win32,60.35731531,,,,,,,,,,,,,,,,,,,,,,,,,,,,,,,,,,,,,,,,,,,,,,,,,,,,,,,,,,,,,,,,,,,,,,,,,,,,,,,,,,,,,,,,,,,,,,,,,,,,,,,,,,,,left,1,0.5178,,,,,,physical,6,6,6 | 6,0,0.065,0.05,neutral,left,0,46,46,68,1,,,,,,,,,,,,,,,,,,,,,,,,,,,,,,,,,,,,,,,,,,,,,
,8824,CBA,31/12/2004,001,2023-12-08_14h29.38.153,OS3_Mult_verification,2022.2.4,Win32,60.35731531,,,,,,,,,,,,,,,,,,,,,,,,,,,,,,,,,,,,,,,,,,,,,,,,,,,,,,,,,,,,,,,,,,,,,,,,,,,,,,,,,,,,,,,,,,,,,,,,,,,,,,,,,,,,left,1,0.5795,,,,,,physical,2,7,2 | 7,5,0.065,0.05,incongruent,left,0,47,47,41,1,,,,,,,,,,,,,,,,,,,,,,,,,,,,,,,,,,,,,,,,,,,,,
,8824,CBA,31/12/2004,001,2023-12-08_14h29.38.153,OS3_Mult_verification,2022.2.4,Win32,60.35731531,,,,,,,,,,,,,,,,,,,,,,,,,,,,,,,,,,,,,,,,,,,,,,,,,,,,,,,,,,,,,,,,,,,,,,,,,,,,,,,,,,,,,,,,,,,,,,,,,,,,,,,,,,,,right,1,0.5338,,,,,,physical,4,3,4 | 3,1,0.05,0.065,incongruent,right,0,48,48,29,1,,,,,,,,,,,,,,,,,,,,,,,,,,,,,,,,,,,,,,,,,,,,,
,8824,CBA,31/12/2004,001,2023-12-08_14h29.38.153,OS3_Mult_verification,2022.2.4,Win32,60.35731531,,,,,,,,,,,,,,,,,,,,,,,,,,,,,,,,,,,,,,,,,,,,,,,,,,,,,,,,,,,,,,,,,,,,,,,,,,,,,,,,,,,,,,,,,,,,,,,,,,,,,,,,,,,,right,1,0.5756,,,,,,physical,6,1,6 | 1,5,0.05,0.065,incongruent,right,0,49,49,44,1,,,,,,,,,,,,,,,,,,,,,,,,,,,,,,,,,,,,,,,,,,,,,
,8824,CBA,31/12/2004,001,2023-12-08_14h29.38.153,OS3_Mult_verification,2022.2.4,Win32,60.35731531,,,,,,,,,,,,,,,,,,,,,,,,,,,,,,,,,,,,,,,,,,,,,,,,,,,,,,,,,,,,,,,,,,,,,,,,,,,,,,,,,,,,,,,,,,,,,,,,,,,,,,,,,,,,left,1,0.4419,,,,,,physical,4,3,4 | 3,1,0.065,0.05,congruent,left,0,50,50,5,1,,,,,,,,,,,,,,,,,,,,,,,,,,,,,,,,,,,,,,,,,,,,,
,8824,CBA,31/12/2004,001,2023-12-08_14h29.38.153,OS3_Mult_verification,2022.2.4,Win32,60.35731531,,,,,,,,,,,,,,,,,,,,,,,,,,,,,,,,,,,,,,,,,,,,,,,,,,,,,,,,,,,,,,,,,,,,,,,,,,,,,,,,,,,,,,,,,,,,,,,,,,,,,,,,,,,,left,1,0.5181,,,,,,physical,3,3,3 | 3,0,0.065,0.05,neutral,left,0,51,51,49,1,,,,,,,,,,,,,,,,,,,,,,,,,,,,,,,,,,,,,,,,,,,,,
,8824,CBA,31/12/2004,001,2023-12-08_14h29.38.153,OS3_Mult_verification,2022.2.4,Win32,60.35731531,,,,,,,,,,,,,,,,,,,,,,,,,,,,,,,,,,,,,,,,,,,,,,,,,,,,,,,,,,,,,,,,,,,,,,,,,,,,,,,,,,,,,,,,,,,,,,,,,,,,,,,,,,,,right,1,0.5236,,,,,,physical,8,3,8 | 3,5,0.05,0.065,incongruent,right,0,52,52,46,1,,,,,,,,,,,,,,,,,,,,,,,,,,,,,,,,,,,,,,,,,,,,,
,8824,CBA,31/12/2004,001,2023-12-08_14h29.38.153,OS3_Mult_verification,2022.2.4,Win32,60.35731531,,,,,,,,,,,,,,,,,,,,,,,,,,,,,,,,,,,,,,,,,,,,,,,,,,,,,,,,,,,,,,,,,,,,,,,,,,,,,,,,,,,,,,,,,,,,,,,,,,,,,,,,,,,,right,1,0.4685,,,,,,physical,7,6,7 | 6,1,0.05,0.065,incongruent,right,0,53,53,30,1,,,,,,,,,,,,,,,,,,,,,,,,,,,,,,,,,,,,,,,,,,,,,
,8824,CBA,31/12/2004,001,2023-12-08_14h29.38.153,OS3_Mult_verification,2022.2.4,Win32,60.35731531,,,,,,,,,,,,,,,,,,,,,,,,,,,,,,,,,,,,,,,,,,,,,,,,,,,,,,,,,,,,,,,,,,,,,,,,,,,,,,,,,,,,,,,,,,,,,,,,,,,,,,,,,,,,left,1,0.5165,,,,,,physical,3,8,3 | 8,5,0.065,0.05,incongruent,left,0,54,54,42,1,,,,,,,,,,,,,,,,,,,,,,,,,,,,,,,,,,,,,,,,,,,,,
,8824,CBA,31/12/2004,001,2023-12-08_14h29.38.153,OS3_Mult_verification,2022.2.4,Win32,60.35731531,,,,,,,,,,,,,,,,,,,,,,,,,,,,,,,,,,,,,,,,,,,,,,,,,,,,,,,,,,,,,,,,,,,,,,,,,,,,,,,,,,,,,,,,,,,,,,,,,,,,,,,,,,,,right,1,0.4341,,,,,,physical,3,8,3 | 8,5,0.05,0.065,congruent,right,0,55,55,18,1,,,,,,,,,,,,,,,,,,,,,,,,,,,,,,,,,,,,,,,,,,,,,
,8824,CBA,31/12/2004,001,2023-12-08_14h29.38.153,OS3_Mult_verification,2022.2.4,Win32,60.35731531,,,,,,,,,,,,,,,,,,,,,,,,,,,,,,,,,,,,,,,,,,,,,,,,,,,,,,,,,,,,,,,,,,,,,,,,,,,,,,,,,,,,,,,,,,,,,,,,,,,,,,,,,,,,right,1,0.6224,,,,,,physical,8,6,8 | 6,2,0.05,0.065,incongruent,right,0,56,56,38,1,,,,,,,,,,,,,,,,,,,,,,,,,,,,,,,,,,,,,,,,,,,,,
,8824,CBA,31/12/2004,001,2023-12-08_14h29.38.153,OS3_Mult_verification,2022.2.4,Win32,60.35731531,,,,,,,,,,,,,,,,,,,,,,,,,,,,,,,,,,,,,,,,,,,,,,,,,,,,,,,,,,,,,,,,,,,,,,,,,,,,,,,,,,,,,,,,,,,,,,,,,,,,,,,,,,,,right,1,0.4571,,,,,,physical,2,2,2 | 2,0,0.05,0.065,neutral,right,0,57,57,57,1,,,,,,,,,,,,,,,,,,,,,,,,,,,,,,,,,,,,,,,,,,,,,
,8824,CBA,31/12/2004,001,2023-12-08_14h29.38.153,OS3_Mult_verification,2022.2.4,Win32,60.35731531,,,,,,,,,,,,,,,,,,,,,,,,,,,,,,,,,,,,,,,,,,,,,,,,,,,,,,,,,,,,,,,,,,,,,,,,,,,,,,,,,,,,,,,,,,,,,,,,,,,,,,,,,,,,right,1,0.6009,,,,,,physical,1,2,1 | 2,1,0.05,0.065,congruent,right,0,58,58,0,1,,,,,,,,,,,,,,,,,,,,,,,,,,,,,,,,,,,,,,,,,,,,,
,8824,CBA,31/12/2004,001,2023-12-08_14h29.38.153,OS3_Mult_verification,2022.2.4,Win32,60.35731531,,,,,,,,,,,,,,,,,,,,,,,,,,,,,,,,,,,,,,,,,,,,,,,,,,,,,,,,,,,,,,,,,,,,,,,,,,,,,,,,,,,,,,,,,,,,,,,,,,,,,,,,,,,,left,1,0.703,,,,,,physical,6,7,6 | 7,1,0.065,0.05,incongruent,left,0,59,59,26,1,,,,,,,,,,,,,,,,,,,,,,,,,,,,,,,,,,,,,,,,,,,,,
,8824,CBA,31/12/2004,001,2023-12-08_14h29.38.153,OS3_Mult_verification,2022.2.4,Win32,60.35731531,,,,,,,,,,,,,,,,,,,,,,,,,,,,,,,,,,,,,,,,,,,,,,,,,,,,,,,,,,,,,,,,,,,,,,,,,,,,,,,,,,,,,,,,,,,,,,,,,,,,,,,,,,,,right,1,0.6022,,,,,,physical,7,9,7 | 9,2,0.05,0.065,congruent,right,0,60,60,11,1,,,,,,,,,,,,,,,,,,,,,,,,,,,,,,,,,,,,,,,,,,,,,
,8824,CBA,31/12/2004,001,2023-12-08_14h29.38.153,OS3_Mult_verification,2022.2.4,Win32,60.35731531,,,,,,,,,,,,,,,,,,,,,,,,,,,,,,,,,,,,,,,,,,,,,,,,,,,,,,,,,,,,,,,,,,,,,,,,,,,,,,,,,,,,,,,,,,,,,,,,,,,,,,,,,,,,right,1,0.4852,,,,,,physical,4,9,4 | 9,5,0.05,0.065,congruent,right,0,61,61,19,1,,,,,,,,,,,,,,,,,,,,,,,,,,,,,,,,,,,,,,,,,,,,,
,8824,CBA,31/12/2004,001,2023-12-08_14h29.38.153,OS3_Mult_verification,2022.2.4,Win32,60.35731531,,,,,,,,,,,,,,,,,,,,,,,,,,,,,,,,,,,,,,,,,,,,,,,,,,,,,,,,,,,,,,,,,,,,,,,,,,,,,,,,,,,,,,,,,,,,,,,,,,,,,,,,,,,,right,1,0.4991,,,,,,physical,8,9,8 | 9,1,0.05,0.065,congruent,right,0,62,62,3,1,,,,,,,,,,,,,,,,,,,,,,,,,,,,,,,,,,,,,,,,,,,,,
,8824,CBA,31/12/2004,001,2023-12-08_14h29.38.153,OS3_Mult_verification,2022.2.4,Win32,60.35731531,,,,,,,,,,,,,,,,,,,,,,,,,,,,,,,,,,,,,,,,,,,,,,,,,,,,,,,,,,,,,,,,,,,,,,,,,,,,,,,,,,,,,,,,,,,,,,,,,,,,,,,,,,,,right,1,0.4758,,,,,,physical,2,7,2 | 7,5,0.05,0.065,congruent,right,0,63,63,17,1,,,,,,,,,,,,,,,,,,,,,,,,,,,,,,,,,,,,,,,,,,,,,
