windowSize,participant,group,DOB (DD/MM/YEAR),session,date,expName,psychopyVersion,OS,frameRate,typing_instr_resp.keys,typing_instr_resp.rt,typing_response,typing_rt,typing_score,typingSpeed_input_resp.keys,typingSpeed_input_resp.rt,typing_speed_trials.thisRepN,typing_speed_trials.thisTrialN,typing_speed_trials.thisN,typing_speed_trials.thisIndex,typing_speed_trials.ran,typing_speed_stim,typing_report_resp.keys,typing_report_resp.rt,vpt_trial_resp1.keys,vpt_trial_resp1.rt,typedResponse,fluency_rt,fluency_score,fluencyInputResp.keys,fluencyInputResp.rt,fluencyPracLoop.thisRepN,fluencyPracLoop.thisTrialN,fluencyPracLoop.thisN,fluencyPracLoop.thisIndex,fluencyPracLoop.ran,problem,answers,fluencyLoop.thisRepN,fluencyLoop.thisTrialN,fluencyLoop.thisN,fluencyLoop.thisIndex,fluencyLoop.ran,vptCorrect,vpt_rt,respMouse.x,respMouse.y,respMouse.leftButton,respMouse.midButton,respMouse.rightButton,vptPracticeLoop.thisRepN,vptPracticeLoop.thisTrialN,vptPracticeLoop.thisN,vptPracticeLoop.thisIndex,vptPracticeLoop.ran,trialType,tiles,rows,cols,vptTrialLoop.thisRepN,vptTrialLoop.thisTrialN,vptTrialLoop.thisN,vptTrialLoop.thisIndex,vptTrialLoop.ran,noOfBlocks,TASK_B.thisRepN,TASK_B.thisTrialN,TASK_B.thisN,TASK_B.thisIndex,TASK_B.ran,controlTaskOrder.thisRepN,controlTaskOrder.thisTrialN,controlTaskOrder.thisN,controlTaskOrder.thisIndex,controlTaskOrder.ran,nRepsTask1,nRepsTask2,nRepsTask3,sampleAudio_resp.keys,sampleAudio_resp.rt,subjResponse,audio_rt,DS_score,inputResp.keys,inputResp.rt,audioPracticeLoop.thisRepN,audioPracticeLoop.thisTrialN,audioPracticeLoop.thisN,audioPracticeLoop.thisIndex,audioPracticeLoop.ran,digitSpan,digits_audioStim,soundsFile,typeDS,audioTrials_Loop.thisRepN,audioTrials_Loop.thisTrialN,audioTrials_Loop.thisN,audioTrials_Loop.thisIndex,audioTrials_Loop.ran,audioBlocks_loop.thisRepN,audioBlocks_loop.thisTrialN,audioBlocks_loop.thisN,audioBlocks_loop.thisIndex,audioBlocks_loop.ran,ConditionFile,digitSpanTask_loop.thisRepN,digitSpanTask_loop.thisTrialN,digitSpanTask_loop.thisN,digitSpanTask_loop.thisIndex,digitSpanTask_loop.ran,dsFile,TASK_C.thisRepN,TASK_C.thisTrialN,TASK_C.thisN,TASK_C.thisIndex,TASK_C.ran,stroopResp.keys,stroopResp.corr,stroopResp.rt,stroopPracLoop.thisRepN,stroopPracLoop.thisTrialN,stroopPracLoop.thisN,stroopPracLoop.thisIndex,stroopPracLoop.ran,stroopCond,leftNo,rightNo,displayProblem,numDistance,leftNo_size,rightNo_size,Dims,keyAnswer,stroopLoop.thisRepN,stroopLoop.thisTrialN,stroopLoop.thisN,stroopLoop.thisIndex,stroopLoop.ran,stroopBlocks.thisRepN,stroopBlocks.thisTrialN,stroopBlocks.thisN,stroopBlocks.thisIndex,stroopBlocks.ran,stroop_condition,stroop_pracFile,ActionInst,instrImage,TASK_A.thisRepN,TASK_A.thisTrialN,TASK_A.thisN,TASK_A.thisIndex,TASK_A.ran,veriStim_resp.keys,veriStim_resp.corr,veriStim_resp.rt,verificationPracLoop.thisRepN,verificationPracLoop.thisTrialN,verificationPracLoop.thisN,verificationPracLoop.thisIndex,verificationPracLoop.ran,mult_problem,mult_answer,mult_type,error_distance,interferenceScore,problemType,interferenceLevel,problemSize,img_leftButton,img_rightButton,veriLoop.thisRepN,veriLoop.thisTrialN,veriLoop.thisN,veriLoop.thisIndex,veriLoop.ran,veriBlock.thisRepN,veriBlock.thisTrialN,veriBlock.thisN,veriBlock.thisIndex,veriBlock.ran,verificationFiles,end_resp.keys,end_resp.rt
"[1440,796]",191352558881,BCA,24/04/2001,001,2023-04-17_14h58.07.516,OS3_Mult_verification,2022.2.4,MacIntel,60.0024001,,,,,,,,,,,,,,,,,,,,,,,,,,,,,,,,,,,,,,,,,,,,,,,,,,,,,,,,,,,,,,,,,,,,,,,,,,,,,,,,,,,,,,,,,,,,,,,,,,,,,,,,,,,,,,,,,,,,,,,,,,,,,,,,,,,,,,,,,,,,,,,,,,,,,,,,,,,,,,,,,,,,,,,,,,,,,,
,191352558881,BCA,24/04/2001,001,2023-04-17_14h58.07.516,OS3_Mult_verification,2022.2.4,MacIntel,60.0024001,,,,,,,,,,,,,,,,,,,,,,,,,,,,,,,,,,,,,,,,,,,,,,,,,,,,,,,,,,,,,,,,,,,,,,,,,,,,,,,,,,,,,,,,,,,,,,,,,,,,,,,,,,,,,,,,,,,,,,,,,,,,,,,,,,,,,,,,,,,,,,,,,,,,,,,,,,,,,,,,,,,,,,,,,,,,,,
,191352558881,BCA,24/04/2001,001,2023-04-17_14h58.07.516,OS3_Mult_verification,2022.2.4,MacIntel,60.0024001,space,1.254,,,,,,,,,,,,,,,,,,,,,,,,,,,,,,,,,,,,,,,,,,,,,,,,,,,,,,,,,,,,,,,,,,,,,,,,,,,,,,,,,,,,,,,,,,,,,,,,,,,,,,,,,,,,,,,,,,,,,,,,,,,,,,,,,,,,,,,,,,,,,,,,,,,,,,,,,,,,,,,,,,,,,,,,,,,,
,191352558881,BCA,24/04/2001,001,2023-04-17_14h58.07.516,OS3_Mult_verification,2022.2.4,MacIntel,60.0024001,,,64,1.635,1,"[""6"",""4"",""return""]","[1.0952999999821031,1.4802999999821225,1.6011999999880686]",0,0,0,28,1,64,,,,,,,,,,,,,,,,,,,,,,,,,,,,,,,,,,,,,,,,,,,,,,,,,,,,,,,,,,,,,,,,,,,,,,,,,,,,,,,,,,,,,,,,,,,,,,,,,,,,,,,,,,,,,,,,,,,,,,,,,,,,,,,,,,,,,,,,,,,,,,,,,,,,,,,,,,,,,,,,,
,191352558881,BCA,24/04/2001,001,2023-04-17_14h58.07.516,OS3_Mult_verification,2022.2.4,MacIntel,60.0024001,,,21,0.8663,1,"[""2"",""1"",""return""]","[0.5674000000059607,0.6841000000238466,0.8337000000178705]",0,1,1,11,1,21,,,,,,,,,,,,,,,,,,,,,,,,,,,,,,,,,,,,,,,,,,,,,,,,,,,,,,,,,,,,,,,,,,,,,,,,,,,,,,,,,,,,,,,,,,,,,,,,,,,,,,,,,,,,,,,,,,,,,,,,,,,,,,,,,,,,,,,,,,,,,,,,,,,,,,,,,,,,,,,,,
,191352558881,BCA,24/04/2001,001,2023-04-17_14h58.07.516,OS3_Mult_verification,2022.2.4,MacIntel,60.0024001,,,9,0.8667,1,"[""9"",""return""]","[0.6254000000059534,0.8312000000178728]",0,2,2,3,1,9,,,,,,,,,,,,,,,,,,,,,,,,,,,,,,,,,,,,,,,,,,,,,,,,,,,,,,,,,,,,,,,,,,,,,,,,,,,,,,,,,,,,,,,,,,,,,,,,,,,,,,,,,,,,,,,,,,,,,,,,,,,,,,,,,,,,,,,,,,,,,,,,,,,,,,,,,,,,,,,,,
,191352558881,BCA,24/04/2001,001,2023-04-17_14h58.07.516,OS3_Mult_verification,2022.2.4,MacIntel,60.0024001,,,15,0.9496,1,"[""1"",""5"",""return""]","[0.6269000000059464,0.7314999999999827,0.9127000000178782]",0,3,3,7,1,15,,,,,,,,,,,,,,,,,,,,,,,,,,,,,,,,,,,,,,,,,,,,,,,,,,,,,,,,,,,,,,,,,,,,,,,,,,,,,,,,,,,,,,,,,,,,,,,,,,,,,,,,,,,,,,,,,,,,,,,,,,,,,,,,,,,,,,,,,,,,,,,,,,,,,,,,,,,,,,,,,
,191352558881,BCA,24/04/2001,001,2023-04-17_14h58.07.516,OS3_Mult_verification,2022.2.4,MacIntel,60.0024001,,,40,1.1992,1,"[""4"",""0"",""return""]","[0.7644999999999982,0.9009000000059473,1.16429999998212]",0,4,4,20,1,40,,,,,,,,,,,,,,,,,,,,,,,,,,,,,,,,,,,,,,,,,,,,,,,,,,,,,,,,,,,,,,,,,,,,,,,,,,,,,,,,,,,,,,,,,,,,,,,,,,,,,,,,,,,,,,,,,,,,,,,,,,,,,,,,,,,,,,,,,,,,,,,,,,,,,,,,,,,,,,,,,
,191352558881,BCA,24/04/2001,001,2023-04-17_14h58.07.516,OS3_Mult_verification,2022.2.4,MacIntel,60.0024001,,,25,0.9499,1,"[""2"",""5"",""return""]","[0.7043000000119264,0.8048000000119373,0.9150999999940552]",0,5,5,13,1,25,,,,,,,,,,,,,,,,,,,,,,,,,,,,,,,,,,,,,,,,,,,,,,,,,,,,,,,,,,,,,,,,,,,,,,,,,,,,,,,,,,,,,,,,,,,,,,,,,,,,,,,,,,,,,,,,,,,,,,,,,,,,,,,,,,,,,,,,,,,,,,,,,,,,,,,,,,,,,,,,,
,191352558881,BCA,24/04/2001,001,2023-04-17_14h58.07.516,OS3_Mult_verification,2022.2.4,MacIntel,60.0024001,,,36,1.2162,1,"[""3"",""6"",""return""]","[0.8515999999940504,0.9475000000000193,1.1811999999880811]",0,6,6,19,1,36,,,,,,,,,,,,,,,,,,,,,,,,,,,,,,,,,,,,,,,,,,,,,,,,,,,,,,,,,,,,,,,,,,,,,,,,,,,,,,,,,,,,,,,,,,,,,,,,,,,,,,,,,,,,,,,,,,,,,,,,,,,,,,,,,,,,,,,,,,,,,,,,,,,,,,,,,,,,,,,,,
,191352558881,BCA,24/04/2001,001,2023-04-17_14h58.07.516,OS3_Mult_verification,2022.2.4,MacIntel,60.0024001,,,42,0.9323,1,"[""4"",""2"",""return""]","[0.6848000000119328,0.7642000000178939,0.8985000000000127]",0,7,7,21,1,42,,,,,,,,,,,,,,,,,,,,,,,,,,,,,,,,,,,,,,,,,,,,,,,,,,,,,,,,,,,,,,,,,,,,,,,,,,,,,,,,,,,,,,,,,,,,,,,,,,,,,,,,,,,,,,,,,,,,,,,,,,,,,,,,,,,,,,,,,,,,,,,,,,,,,,,,,,,,,,,,,
,191352558881,BCA,24/04/2001,001,2023-04-17_14h58.07.516,OS3_Mult_verification,2022.2.4,MacIntel,60.0024001,,,72,1.0001,1,"[""7"",""2"",""return""]","[0.6647999999821081,0.8031999999880668,0.9639999999999986]",0,8,8,29,1,72,,,,,,,,,,,,,,,,,,,,,,,,,,,,,,,,,,,,,,,,,,,,,,,,,,,,,,,,,,,,,,,,,,,,,,,,,,,,,,,,,,,,,,,,,,,,,,,,,,,,,,,,,,,,,,,,,,,,,,,,,,,,,,,,,,,,,,,,,,,,,,,,,,,,,,,,,,,,,,,,,
,191352558881,BCA,24/04/2001,001,2023-04-17_14h58.07.516,OS3_Mult_verification,2022.2.4,MacIntel,60.0024001,,,14,0.9338,1,"[""1"",""4"",""return""]","[0.5543000000119207,0.6727000000178691,0.9045999999940193]",0,9,9,6,1,14,,,,,,,,,,,,,,,,,,,,,,,,,,,,,,,,,,,,,,,,,,,,,,,,,,,,,,,,,,,,,,,,,,,,,,,,,,,,,,,,,,,,,,,,,,,,,,,,,,,,,,,,,,,,,,,,,,,,,,,,,,,,,,,,,,,,,,,,,,,,,,,,,,,,,,,,,,,,,,,,,
,191352558881,BCA,24/04/2001,001,2023-04-17_14h58.07.516,OS3_Mult_verification,2022.2.4,MacIntel,60.0024001,,,30,1.1831,1,"[""3"",""0"",""return""]","[0.8647999999820968,0.9315999999940345,1.1434999999999889]",0,10,10,16,1,30,,,,,,,,,,,,,,,,,,,,,,,,,,,,,,,,,,,,,,,,,,,,,,,,,,,,,,,,,,,,,,,,,,,,,,,,,,,,,,,,,,,,,,,,,,,,,,,,,,,,,,,,,,,,,,,,,,,,,,,,,,,,,,,,,,,,,,,,,,,,,,,,,,,,,,,,,,,,,,,,,
,191352558881,BCA,24/04/2001,001,2023-04-17_14h58.07.516,OS3_Mult_verification,2022.2.4,MacIntel,60.0024001,,,48,1.5011,1,"[""4"",""7"",""backspace"",""8"",""return""]","[0.7488999999761745,0.8326999999880798,1.116500000000002,1.2975999999940484,1.4686999999881039]",0,11,11,23,1,48,,,,,,,,,,,,,,,,,,,,,,,,,,,,,,,,,,,,,,,,,,,,,,,,,,,,,,,,,,,,,,,,,,,,,,,,,,,,,,,,,,,,,,,,,,,,,,,,,,,,,,,,,,,,,,,,,,,,,,,,,,,,,,,,,,,,,,,,,,,,,,,,,,,,,,,,,,,,,,,,,
,191352558881,BCA,24/04/2001,001,2023-04-17_14h58.07.516,OS3_Mult_verification,2022.2.4,MacIntel,60.0024001,,,12,0.7993,1,"[""1"",""2"",""return""]","[0.5841999999880727,0.6630999999940173,0.7636999999880629]",0,12,12,5,1,12,,,,,,,,,,,,,,,,,,,,,,,,,,,,,,,,,,,,,,,,,,,,,,,,,,,,,,,,,,,,,,,,,,,,,,,,,,,,,,,,,,,,,,,,,,,,,,,,,,,,,,,,,,,,,,,,,,,,,,,,,,,,,,,,,,,,,,,,,,,,,,,,,,,,,,,,,,,,,,,,,
,191352558881,BCA,24/04/2001,001,2023-04-17_14h58.07.516,OS3_Mult_verification,2022.2.4,MacIntel,60.0024001,,,27,0.9512,1,"[""2"",""7"",""return""]","[0.5849000000059732,0.7160000000000082,0.9140000000000157]",0,13,13,14,1,27,,,,,,,,,,,,,,,,,,,,,,,,,,,,,,,,,,,,,,,,,,,,,,,,,,,,,,,,,,,,,,,,,,,,,,,,,,,,,,,,,,,,,,,,,,,,,,,,,,,,,,,,,,,,,,,,,,,,,,,,,,,,,,,,,,,,,,,,,,,,,,,,,,,,,,,,,,,,,,,,,
,191352558881,BCA,24/04/2001,001,2023-04-17_14h58.07.516,OS3_Mult_verification,2022.2.4,MacIntel,60.0024001,,,20,0.8843,1,"[""2"",""0"",""return""]","[0.5700999999940564,0.6498000000119362,0.8506999999880804]",0,14,14,10,1,20,,,,,,,,,,,,,,,,,,,,,,,,,,,,,,,,,,,,,,,,,,,,,,,,,,,,,,,,,,,,,,,,,,,,,,,,,,,,,,,,,,,,,,,,,,,,,,,,,,,,,,,,,,,,,,,,,,,,,,,,,,,,,,,,,,,,,,,,,,,,,,,,,,,,,,,,,,,,,,,,,
,191352558881,BCA,24/04/2001,001,2023-04-17_14h58.07.516,OS3_Mult_verification,2022.2.4,MacIntel,60.0024001,,,18,0.9331,1,"[""1"",""8"",""return""]","[0.5672000000178627,0.7328000000119061,0.9009000000059473]",0,15,15,9,1,18,,,,,,,,,,,,,,,,,,,,,,,,,,,,,,,,,,,,,,,,,,,,,,,,,,,,,,,,,,,,,,,,,,,,,,,,,,,,,,,,,,,,,,,,,,,,,,,,,,,,,,,,,,,,,,,,,,,,,,,,,,,,,,,,,,,,,,,,,,,,,,,,,,,,,,,,,,,,,,,,,
,191352558881,BCA,24/04/2001,001,2023-04-17_14h58.07.516,OS3_Mult_verification,2022.2.4,MacIntel,60.0024001,,,4,0.7513,1,"[""4"",""return""]","[0.5520999999940557,0.7160000000000082]",0,16,16,0,1,4,,,,,,,,,,,,,,,,,,,,,,,,,,,,,,,,,,,,,,,,,,,,,,,,,,,,,,,,,,,,,,,,,,,,,,,,,,,,,,,,,,,,,,,,,,,,,,,,,,,,,,,,,,,,,,,,,,,,,,,,,,,,,,,,,,,,,,,,,,,,,,,,,,,,,,,,,,,,,,,,,
,191352558881,BCA,24/04/2001,001,2023-04-17_14h58.07.516,OS3_Mult_verification,2022.2.4,MacIntel,60.0024001,,,32,0.916,1,"[""3"",""2"",""return""]","[0.6014000000059809,0.6990000000000123,0.8814000000059821]",0,17,17,17,1,32,,,,,,,,,,,,,,,,,,,,,,,,,,,,,,,,,,,,,,,,,,,,,,,,,,,,,,,,,,,,,,,,,,,,,,,,,,,,,,,,,,,,,,,,,,,,,,,,,,,,,,,,,,,,,,,,,,,,,,,,,,,,,,,,,,,,,,,,,,,,,,,,,,,,,,,,,,,,,,,,,
,191352558881,BCA,24/04/2001,001,2023-04-17_14h58.07.516,OS3_Mult_verification,2022.2.4,MacIntel,60.0024001,,,24,0.868,1,"[""2"",""4"",""return""]","[0.6002000000178782,0.6987000000178796,0.8276000000238639]",0,18,18,12,1,24,,,,,,,,,,,,,,,,,,,,,,,,,,,,,,,,,,,,,,,,,,,,,,,,,,,,,,,,,,,,,,,,,,,,,,,,,,,,,,,,,,,,,,,,,,,,,,,,,,,,,,,,,,,,,,,,,,,,,,,,,,,,,,,,,,,,,,,,,,,,,,,,,,,,,,,,,,,,,,,,,
,191352558881,BCA,24/04/2001,001,2023-04-17_14h58.07.516,OS3_Mult_verification,2022.2.4,MacIntel,60.0024001,,,8,0.7847,1,"[""8"",""return""]","[0.5613999999761461,0.7513999999761438]",0,19,19,2,1,8,,,,,,,,,,,,,,,,,,,,,,,,,,,,,,,,,,,,,,,,,,,,,,,,,,,,,,,,,,,,,,,,,,,,,,,,,,,,,,,,,,,,,,,,,,,,,,,,,,,,,,,,,,,,,,,,,,,,,,,,,,,,,,,,,,,,,,,,,,,,,,,,,,,,,,,,,,,,,,,,,
,191352558881,BCA,24/04/2001,001,2023-04-17_14h58.07.516,OS3_Mult_verification,2022.2.4,MacIntel,60.0024001,,,28,0.8683,1,"[""2"",""8"",""return""]","[0.5844999999999914,0.6494999999999891,0.8324000000059755]",0,20,20,15,1,28,,,,,,,,,,,,,,,,,,,,,,,,,,,,,,,,,,,,,,,,,,,,,,,,,,,,,,,,,,,,,,,,,,,,,,,,,,,,,,,,,,,,,,,,,,,,,,,,,,,,,,,,,,,,,,,,,,,,,,,,,,,,,,,,,,,,,,,,,,,,,,,,,,,,,,,,,,,,,,,,,
,191352558881,BCA,24/04/2001,001,2023-04-17_14h58.07.516,OS3_Mult_verification,2022.2.4,MacIntel,60.0024001,,,54,0.8987,1,"[""5"",""4"",""return""]","[0.6656000000238578,0.7306000000238555,0.8657000000178812]",0,21,21,25,1,54,,,,,,,,,,,,,,,,,,,,,,,,,,,,,,,,,,,,,,,,,,,,,,,,,,,,,,,,,,,,,,,,,,,,,,,,,,,,,,,,,,,,,,,,,,,,,,,,,,,,,,,,,,,,,,,,,,,,,,,,,,,,,,,,,,,,,,,,,,,,,,,,,,,,,,,,,,,,,,,,,
,191352558881,BCA,24/04/2001,001,2023-04-17_14h58.07.516,OS3_Mult_verification,2022.2.4,MacIntel,60.0024001,,,63,1.4996,1,"[""6"",""3"",""return""]","[0.8982999999821004,1.2811999999880754,1.4662999999821125]",0,22,22,27,1,63,,,,,,,,,,,,,,,,,,,,,,,,,,,,,,,,,,,,,,,,,,,,,,,,,,,,,,,,,,,,,,,,,,,,,,,,,,,,,,,,,,,,,,,,,,,,,,,,,,,,,,,,,,,,,,,,,,,,,,,,,,,,,,,,,,,,,,,,,,,,,,,,,,,,,,,,,,,,,,,,,
,191352558881,BCA,24/04/2001,001,2023-04-17_14h58.07.516,OS3_Mult_verification,2022.2.4,MacIntel,60.0024001,,,35,1.1516,1,"[""3"",""5"",""return""]","[0.9162000000178807,0.9987000000178909,1.1144000000059577]",0,23,23,18,1,35,,,,,,,,,,,,,,,,,,,,,,,,,,,,,,,,,,,,,,,,,,,,,,,,,,,,,,,,,,,,,,,,,,,,,,,,,,,,,,,,,,,,,,,,,,,,,,,,,,,,,,,,,,,,,,,,,,,,,,,,,,,,,,,,,,,,,,,,,,,,,,,,,,,,,,,,,,,,,,,,,
,191352558881,BCA,24/04/2001,001,2023-04-17_14h58.07.516,OS3_Mult_verification,2022.2.4,MacIntel,60.0024001,,,6,1.101,1,"[""6"",""return""]","[0.9829000000059409,1.0663000000119212]",0,24,24,1,1,6,,,,,,,,,,,,,,,,,,,,,,,,,,,,,,,,,,,,,,,,,,,,,,,,,,,,,,,,,,,,,,,,,,,,,,,,,,,,,,,,,,,,,,,,,,,,,,,,,,,,,,,,,,,,,,,,,,,,,,,,,,,,,,,,,,,,,,,,,,,,,,,,,,,,,,,,,,,,,,,,,
,191352558881,BCA,24/04/2001,001,2023-04-17_14h58.07.516,OS3_Mult_verification,2022.2.4,MacIntel,60.0024001,,,56,1.4154,1,"[""5"",""6"",""return""]","[1.1995000000000005,1.2983000000119205,1.3814999999999884]",0,25,25,26,1,56,,,,,,,,,,,,,,,,,,,,,,,,,,,,,,,,,,,,,,,,,,,,,,,,,,,,,,,,,,,,,,,,,,,,,,,,,,,,,,,,,,,,,,,,,,,,,,,,,,,,,,,,,,,,,,,,,,,,,,,,,,,,,,,,,,,,,,,,,,,,,,,,,,,,,,,,,,,,,,,,,
,191352558881,BCA,24/04/2001,001,2023-04-17_14h58.07.516,OS3_Mult_verification,2022.2.4,MacIntel,60.0024001,,,16,1.2836,1,"[""1"",""6"",""return""]","[0.9670999999940193,1.0188000000119075,1.2485999999940418]",0,26,26,8,1,16,,,,,,,,,,,,,,,,,,,,,,,,,,,,,,,,,,,,,,,,,,,,,,,,,,,,,,,,,,,,,,,,,,,,,,,,,,,,,,,,,,,,,,,,,,,,,,,,,,,,,,,,,,,,,,,,,,,,,,,,,,,,,,,,,,,,,,,,,,,,,,,,,,,,,,,,,,,,,,,,,
,191352558881,BCA,24/04/2001,001,2023-04-17_14h58.07.516,OS3_Mult_verification,2022.2.4,MacIntel,60.0024001,,,81,1.0015,1,"[""8"",""1"",""return""]","[0.7364000000059718,0.8315000000000055,0.9649000000059686]",0,27,27,30,1,81,,,,,,,,,,,,,,,,,,,,,,,,,,,,,,,,,,,,,,,,,,,,,,,,,,,,,,,,,,,,,,,,,,,,,,,,,,,,,,,,,,,,,,,,,,,,,,,,,,,,,,,,,,,,,,,,,,,,,,,,,,,,,,,,,,,,,,,,,,,,,,,,,,,,,,,,,,,,,,,,,
,191352558881,BCA,24/04/2001,001,2023-04-17_14h58.07.516,OS3_Mult_verification,2022.2.4,MacIntel,60.0024001,,,49,1.5163,1,"[""4"",""9"",""return""]","[0.98690000000596,1.132200000017889,1.4780999999940434]",0,28,28,24,1,49,,,,,,,,,,,,,,,,,,,,,,,,,,,,,,,,,,,,,,,,,,,,,,,,,,,,,,,,,,,,,,,,,,,,,,,,,,,,,,,,,,,,,,,,,,,,,,,,,,,,,,,,,,,,,,,,,,,,,,,,,,,,,,,,,,,,,,,,,,,,,,,,,,,,,,,,,,,,,,,,,
,191352558881,BCA,24/04/2001,001,2023-04-17_14h58.07.516,OS3_Mult_verification,2022.2.4,MacIntel,60.0024001,,,45,1.1005,1,"[""4"",""5"",""return""]","[0.8494999999999777,0.9132000000178664,1.0650999999940325]",0,29,29,22,1,45,,,,,,,,,,,,,,,,,,,,,,,,,,,,,,,,,,,,,,,,,,,,,,,,,,,,,,,,,,,,,,,,,,,,,,,,,,,,,,,,,,,,,,,,,,,,,,,,,,,,,,,,,,,,,,,,,,,,,,,,,,,,,,,,,,,,,,,,,,,,,,,,,,,,,,,,,,,,,,,,,
,191352558881,BCA,24/04/2001,001,2023-04-17_14h58.07.516,OS3_Mult_verification,2022.2.4,MacIntel,60.0024001,,,10,0.8809,1,"[""1"",""0"",""return""]","[0.5159999999999911,0.5985999999940361,0.84790000000595]",0,30,30,4,1,10,,,,,,,,,,,,,,,,,,,,,,,,,,,,,,,,,,,,,,,,,,,,,,,,,,,,,,,,,,,,,,,,,,,,,,,,,,,,,,,,,,,,,,,,,,,,,,,,,,,,,,,,,,,,,,,,,,,,,,,,,,,,,,,,,,,,,,,,,,,,,,,,,,,,,,,,,,,,,,,,,
,191352558881,BCA,24/04/2001,001,2023-04-17_14h58.07.516,OS3_Mult_verification,2022.2.4,MacIntel,60.0024001,,,72,1.048,1,"[""7"",""2"",""return""]","[0.7694000000059589,0.8814999999999884,1.0122999999821047]",1,0,31,29,1,72,,,,,,,,,,,,,,,,,,,,,,,,,,,,,,,,,,,,,,,,,,,,,,,,,,,,,,,,,,,,,,,,,,,,,,,,,,,,,,,,,,,,,,,,,,,,,,,,,,,,,,,,,,,,,,,,,,,,,,,,,,,,,,,,,,,,,,,,,,,,,,,,,,,,,,,,,,,,,,,,,
,191352558881,BCA,24/04/2001,001,2023-04-17_14h58.07.516,OS3_Mult_verification,2022.2.4,MacIntel,60.0024001,,,4,0.8496,1,"[""4"",""return""]","[0.7163999999761756,0.8131999999880861]",1,1,32,0,1,4,,,,,,,,,,,,,,,,,,,,,,,,,,,,,,,,,,,,,,,,,,,,,,,,,,,,,,,,,,,,,,,,,,,,,,,,,,,,,,,,,,,,,,,,,,,,,,,,,,,,,,,,,,,,,,,,,,,,,,,,,,,,,,,,,,,,,,,,,,,,,,,,,,,,,,,,,,,,,,,,,
,191352558881,BCA,24/04/2001,001,2023-04-17_14h58.07.516,OS3_Mult_verification,2022.2.4,MacIntel,60.0024001,,,81,0.934,1,"[""8"",""1"",""return""]","[0.6691000000238319,0.7381000000238487,0.8993000000119196]",1,2,33,30,1,81,,,,,,,,,,,,,,,,,,,,,,,,,,,,,,,,,,,,,,,,,,,,,,,,,,,,,,,,,,,,,,,,,,,,,,,,,,,,,,,,,,,,,,,,,,,,,,,,,,,,,,,,,,,,,,,,,,,,,,,,,,,,,,,,,,,,,,,,,,,,,,,,,,,,,,,,,,,,,,,,,
,191352558881,BCA,24/04/2001,001,2023-04-17_14h58.07.516,OS3_Mult_verification,2022.2.4,MacIntel,60.0024001,,,54,1.0836,1,"[""5"",""4"",""return""]","[0.8487999999821056,0.9200999999940223,1.049999999999983]",1,3,34,25,1,54,,,,,,,,,,,,,,,,,,,,,,,,,,,,,,,,,,,,,,,,,,,,,,,,,,,,,,,,,,,,,,,,,,,,,,,,,,,,,,,,,,,,,,,,,,,,,,,,,,,,,,,,,,,,,,,,,,,,,,,,,,,,,,,,,,,,,,,,,,,,,,,,,,,,,,,,,,,,,,,,,
,191352558881,BCA,24/04/2001,001,2023-04-17_14h58.07.516,OS3_Mult_verification,2022.2.4,MacIntel,60.0024001,,,8,0.7815,1,"[""8"",""return""]","[0.5639000000059582,0.7520999999940443]",1,4,35,2,1,8,,,,,,,,,,,,,,,,,,,,,,,,,,,,,,,,,,,,,,,,,,,,,,,,,,,,,,,,,,,,,,,,,,,,,,,,,,,,,,,,,,,,,,,,,,,,,,,,,,,,,,,,,,,,,,,,,,,,,,,,,,,,,,,,,,,,,,,,,,,,,,,,,,,,,,,,,,,,,,,,,
,191352558881,BCA,24/04/2001,001,2023-04-17_14h58.07.516,OS3_Mult_verification,2022.2.4,MacIntel,60.0024001,,,12,0.8176,1,"[""1"",""2"",""return""]","[0.5497999999821275,0.6207999999821254,0.7817999999821268]",1,5,36,5,1,12,,,,,,,,,,,,,,,,,,,,,,,,,,,,,,,,,,,,,,,,,,,,,,,,,,,,,,,,,,,,,,,,,,,,,,,,,,,,,,,,,,,,,,,,,,,,,,,,,,,,,,,,,,,,,,,,,,,,,,,,,,,,,,,,,,,,,,,,,,,,,,,,,,,,,,,,,,,,,,,,,
,191352558881,BCA,24/04/2001,001,2023-04-17_14h58.07.516,OS3_Mult_verification,2022.2.4,MacIntel,60.0024001,,,21,0.7999,1,"[""2"",""1"",""return""]","[0.564900000005963,0.6510000000000105,0.7677000000178964]",1,6,37,11,1,21,,,,,,,,,,,,,,,,,,,,,,,,,,,,,,,,,,,,,,,,,,,,,,,,,,,,,,,,,,,,,,,,,,,,,,,,,,,,,,,,,,,,,,,,,,,,,,,,,,,,,,,,,,,,,,,,,,,,,,,,,,,,,,,,,,,,,,,,,,,,,,,,,,,,,,,,,,,,,,,,,
,191352558881,BCA,24/04/2001,001,2023-04-17_14h58.07.516,OS3_Mult_verification,2022.2.4,MacIntel,60.0024001,,,24,1.2529,1,"[""2"",""4"",""return""]","[0.9830999999940389,1.0480999999940366,1.2164999999999964]",1,7,38,12,1,24,,,,,,,,,,,,,,,,,,,,,,,,,,,,,,,,,,,,,,,,,,,,,,,,,,,,,,,,,,,,,,,,,,,,,,,,,,,,,,,,,,,,,,,,,,,,,,,,,,,,,,,,,,,,,,,,,,,,,,,,,,,,,,,,,,,,,,,,,,,,,,,,,,,,,,,,,,,,,,,,,
,191352558881,BCA,24/04/2001,001,2023-04-17_14h58.07.516,OS3_Mult_verification,2022.2.4,MacIntel,60.0024001,,,28,1.0817,1,"[""2"",""8"",""return""]","[0.6810999999940179,0.8156999999880554,1.0488999999761575]",1,8,39,15,1,28,,,,,,,,,,,,,,,,,,,,,,,,,,,,,,,,,,,,,,,,,,,,,,,,,,,,,,,,,,,,,,,,,,,,,,,,,,,,,,,,,,,,,,,,,,,,,,,,,,,,,,,,,,,,,,,,,,,,,,,,,,,,,,,,,,,,,,,,,,,,,,,,,,,,,,,,,,,,,,,,,
,191352558881,BCA,24/04/2001,001,2023-04-17_14h58.07.516,OS3_Mult_verification,2022.2.4,MacIntel,60.0024001,,,9,0.8651,1,"[""9"",""return""]","[0.6684999999999945,0.8338000000119337]",1,9,40,3,1,9,,,,,,,,,,,,,,,,,,,,,,,,,,,,,,,,,,,,,,,,,,,,,,,,,,,,,,,,,,,,,,,,,,,,,,,,,,,,,,,,,,,,,,,,,,,,,,,,,,,,,,,,,,,,,,,,,,,,,,,,,,,,,,,,,,,,,,,,,,,,,,,,,,,,,,,,,,,,,,,,,
,191352558881,BCA,24/04/2001,001,2023-04-17_14h58.07.516,OS3_Mult_verification,2022.2.4,MacIntel,60.0024001,,,10,0.7997,1,"[""1"",""0"",""return""]","[0.48890000000596956,0.5842000000178871,0.7676000000238332]",1,10,41,4,1,10,,,,,,,,,,,,,,,,,,,,,,,,,,,,,,,,,,,,,,,,,,,,,,,,,,,,,,,,,,,,,,,,,,,,,,,,,,,,,,,,,,,,,,,,,,,,,,,,,,,,,,,,,,,,,,,,,,,,,,,,,,,,,,,,,,,,,,,,,,,,,,,,,,,,,,,,,,,,,,,,,
,191352558881,BCA,24/04/2001,001,2023-04-17_14h58.07.516,OS3_Mult_verification,2022.2.4,MacIntel,60.0024001,,,42,1.1017,1,"[""4"",""2"",""return""]","[0.85269999998809,0.93659999999403,1.0671999999880768]",1,11,42,21,1,42,,,,,,,,,,,,,,,,,,,,,,,,,,,,,,,,,,,,,,,,,,,,,,,,,,,,,,,,,,,,,,,,,,,,,,,,,,,,,,,,,,,,,,,,,,,,,,,,,,,,,,,,,,,,,,,,,,,,,,,,,,,,,,,,,,,,,,,,,,,,,,,,,,,,,,,,,,,,,,,,,
,191352558881,BCA,24/04/2001,001,2023-04-17_14h58.07.516,OS3_Mult_verification,2022.2.4,MacIntel,60.0024001,,,39,0.9843,0,"[""3"",""9"",""return""]","[0.5331000000238646,0.630700000017896,0.9484000000059609]",1,12,43,16,1,30,,,,,,,,,,,,,,,,,,,,,,,,,,,,,,,,,,,,,,,,,,,,,,,,,,,,,,,,,,,,,,,,,,,,,,,,,,,,,,,,,,,,,,,,,,,,,,,,,,,,,,,,,,,,,,,,,,,,,,,,,,,,,,,,,,,,,,,,,,,,,,,,,,,,,,,,,,,,,,,,,
,191352558881,BCA,24/04/2001,001,2023-04-17_14h58.07.516,OS3_Mult_verification,2022.2.4,MacIntel,60.0024001,,,25,1.3001,1,"[""2"",""5"",""return""]","[0.8669000000059555,1.069300000011907,1.2649999999999864]",1,13,44,13,1,25,,,,,,,,,,,,,,,,,,,,,,,,,,,,,,,,,,,,,,,,,,,,,,,,,,,,,,,,,,,,,,,,,,,,,,,,,,,,,,,,,,,,,,,,,,,,,,,,,,,,,,,,,,,,,,,,,,,,,,,,,,,,,,,,,,,,,,,,,,,,,,,,,,,,,,,,,,,,,,,,,
,191352558881,BCA,24/04/2001,001,2023-04-17_14h58.07.516,OS3_Mult_verification,2022.2.4,MacIntel,60.0024001,,,32,0.9149,1,"[""3"",""2"",""return""]","[0.6650999999940268,0.720499999999987,0.8834000000059348]",1,14,45,17,1,32,,,,,,,,,,,,,,,,,,,,,,,,,,,,,,,,,,,,,,,,,,,,,,,,,,,,,,,,,,,,,,,,,,,,,,,,,,,,,,,,,,,,,,,,,,,,,,,,,,,,,,,,,,,,,,,,,,,,,,,,,,,,,,,,,,,,,,,,,,,,,,,,,,,,,,,,,,,,,,,,,
,191352558881,BCA,24/04/2001,001,2023-04-17_14h58.07.516,OS3_Mult_verification,2022.2.4,MacIntel,60.0024001,,,20,0.9019,1,"[""2"",""0"",""return""]","[0.5827000000178941,0.6214000000059627,0.8691000000238489]",1,15,46,10,1,20,,,,,,,,,,,,,,,,,,,,,,,,,,,,,,,,,,,,,,,,,,,,,,,,,,,,,,,,,,,,,,,,,,,,,,,,,,,,,,,,,,,,,,,,,,,,,,,,,,,,,,,,,,,,,,,,,,,,,,,,,,,,,,,,,,,,,,,,,,,,,,,,,,,,,,,,,,,,,,,,,
,191352558881,BCA,24/04/2001,001,2023-04-17_14h58.07.516,OS3_Mult_verification,2022.2.4,MacIntel,60.0024001,,,36,1.347,1,"[""3"",""6"",""return""]","[0.7485999999940418,1.0820999999940568,1.314900000005963]",1,16,47,19,1,36,,,,,,,,,,,,,,,,,,,,,,,,,,,,,,,,,,,,,,,,,,,,,,,,,,,,,,,,,,,,,,,,,,,,,,,,,,,,,,,,,,,,,,,,,,,,,,,,,,,,,,,,,,,,,,,,,,,,,,,,,,,,,,,,,,,,,,,,,,,,,,,,,,,,,,,,,,,,,,,,,
,191352558881,BCA,24/04/2001,001,2023-04-17_14h58.07.516,OS3_Mult_verification,2022.2.4,MacIntel,60.0024001,,,49,1.3827,1,"[""3"",""backspace"",""4"",""9"",""return""]","[0.6160999999940486,0.8999000000059709,1.0560000000000116,1.1178000000119255,1.3454000000059807]",1,17,48,24,1,49,,,,,,,,,,,,,,,,,,,,,,,,,,,,,,,,,,,,,,,,,,,,,,,,,,,,,,,,,,,,,,,,,,,,,,,,,,,,,,,,,,,,,,,,,,,,,,,,,,,,,,,,,,,,,,,,,,,,,,,,,,,,,,,,,,,,,,,,,,,,,,,,,,,,,,,,,,,,,,,,,
,191352558881,BCA,24/04/2001,001,2023-04-17_14h58.07.516,OS3_Mult_verification,2022.2.4,MacIntel,60.0024001,,,56,1.2682,1,"[""5"",""6"",""return""]","[1.000599999994023,1.0805999999940354,1.2419000000059555]",1,18,49,26,1,56,,,,,,,,,,,,,,,,,,,,,,,,,,,,,,,,,,,,,,,,,,,,,,,,,,,,,,,,,,,,,,,,,,,,,,,,,,,,,,,,,,,,,,,,,,,,,,,,,,,,,,,,,,,,,,,,,,,,,,,,,,,,,,,,,,,,,,,,,,,,,,,,,,,,,,,,,,,,,,,,,
,191352558881,BCA,24/04/2001,001,2023-04-17_14h58.07.516,OS3_Mult_verification,2022.2.4,MacIntel,60.0024001,,,15,1.0715,1,"[""1"",""5"",""return""]","[0.8004999999999995,0.8667000000178859,1.035000000000025]",1,19,50,7,1,15,,,,,,,,,,,,,,,,,,,,,,,,,,,,,,,,,,,,,,,,,,,,,,,,,,,,,,,,,,,,,,,,,,,,,,,,,,,,,,,,,,,,,,,,,,,,,,,,,,,,,,,,,,,,,,,,,,,,,,,,,,,,,,,,,,,,,,,,,,,,,,,,,,,,,,,,,,,,,,,,,
,191352558881,BCA,24/04/2001,001,2023-04-17_14h58.07.516,OS3_Mult_verification,2022.2.4,MacIntel,60.0024001,,,63,1.1671,1,"[""6"",""3"",""return""]","[0.8674999999999784,0.9836999999880618,1.1343999999761536]",1,20,51,27,1,63,,,,,,,,,,,,,,,,,,,,,,,,,,,,,,,,,,,,,,,,,,,,,,,,,,,,,,,,,,,,,,,,,,,,,,,,,,,,,,,,,,,,,,,,,,,,,,,,,,,,,,,,,,,,,,,,,,,,,,,,,,,,,,,,,,,,,,,,,,,,,,,,,,,,,,,,,,,,,,,,,
,191352558881,BCA,24/04/2001,001,2023-04-17_14h58.07.516,OS3_Mult_verification,2022.2.4,MacIntel,60.0024001,,,16,1.1324,1,"[""1"",""6"",""return""]","[0.8309999999999889,0.9000000000000057,1.0987000000178853]",1,21,52,8,1,16,,,,,,,,,,,,,,,,,,,,,,,,,,,,,,,,,,,,,,,,,,,,,,,,,,,,,,,,,,,,,,,,,,,,,,,,,,,,,,,,,,,,,,,,,,,,,,,,,,,,,,,,,,,,,,,,,,,,,,,,,,,,,,,,,,,,,,,,,,,,,,,,,,,,,,,,,,,,,,,,,
,191352558881,BCA,24/04/2001,001,2023-04-17_14h58.07.516,OS3_Mult_verification,2022.2.4,MacIntel,60.0024001,,,35,1.35,1,"[""3"",""5"",""return""]","[1.0342000000178757,1.1170999999940534,1.3163000000119212]",1,22,53,18,1,35,,,,,,,,,,,,,,,,,,,,,,,,,,,,,,,,,,,,,,,,,,,,,,,,,,,,,,,,,,,,,,,,,,,,,,,,,,,,,,,,,,,,,,,,,,,,,,,,,,,,,,,,,,,,,,,,,,,,,,,,,,,,,,,,,,,,,,,,,,,,,,,,,,,,,,,,,,,,,,,,,
,191352558881,BCA,24/04/2001,001,2023-04-17_14h58.07.516,OS3_Mult_verification,2022.2.4,MacIntel,60.0024001,,,14,0.9171,1,"[""1"",""4"",""return""]","[0.681799999982104,0.7322999999821036,0.8828999999761606]",1,23,54,6,1,14,,,,,,,,,,,,,,,,,,,,,,,,,,,,,,,,,,,,,,,,,,,,,,,,,,,,,,,,,,,,,,,,,,,,,,,,,,,,,,,,,,,,,,,,,,,,,,,,,,,,,,,,,,,,,,,,,,,,,,,,,,,,,,,,,,,,,,,,,,,,,,,,,,,,,,,,,,,,,,,,,
,191352558881,BCA,24/04/2001,001,2023-04-17_14h58.07.516,OS3_Mult_verification,2022.2.4,MacIntel,60.0024001,,,45,1.0661,1,"[""4"",""5"",""return""]","[0.8309000000059541,0.8815999999940516,1.03630000001192]",1,24,55,22,1,45,,,,,,,,,,,,,,,,,,,,,,,,,,,,,,,,,,,,,,,,,,,,,,,,,,,,,,,,,,,,,,,,,,,,,,,,,,,,,,,,,,,,,,,,,,,,,,,,,,,,,,,,,,,,,,,,,,,,,,,,,,,,,,,,,,,,,,,,,,,,,,,,,,,,,,,,,,,,,,,,,
,191352558881,BCA,24/04/2001,001,2023-04-17_14h58.07.516,OS3_Mult_verification,2022.2.4,MacIntel,60.0024001,,,64,0.9664,1,"[""6"",""4"",""return""]","[0.6829999999999927,0.7837000000178591,0.9313000000119018]",1,25,56,28,1,64,,,,,,,,,,,,,,,,,,,,,,,,,,,,,,,,,,,,,,,,,,,,,,,,,,,,,,,,,,,,,,,,,,,,,,,,,,,,,,,,,,,,,,,,,,,,,,,,,,,,,,,,,,,,,,,,,,,,,,,,,,,,,,,,,,,,,,,,,,,,,,,,,,,,,,,,,,,,,,,,,
,191352558881,BCA,24/04/2001,001,2023-04-17_14h58.07.516,OS3_Mult_verification,2022.2.4,MacIntel,60.0024001,,,18,0.9145,1,"[""1"",""8"",""return""]","[0.5674000000059607,0.6539000000059616,0.8837000000178818]",1,26,57,9,1,18,,,,,,,,,,,,,,,,,,,,,,,,,,,,,,,,,,,,,,,,,,,,,,,,,,,,,,,,,,,,,,,,,,,,,,,,,,,,,,,,,,,,,,,,,,,,,,,,,,,,,,,,,,,,,,,,,,,,,,,,,,,,,,,,,,,,,,,,,,,,,,,,,,,,,,,,,,,,,,,,,
,191352558881,BCA,24/04/2001,001,2023-04-17_14h58.07.516,OS3_Mult_verification,2022.2.4,MacIntel,60.0024001,,,6,1.299,1,"[""5"",""backspace"",""6"",""return""]","[0.6973000000119214,1.0324999999999989,1.1388000000119405,1.2693000000119241]",1,27,58,1,1,6,,,,,,,,,,,,,,,,,,,,,,,,,,,,,,,,,,,,,,,,,,,,,,,,,,,,,,,,,,,,,,,,,,,,,,,,,,,,,,,,,,,,,,,,,,,,,,,,,,,,,,,,,,,,,,,,,,,,,,,,,,,,,,,,,,,,,,,,,,,,,,,,,,,,,,,,,,,,,,,,,
,191352558881,BCA,24/04/2001,001,2023-04-17_14h58.07.516,OS3_Mult_verification,2022.2.4,MacIntel,60.0024001,,,40,1.2997,1,"[""4"",""0"",""return""]","[0.9871000000238439,1.0648000000119282,1.2703000000119289]",1,28,59,20,1,40,,,,,,,,,,,,,,,,,,,,,,,,,,,,,,,,,,,,,,,,,,,,,,,,,,,,,,,,,,,,,,,,,,,,,,,,,,,,,,,,,,,,,,,,,,,,,,,,,,,,,,,,,,,,,,,,,,,,,,,,,,,,,,,,,,,,,,,,,,,,,,,,,,,,,,,,,,,,,,,,,
,191352558881,BCA,24/04/2001,001,2023-04-17_14h58.07.516,OS3_Mult_verification,2022.2.4,MacIntel,60.0024001,,,27,1.6357,1,"[""7"",""backspace"",""2"",""7"",""return""]","[0.799599999994058,1.1164000000059673,1.267099999994059,1.3826999999880911,1.6024000000059857]",1,29,60,14,1,27,,,,,,,,,,,,,,,,,,,,,,,,,,,,,,,,,,,,,,,,,,,,,,,,,,,,,,,,,,,,,,,,,,,,,,,,,,,,,,,,,,,,,,,,,,,,,,,,,,,,,,,,,,,,,,,,,,,,,,,,,,,,,,,,,,,,,,,,,,,,,,,,,,,,,,,,,,,,,,,,,
,191352558881,BCA,24/04/2001,001,2023-04-17_14h58.07.516,OS3_Mult_verification,2022.2.4,MacIntel,60.0024001,,,48,1.1663,1,"[""4"",""8"",""return""]","[0.852499999999992,0.9157000000178641,1.1317000000178723]",1,30,61,23,1,48,,,,,,,,,,,,,,,,,,,,,,,,,,,,,,,,,,,,,,,,,,,,,,,,,,,,,,,,,,,,,,,,,,,,,,,,,,,,,,,,,,,,,,,,,,,,,,,,,,,,,,,,,,,,,,,,,,,,,,,,,,,,,,,,,,,,,,,,,,,,,,,,,,,,,,,,,,,,,,,,,
,191352558881,BCA,24/04/2001,001,2023-04-17_14h58.07.516,OS3_Mult_verification,2022.2.4,MacIntel,60.0024001,,,,,,,,,,,,,,space,1.9928,,,,,,,,,,,,,,,,,,,,,,,,,,,,,,,,,,,,,,,,,,,,,,,,,,,,,,,,,,,,,,,,,,,,,,,,,,,,,,,,,,,,,,,,,,,,,,,,,,,,,,,,,,,,,,,,,,,,,,,,,,,,,,,,,,,,,,,,,,,,,,,,,,,,,,,,,,,,,,,
,191352558881,BCA,24/04/2001,001,2023-04-17_14h58.07.516,OS3_Mult_verification,2022.2.4,MacIntel,60.0024001,,,,,,,,,,,,,,,,,,,,,,,,,,,,,,,,,,,,,,,,,,,,,,,,,,,,,,,,,,,,,,,,,,,,,,,,,,,,,,,,,,,,,,,,,,,,,,,,,,,,,,,,,,,,,,,,,,,,,,,,,,,,,,,,,,,,,,,,,,,,,,,,,,,,,,,,,,,,,,,,,,,,,,,,,,,,,,
,191352558881,BCA,24/04/2001,001,2023-04-17_14h58.07.516,OS3_Mult_verification,2022.2.4,MacIntel,60.0024001,,,,,,,,,,,,,,,,space,1.7689,,,,,,,,,,,,,,,,,,,,,,,,,,,,,,,,,,,,,,,,,,,,,,,,,,,,,,,,,,,,,,,,,,,,,,,,,,,,,,,,,,,,,,,,,,,,,,,,,,,,,,,,,,,,,,,,,,,,,,,,,,,,,,,,,,,,,,,,,,,,,,,,,,,,,,,,,,,,,
,191352558881,BCA,24/04/2001,001,2023-04-17_14h58.07.516,OS3_Mult_verification,2022.2.4,MacIntel,60.0024001,,,,,,,,,,,,,,,,,,20,1.7086,1,"[""1"",""backspace"",""2"",""0"",""return""]","[0.7504999999999882,1.0031999999880554,1.1379999999999768,1.2356999999880713,1.4182999999821106]",0,0,0,1,1,2 × 10 =,20,,,,,,,,,,,,,,,,,,,,,,,,,,,,,,,,,,,,,,,,,,,,,,,,,,,,,,,,,,,,,,,,,,,,,,,,,,,,,,,,,,,,,,,,,,,,,,,,,,,,,,,,,,,,,,,,,,,,,,,,,,,,,,,,,,,,,,,,,,,,,,,,,
,191352558881,BCA,24/04/2001,001,2023-04-17_14h58.07.516,OS3_Mult_verification,2022.2.4,MacIntel,60.0024001,,,,,,,,,,,,,,,,,,22,1.2337,1,"[""2"",""2"",""return""]","[0.6828000000119232,0.8361000000238619,0.9459000000059632]",0,1,1,2,1,2 × 11 =,22,,,,,,,,,,,,,,,,,,,,,,,,,,,,,,,,,,,,,,,,,,,,,,,,,,,,,,,,,,,,,,,,,,,,,,,,,,,,,,,,,,,,,,,,,,,,,,,,,,,,,,,,,,,,,,,,,,,,,,,,,,,,,,,,,,,,,,,,,,,,,,,,,
,191352558881,BCA,24/04/2001,001,2023-04-17_14h58.07.516,OS3_Mult_verification,2022.2.4,MacIntel,60.0024001,,,,,,,,,,,,,,,,,,7,1.2804,1,"[""7"",""return""]","[0.7637000000178773,0.9815000000000111]",0,2,2,0,1,1 × 7 =,7,,,,,,,,,,,,,,,,,,,,,,,,,,,,,,,,,,,,,,,,,,,,,,,,,,,,,,,,,,,,,,,,,,,,,,,,,,,,,,,,,,,,,,,,,,,,,,,,,,,,,,,,,,,,,,,,,,,,,,,,,,,,,,,,,,,,,,,,,,,,,,,,,
,191352558881,BCA,24/04/2001,001,2023-04-17_14h58.07.516,OS3_Mult_verification,2022.2.4,MacIntel,60.0024001,,,,,,,,,,,,,,,,,,,,,,,,,,,,,,,,,,,,,,,,,,,,,,,,,,,,,,,,,,,,,,,,,,,,,,,,,,,,,,,,,,,,,,,,,,,,,,,,,,,,,,,,,,,,,,,,,,,,,,,,,,,,,,,,,,,,,,,,,,,,,,,,,,,,,,,,,,,,,,,,,,,,,,,,,,,,,,
,191352558881,BCA,24/04/2001,001,2023-04-17_14h58.07.516,OS3_Mult_verification,2022.2.4,MacIntel,60.0024001,,,,,,,,,,,,,,,,,,,,,,,,,,,,,,,,,,,,,,,,,,,,,,,,,,,,,,,,,,,,,,,,,,,,,,,,,,,,,,,,,,,,,,,,,,,,,,,,,,,,,,,,,,,,,,,,,,,,,,,,,,,,,,,,,,,,,,,,,,,,,,,,,,,,,,,,,,,,,,,,,,,,,,,,,,,,,,
,191352558881,BCA,24/04/2001,001,2023-04-17_14h58.07.516,OS3_Mult_verification,2022.2.4,MacIntel,60.0024001,,,,,,,,,,,,,,,,,,6,1.51,1,"[""6"",""return""]","[1.0568000000119184,1.2195999999940454]",,,,,,2 × 3 =,6,0,0,0,0,1,,,,,,,,,,,,,,,,,,,,,,,,,,,,,,,,,,,,,,,,,,,,,,,,,,,,,,,,,,,,,,,,,,,,,,,,,,,,,,,,,,,,,,,,,,,,,,,,,,,,,,,,,,,,,,,,,,,,,,,,,,,,,,,,,,,,,,,,,,,,
,191352558881,BCA,24/04/2001,001,2023-04-17_14h58.07.516,OS3_Mult_verification,2022.2.4,MacIntel,60.0024001,,,,,,,,,,,,,,,,,,40,3.5327,1,"[""4"",""0"",""return""]","[2.6391999999880795,2.7137999999821147,3.2347999999821297]",,,,,,5 × 8 =,40,0,1,1,1,1,,,,,,,,,,,,,,,,,,,,,,,,,,,,,,,,,,,,,,,,,,,,,,,,,,,,,,,,,,,,,,,,,,,,,,,,,,,,,,,,,,,,,,,,,,,,,,,,,,,,,,,,,,,,,,,,,,,,,,,,,,,,,,,,,,,,,,,,,,,,
,191352558881,BCA,24/04/2001,001,2023-04-17_14h58.07.516,OS3_Mult_verification,2022.2.4,MacIntel,60.0024001,,,,,,,,,,,,,,,,,,12,1.8816,1,"[""1"",""2"",""return""]","[1.3469000000059737,1.4349000000059675,1.5849000000059732]",,,,,,3 × 4 =,12,0,2,2,2,1,,,,,,,,,,,,,,,,,,,,,,,,,,,,,,,,,,,,,,,,,,,,,,,,,,,,,,,,,,,,,,,,,,,,,,,,,,,,,,,,,,,,,,,,,,,,,,,,,,,,,,,,,,,,,,,,,,,,,,,,,,,,,,,,,,,,,,,,,,,,
,191352558881,BCA,24/04/2001,001,2023-04-17_14h58.07.516,OS3_Mult_verification,2022.2.4,MacIntel,60.0024001,,,,,,,,,,,,,,,,,,15,1.4648,1,"[""1"",""5"",""return""]","[0.9830000000000041,1.046600000023858,1.1709999999999923]",,,,,,5 × 3 =,15,0,3,3,3,1,,,,,,,,,,,,,,,,,,,,,,,,,,,,,,,,,,,,,,,,,,,,,,,,,,,,,,,,,,,,,,,,,,,,,,,,,,,,,,,,,,,,,,,,,,,,,,,,,,,,,,,,,,,,,,,,,,,,,,,,,,,,,,,,,,,,,,,,,,,,
,191352558881,BCA,24/04/2001,001,2023-04-17_14h58.07.516,OS3_Mult_verification,2022.2.4,MacIntel,60.0024001,,,,,,,,,,,,,,,,,,8,1.5012,1,"[""8"",""return""]","[0.9827999999821202,1.201299999982126]",,,,,,2 × 4 =,8,0,4,4,4,1,,,,,,,,,,,,,,,,,,,,,,,,,,,,,,,,,,,,,,,,,,,,,,,,,,,,,,,,,,,,,,,,,,,,,,,,,,,,,,,,,,,,,,,,,,,,,,,,,,,,,,,,,,,,,,,,,,,,,,,,,,,,,,,,,,,,,,,,,,,,
,191352558881,BCA,24/04/2001,001,2023-04-17_14h58.07.516,OS3_Mult_verification,2022.2.4,MacIntel,60.0024001,,,,,,,,,,,,,,,,,,4,1.2334,1,"[""4"",""return""]","[0.8015000000000043,0.9339000000059627]",,,,,,2 × 2 =,4,0,5,5,5,1,,,,,,,,,,,,,,,,,,,,,,,,,,,,,,,,,,,,,,,,,,,,,,,,,,,,,,,,,,,,,,,,,,,,,,,,,,,,,,,,,,,,,,,,,,,,,,,,,,,,,,,,,,,,,,,,,,,,,,,,,,,,,,,,,,,,,,,,,,,,
,191352558881,BCA,24/04/2001,001,2023-04-17_14h58.07.516,OS3_Mult_verification,2022.2.4,MacIntel,60.0024001,,,,,,,,,,,,,,,,,,20,1.616,1,"[""2"",""0"",""return""]","[0.9973000000119328,1.1183000000119137,1.3163000000119212]",,,,,,4 × 5 =,20,0,6,6,6,1,,,,,,,,,,,,,,,,,,,,,,,,,,,,,,,,,,,,,,,,,,,,,,,,,,,,,,,,,,,,,,,,,,,,,,,,,,,,,,,,,,,,,,,,,,,,,,,,,,,,,,,,,,,,,,,,,,,,,,,,,,,,,,,,,,,,,,,,,,,,
,191352558881,BCA,24/04/2001,001,2023-04-17_14h58.07.516,OS3_Mult_verification,2022.2.4,MacIntel,60.0024001,,,,,,,,,,,,,,,,,,9,1.4454,1,"[""9"",""return""]","[0.9360999999940418,1.149699999988087]",,,,,,3 × 3 =,9,0,7,7,7,1,,,,,,,,,,,,,,,,,,,,,,,,,,,,,,,,,,,,,,,,,,,,,,,,,,,,,,,,,,,,,,,,,,,,,,,,,,,,,,,,,,,,,,,,,,,,,,,,,,,,,,,,,,,,,,,,,,,,,,,,,,,,,,,,,,,,,,,,,,,,
,191352558881,BCA,24/04/2001,001,2023-04-17_14h58.07.516,OS3_Mult_verification,2022.2.4,MacIntel,60.0024001,,,,,,,,,,,,,,,,,,10,1.302,1,"[""1"",""0"",""return""]","[0.7176999999880707,0.8323999999761611,1.0219999999999914]",,,,,,5 × 2 =,10,0,8,8,8,1,,,,,,,,,,,,,,,,,,,,,,,,,,,,,,,,,,,,,,,,,,,,,,,,,,,,,,,,,,,,,,,,,,,,,,,,,,,,,,,,,,,,,,,,,,,,,,,,,,,,,,,,,,,,,,,,,,,,,,,,,,,,,,,,,,,,,,,,,,,,
,191352558881,BCA,24/04/2001,001,2023-04-17_14h58.07.516,OS3_Mult_verification,2022.2.4,MacIntel,60.0024001,,,,,,,,,,,,,,,,,,16,2.0988,1,"[""1"",""6"",""return""]","[1.3157000000178982,1.6362000000178796,1.7973000000119157]",,,,,,4 × 4 =,16,0,9,9,9,1,,,,,,,,,,,,,,,,,,,,,,,,,,,,,,,,,,,,,,,,,,,,,,,,,,,,,,,,,,,,,,,,,,,,,,,,,,,,,,,,,,,,,,,,,,,,,,,,,,,,,,,,,,,,,,,,,,,,,,,,,,,,,,,,,,,,,,,,,,,,
,191352558881,BCA,24/04/2001,001,2023-04-17_14h58.07.516,OS3_Mult_verification,2022.2.4,MacIntel,60.0024001,,,,,,,,,,,,,,,,,,24,2.0997,1,"[""2"",""4"",""return""]","[1.3311999999880868,1.5339999999999918,1.7983000000119205]",,,,,,8 × 3 =,24,0,10,10,10,1,,,,,,,,,,,,,,,,,,,,,,,,,,,,,,,,,,,,,,,,,,,,,,,,,,,,,,,,,,,,,,,,,,,,,,,,,,,,,,,,,,,,,,,,,,,,,,,,,,,,,,,,,,,,,,,,,,,,,,,,,,,,,,,,,,,,,,,,,,,,
,191352558881,BCA,24/04/2001,001,2023-04-17_14h58.07.516,OS3_Mult_verification,2022.2.4,MacIntel,60.0024001,,,,,,,,,,,,,,,,,,30,2.7304,1,"[""4"",""3"",""backspace"",""backspace"",""3"",""0"",""return""]","[1.282400000005964,1.697499999999991,1.9318000000119184,2.079699999988094,2.1804000000059602,2.2525999999940325,2.431900000005953]",,,,,,6 × 5 =,30,0,11,11,11,1,,,,,,,,,,,,,,,,,,,,,,,,,,,,,,,,,,,,,,,,,,,,,,,,,,,,,,,,,,,,,,,,,,,,,,,,,,,,,,,,,,,,,,,,,,,,,,,,,,,,,,,,,,,,,,,,,,,,,,,,,,,,,,,,,,,,,,,,,,,,
,191352558881,BCA,24/04/2001,001,2023-04-17_14h58.07.516,OS3_Mult_verification,2022.2.4,MacIntel,60.0024001,,,,,,,,,,,,,,,,,,14,1.8171,1,"[""1"",""4"",""return""]","[0.949099999994047,1.0484000000059552,1.5165999999940425]",,,,,,7 × 2 =,14,0,12,12,12,1,,,,,,,,,,,,,,,,,,,,,,,,,,,,,,,,,,,,,,,,,,,,,,,,,,,,,,,,,,,,,,,,,,,,,,,,,,,,,,,,,,,,,,,,,,,,,,,,,,,,,,,,,,,,,,,,,,,,,,,,,,,,,,,,,,,,,,,,,,,,
,191352558881,BCA,24/04/2001,001,2023-04-17_14h58.07.516,OS3_Mult_verification,2022.2.4,MacIntel,60.0024001,,,,,,,,,,,,,,,,,,27,1.7484,1,"[""2"",""7"",""return""]","[1.1014999999999873,1.2563000000119189,1.4530999999940377]",,,,,,3 × 9 =,27,0,13,13,13,1,,,,,,,,,,,,,,,,,,,,,,,,,,,,,,,,,,,,,,,,,,,,,,,,,,,,,,,,,,,,,,,,,,,,,,,,,,,,,,,,,,,,,,,,,,,,,,,,,,,,,,,,,,,,,,,,,,,,,,,,,,,,,,,,,,,,,,,,,,,,
,191352558881,BCA,24/04/2001,001,2023-04-17_14h58.07.516,OS3_Mult_verification,2022.2.4,MacIntel,60.0024001,,,,,,,,,,,,,,,,,,16,2.098,1,"[""1"",""6"",""return""]","[1.250599999994023,1.6344000000059395,1.794599999994034]",,,,,,2 × 8 =,16,0,14,14,14,1,,,,,,,,,,,,,,,,,,,,,,,,,,,,,,,,,,,,,,,,,,,,,,,,,,,,,,,,,,,,,,,,,,,,,,,,,,,,,,,,,,,,,,,,,,,,,,,,,,,,,,,,,,,,,,,,,,,,,,,,,,,,,,,,,,,,,,,,,,,,
,191352558881,BCA,24/04/2001,001,2023-04-17_14h58.07.516,OS3_Mult_verification,2022.2.4,MacIntel,60.0024001,,,,,,,,,,,,,,,,,,24,2.1836,1,"[""2"",""4"",""return""]","[1.6973000000119498,1.7510000000000048,1.8990000000000293]",,,,,,4 × 6 =,24,0,15,15,15,1,,,,,,,,,,,,,,,,,,,,,,,,,,,,,,,,,,,,,,,,,,,,,,,,,,,,,,,,,,,,,,,,,,,,,,,,,,,,,,,,,,,,,,,,,,,,,,,,,,,,,,,,,,,,,,,,,,,,,,,,,,,,,,,,,,,,,,,,,,,,
,191352558881,BCA,24/04/2001,001,2023-04-17_14h58.07.516,OS3_Mult_verification,2022.2.4,MacIntel,60.0024001,,,,,,,,,,,,,,,,,,21,1.8322,1,"[""2"",""1"",""return""]","[1.051599999994039,1.1330999999940445,1.5554000000059887]",,,,,,7 × 3 =,21,0,16,16,16,1,,,,,,,,,,,,,,,,,,,,,,,,,,,,,,,,,,,,,,,,,,,,,,,,,,,,,,,,,,,,,,,,,,,,,,,,,,,,,,,,,,,,,,,,,,,,,,,,,,,,,,,,,,,,,,,,,,,,,,,,,,,,,,,,,,,,,,,,,,,,
,191352558881,BCA,24/04/2001,001,2023-04-17_14h58.07.516,OS3_Mult_verification,2022.2.4,MacIntel,60.0024001,,,,,,,,,,,,,,,,,,27,1.9339,1,"[""2"",""7"",""return""]","[1.3844000000059395,1.4660999999940145,1.6539999999999964]",,,,,,9 × 3 =,27,0,17,17,17,1,,,,,,,,,,,,,,,,,,,,,,,,,,,,,,,,,,,,,,,,,,,,,,,,,,,,,,,,,,,,,,,,,,,,,,,,,,,,,,,,,,,,,,,,,,,,,,,,,,,,,,,,,,,,,,,,,,,,,,,,,,,,,,,,,,,,,,,,,,,,
,191352558881,BCA,24/04/2001,001,2023-04-17_14h58.07.516,OS3_Mult_verification,2022.2.4,MacIntel,60.0024001,,,,,,,,,,,,,,,,,,28,2.0967,1,"[""2"",""8"",""return""]","[1.4490000000000123,1.6175999999940132,1.7994999999999663]",,,,,,4 × 7 =,28,0,18,18,18,1,,,,,,,,,,,,,,,,,,,,,,,,,,,,,,,,,,,,,,,,,,,,,,,,,,,,,,,,,,,,,,,,,,,,,,,,,,,,,,,,,,,,,,,,,,,,,,,,,,,,,,,,,,,,,,,,,,,,,,,,,,,,,,,,,,,,,,,,,,,,
,191352558881,BCA,24/04/2001,001,2023-04-17_14h58.07.516,OS3_Mult_verification,2022.2.4,MacIntel,60.0024001,,,,,,,,,,,,,,,,,,18,1.5349,1,"[""1"",""8"",""return""]","[0.9154000000059455,1.0479000000059386,1.2496999999880813]",,,,,,2 × 9 =,18,0,19,19,19,1,,,,,,,,,,,,,,,,,,,,,,,,,,,,,,,,,,,,,,,,,,,,,,,,,,,,,,,,,,,,,,,,,,,,,,,,,,,,,,,,,,,,,,,,,,,,,,,,,,,,,,,,,,,,,,,,,,,,,,,,,,,,,,,,,,,,,,,,,,,,
,191352558881,BCA,24/04/2001,001,2023-04-17_14h58.07.516,OS3_Mult_verification,2022.2.4,MacIntel,60.0024001,,,,,,,,,,,,,,,,,,72,2.8665,1,"[""7"",""2"",""return""]","[2.3159000000059677,2.4354999999999905,2.5667000000178746]",,,,,,9 × 8 =,72,0,20,20,20,1,,,,,,,,,,,,,,,,,,,,,,,,,,,,,,,,,,,,,,,,,,,,,,,,,,,,,,,,,,,,,,,,,,,,,,,,,,,,,,,,,,,,,,,,,,,,,,,,,,,,,,,,,,,,,,,,,,,,,,,,,,,,,,,,,,,,,,,,,,,,
,191352558881,BCA,24/04/2001,001,2023-04-17_14h58.07.516,OS3_Mult_verification,2022.2.4,MacIntel,60.0024001,,,,,,,,,,,,,,,,,,42,5.2815,1,"[""4"",""2"",""return""]","[4.815099999994004,4.8663999999761245,4.982699999988085]",,,,,,7 × 6 =,42,0,21,21,21,1,,,,,,,,,,,,,,,,,,,,,,,,,,,,,,,,,,,,,,,,,,,,,,,,,,,,,,,,,,,,,,,,,,,,,,,,,,,,,,,,,,,,,,,,,,,,,,,,,,,,,,,,,,,,,,,,,,,,,,,,,,,,,,,,,,,,,,,,,,,,
,191352558881,BCA,24/04/2001,001,2023-04-17_14h58.07.516,OS3_Mult_verification,2022.2.4,MacIntel,60.0024001,,,,,,,,,,,,,,,,,,54,2.4509,1,"[""5"",""4"",""return""]","[1.9344000000060078,2.034099999994055,2.170500000000004]",,,,,,6 × 9 =,54,0,22,22,22,1,,,,,,,,,,,,,,,,,,,,,,,,,,,,,,,,,,,,,,,,,,,,,,,,,,,,,,,,,,,,,,,,,,,,,,,,,,,,,,,,,,,,,,,,,,,,,,,,,,,,,,,,,,,,,,,,,,,,,,,,,,,,,,,,,,,,,,,,,,,,
,191352558881,BCA,24/04/2001,001,2023-04-17_14h58.07.516,OS3_Mult_verification,2022.2.4,MacIntel,60.0024001,,,,,,,,,,,,,,,,,,45,1.6341,1,"[""4"",""5"",""return""]","[1.1507000000178778,1.2390000000000327,1.3539000000059787]",,,,,,9 × 5 =,45,0,23,23,23,1,,,,,,,,,,,,,,,,,,,,,,,,,,,,,,,,,,,,,,,,,,,,,,,,,,,,,,,,,,,,,,,,,,,,,,,,,,,,,,,,,,,,,,,,,,,,,,,,,,,,,,,,,,,,,,,,,,,,,,,,,,,,,,,,,,,,,,,,,,,,
,191352558881,BCA,24/04/2001,001,2023-04-17_14h58.07.516,OS3_Mult_verification,2022.2.4,MacIntel,60.0024001,,,,,,,,,,,,,,,,,,64,3.0017,0,"[""6"",""4"",""return""]","[2.4492000000178678,2.538000000000011,2.7156000000238123]",,,,,,8 × 7 =,56,0,24,24,24,1,,,,,,,,,,,,,,,,,,,,,,,,,,,,,,,,,,,,,,,,,,,,,,,,,,,,,,,,,,,,,,,,,,,,,,,,,,,,,,,,,,,,,,,,,,,,,,,,,,,,,,,,,,,,,,,,,,,,,,,,,,,,,,,,,,,,,,,,,,,,
,191352558881,BCA,24/04/2001,001,2023-04-17_14h58.07.516,OS3_Mult_verification,2022.2.4,MacIntel,60.0024001,,,,,,,,,,,,,,,,,,37,4.2783,0,"[""2"",""6"",""backspace"",""backspace"",""3"",""7"",""return""]","[3.0999000000059596,3.2065000000000055,3.481599999994046,3.6156999999881236,3.7300999999940814,3.7978000000119323,3.9840999999940436]",,,,,,6 × 6 =,36,0,25,25,25,1,,,,,,,,,,,,,,,,,,,,,,,,,,,,,,,,,,,,,,,,,,,,,,,,,,,,,,,,,,,,,,,,,,,,,,,,,,,,,,,,,,,,,,,,,,,,,,,,,,,,,,,,,,,,,,,,,,,,,,,,,,,,,,,,,,,,,,,,,,,,
,191352558881,BCA,24/04/2001,001,2023-04-17_14h58.07.516,OS3_Mult_verification,2022.2.4,MacIntel,60.0024001,,,,,,,,,,,,,,,,,,35,4.0556,1,"[""3"",""5"",""return""]","[3.600999999999999,3.6711000000238414,3.7638000000118836]",,,,,,5 × 7 =,35,0,26,26,26,1,,,,,,,,,,,,,,,,,,,,,,,,,,,,,,,,,,,,,,,,,,,,,,,,,,,,,,,,,,,,,,,,,,,,,,,,,,,,,,,,,,,,,,,,,,,,,,,,,,,,,,,,,,,,,,,,,,,,,,,,,,,,,,,,,,,,,,,,,,,,
,191352558881,BCA,24/04/2001,001,2023-04-17_14h58.07.516,OS3_Mult_verification,2022.2.4,MacIntel,60.0024001,,,,,,,,,,,,,,,,,,36,4.6539,1,"[""3"",""6"",""return""]","[3.816500000000019,3.8520999999940386,4.369900000005941]",,,,,,4 × 9 =,36,0,27,27,27,1,,,,,,,,,,,,,,,,,,,,,,,,,,,,,,,,,,,,,,,,,,,,,,,,,,,,,,,,,,,,,,,,,,,,,,,,,,,,,,,,,,,,,,,,,,,,,,,,,,,,,,,,,,,,,,,,,,,,,,,,,,,,,,,,,,,,,,,,,,,,
,191352558881,BCA,24/04/2001,001,2023-04-17_14h58.07.516,OS3_Mult_verification,2022.2.4,MacIntel,60.0024001,,,,,,,,,,,,,,,,,,48,1.9855,1,"[""4"",""8"",""return""]","[1.3823000000119237,1.4655999999940832,1.698500000000024]",,,,,,8 × 6 =,48,0,28,28,28,1,,,,,,,,,,,,,,,,,,,,,,,,,,,,,,,,,,,,,,,,,,,,,,,,,,,,,,,,,,,,,,,,,,,,,,,,,,,,,,,,,,,,,,,,,,,,,,,,,,,,,,,,,,,,,,,,,,,,,,,,,,,,,,,,,,,,,,,,,,,,
,191352558881,BCA,24/04/2001,001,2023-04-17_14h58.07.516,OS3_Mult_verification,2022.2.4,MacIntel,60.0024001,,,,,,,,,,,,,,,,,,63,2.9326,1,"[""6"",""3"",""return""]","[2.3028000000119278,2.473699999988071,2.637699999988115]",,,,,,9 × 7 =,63,0,29,29,29,1,,,,,,,,,,,,,,,,,,,,,,,,,,,,,,,,,,,,,,,,,,,,,,,,,,,,,,,,,,,,,,,,,,,,,,,,,,,,,,,,,,,,,,,,,,,,,,,,,,,,,,,,,,,,,,,,,,,,,,,,,,,,,,,,,,,,,,,,,,,,
,191352558881,BCA,24/04/2001,001,2023-04-17_14h58.07.516,OS3_Mult_verification,2022.2.4,MacIntel,60.0024001,,,,,,,,,,,,,,,,,,12,1.4818,1,"[""1"",""2"",""return""]","[0.8891999999880795,0.984699999988095,1.1990000000000123]",,,,,,4 × 3 =,12,0,30,30,30,1,,,,,,,,,,,,,,,,,,,,,,,,,,,,,,,,,,,,,,,,,,,,,,,,,,,,,,,,,,,,,,,,,,,,,,,,,,,,,,,,,,,,,,,,,,,,,,,,,,,,,,,,,,,,,,,,,,,,,,,,,,,,,,,,,,,,,,,,,,,,
,191352558881,BCA,24/04/2001,001,2023-04-17_14h58.07.516,OS3_Mult_verification,2022.2.4,MacIntel,60.0024001,,,,,,,,,,,,,,,,,,25,2.4669,1,"[""2"",""5"",""return""]","[1.8164999999999623,1.9229000000059386,2.1677000000178737]",,,,,,5 × 5 =,25,0,31,31,31,1,,,,,,,,,,,,,,,,,,,,,,,,,,,,,,,,,,,,,,,,,,,,,,,,,,,,,,,,,,,,,,,,,,,,,,,,,,,,,,,,,,,,,,,,,,,,,,,,,,,,,,,,,,,,,,,,,,,,,,,,,,,,,,,,,,,,,,,,,,,,
,191352558881,BCA,24/04/2001,001,2023-04-17_14h58.07.516,OS3_Mult_verification,2022.2.4,MacIntel,60.0024001,,,,,,,,,,,,,,,,,,6,2.0308,1,"[""6"",""return""]","[1.5812000000178728,1.7503000000119187]",,,,,,3 × 2 =,6,0,32,32,32,1,,,,,,,,,,,,,,,,,,,,,,,,,,,,,,,,,,,,,,,,,,,,,,,,,,,,,,,,,,,,,,,,,,,,,,,,,,,,,,,,,,,,,,,,,,,,,,,,,,,,,,,,,,,,,,,,,,,,,,,,,,,,,,,,,,,,,,,,,,,,
,191352558881,BCA,24/04/2001,001,2023-04-17_14h58.07.516,OS3_Mult_verification,2022.2.4,MacIntel,60.0024001,,,,,,,,,,,,,,,,,,20,1.5325,1,"[""2"",""0"",""return""]","[0.9634000000059473,1.0356999999880259,1.2489999999999668]",,,,,,5 × 4 =,20,0,33,33,33,1,,,,,,,,,,,,,,,,,,,,,,,,,,,,,,,,,,,,,,,,,,,,,,,,,,,,,,,,,,,,,,,,,,,,,,,,,,,,,,,,,,,,,,,,,,,,,,,,,,,,,,,,,,,,,,,,,,,,,,,,,,,,,,,,,,,,,,,,,,,,
,191352558881,BCA,24/04/2001,001,2023-04-17_14h58.07.516,OS3_Mult_verification,2022.2.4,MacIntel,60.0024001,,,,,,,,,,,,,,,,,,8,1.3346,1,"[""8"",""return""]","[0.8337000000178705,1.03359999999401]",,,,,,4 × 2 =,8,0,34,34,34,1,,,,,,,,,,,,,,,,,,,,,,,,,,,,,,,,,,,,,,,,,,,,,,,,,,,,,,,,,,,,,,,,,,,,,,,,,,,,,,,,,,,,,,,,,,,,,,,,,,,,,,,,,,,,,,,,,,,,,,,,,,,,,,,,,,,,,,,,,,,,
,191352558881,BCA,24/04/2001,001,2023-04-17_14h58.07.516,OS3_Mult_verification,2022.2.4,MacIntel,60.0024001,,,,,,,,,,,,,,,,,,12,1.3799,1,"[""1"",""2"",""return""]","[0.8332000000178823,0.9312000000178386,1.0807000000178846]",,,,,,2 × 6 =,12,0,35,35,35,1,,,,,,,,,,,,,,,,,,,,,,,,,,,,,,,,,,,,,,,,,,,,,,,,,,,,,,,,,,,,,,,,,,,,,,,,,,,,,,,,,,,,,,,,,,,,,,,,,,,,,,,,,,,,,,,,,,,,,,,,,,,,,,,,,,,,,,,,,,,,
,191352558881,BCA,24/04/2001,001,2023-04-17_14h58.07.516,OS3_Mult_verification,2022.2.4,MacIntel,60.0024001,,,,,,,,,,,,,,,,,,15,1.6989,1,"[""1"",""5"",""return""]","[1.1164000000059673,1.1950999999940564,1.3987999999820886]",,,,,,3 × 5 =,15,0,36,36,36,1,,,,,,,,,,,,,,,,,,,,,,,,,,,,,,,,,,,,,,,,,,,,,,,,,,,,,,,,,,,,,,,,,,,,,,,,,,,,,,,,,,,,,,,,,,,,,,,,,,,,,,,,,,,,,,,,,,,,,,,,,,,,,,,,,,,,,,,,,,,,
,191352558881,BCA,24/04/2001,001,2023-04-17_14h58.07.516,OS3_Mult_verification,2022.2.4,MacIntel,60.0024001,,,,,,,,,,,,,,,,,,18,1.368,1,"[""1"",""8"",""return""]","[0.7864999999999895,0.8666999999880431,1.089099999994005]",,,,,,6 × 3 =,18,0,37,37,37,1,,,,,,,,,,,,,,,,,,,,,,,,,,,,,,,,,,,,,,,,,,,,,,,,,,,,,,,,,,,,,,,,,,,,,,,,,,,,,,,,,,,,,,,,,,,,,,,,,,,,,,,,,,,,,,,,,,,,,,,,,,,,,,,,,,,,,,,,,,,,
,191352558881,BCA,24/04/2001,001,2023-04-17_14h58.07.516,OS3_Mult_verification,2022.2.4,MacIntel,60.0024001,,,,,,,,,,,,,,,,,,10,1.3804,1,"[""1"",""0"",""return""]","[0.7175000000000296,0.8056000000238441,1.0837000000178705]",,,,,,2 × 5 =,10,0,38,38,38,1,,,,,,,,,,,,,,,,,,,,,,,,,,,,,,,,,,,,,,,,,,,,,,,,,,,,,,,,,,,,,,,,,,,,,,,,,,,,,,,,,,,,,,,,,,,,,,,,,,,,,,,,,,,,,,,,,,,,,,,,,,,,,,,,,,,,,,,,,,,,
,191352558881,BCA,24/04/2001,001,2023-04-17_14h58.07.516,OS3_Mult_verification,2022.2.4,MacIntel,60.0024001,,,,,,,,,,,,,,,,,,,4.4499,0,,,,,,,,4 × 8 =,32,0,39,39,39,1,,,,,,,,,,,,,,,,,,,,,,,,,,,,,,,,,,,,,,,,,,,,,,,,,,,,,,,,,,,,,,,,,,,,,,,,,,,,,,,,,,,,,,,,,,,,,,,,,,,,,,,,,,,,,,,,,,,,,,,,,,,,,,,,,,,,,,,,,,,,
,191352558881,BCA,24/04/2001,001,2023-04-17_14h58.07.516,OS3_Mult_verification,2022.2.4,MacIntel,60.0024001,,,,,,,,,,,,,,,,space,2.7167,,,,,,,,,,,,,,,,,,TRUE,2.798,0.003767361,-0.342747396,1,0,0,0,0,0,0,1,practice trial,,3,3,,,,,,,,,,,,,,,,,,,,,,,,,,,,,,,,,,,,,,,,,,,,,,,,,,,,,,,,,,,,,,,,,,,,,,,,,,,,,,,,,,,,,,,,,,,,,,,,,,,,,,,,,,,,,,,,,,,,,,,,,,,,
,191352558881,BCA,24/04/2001,001,2023-04-17_14h58.07.516,OS3_Mult_verification,2022.2.4,MacIntel,60.0024001,,,,,,,,,,,,,,,,,,,,,,,,,,,,,,,,,,,TRUE,2.1511,-0.049084201,-0.384609375,1,0,0,0,1,1,2,1,practice trial,,3,3,,,,,,,,,,,,,,,,,,,,,,,,,,,,,,,,,,,,,,,,,,,,,,,,,,,,,,,,,,,,,,,,,,,,,,,,,,,,,,,,,,,,,,,,,,,,,,,,,,,,,,,,,,,,,,,,,,,,,,,,,,,,
,191352558881,BCA,24/04/2001,001,2023-04-17_14h58.07.516,OS3_Mult_verification,2022.2.4,MacIntel,60.0024001,,,,,,,,,,,,,,,,,,,,,,,,,,,,,,,,,,,TRUE,2.0515,-0.029492187,-0.33859375,1,0,0,0,2,2,1,1,practice trial,,3,3,,,,,,,,,,,,,,,,,,,,,,,,,,,,,,,,,,,,,,,,,,,,,,,,,,,,,,,,,,,,,,,,,,,,,,,,,,,,,,,,,,,,,,,,,,,,,,,,,,,,,,,,,,,,,,,,,,,,,,,,,,,,
,191352558881,BCA,24/04/2001,001,2023-04-17_14h58.07.516,OS3_Mult_verification,2022.2.4,MacIntel,60.0024001,,,,,,,,,,,,,,,,,,,,,,,,,,,,,,,,,,,TRUE,2.831,-0.051918403,-0.359670139,1,0,0,,,,,,Trial #1,,2,2,0,0,0,0,1,2,,,,,,,,,,,,,,,,,,,,,,,,,,,,,,,,,,,,,,,,,,,,,,,,,,,,,,,,,,,,,,,,,,,,,,,,,,,,,,,,,,,,,,,,,,,,,,,,,,,,,,,,,,,,,,,,,,,,,,
,191352558881,BCA,24/04/2001,001,2023-04-17_14h58.07.516,OS3_Mult_verification,2022.2.4,MacIntel,60.0024001,,,,,,,,,,,,,,,,,,,,,,,,,,,,,,,,,,,TRUE,1.6496,-0.030247396,-0.345264757,1,0,0,,,,,,Trial #1,,2,2,0,1,1,1,1,2,,,,,,,,,,,,,,,,,,,,,,,,,,,,,,,,,,,,,,,,,,,,,,,,,,,,,,,,,,,,,,,,,,,,,,,,,,,,,,,,,,,,,,,,,,,,,,,,,,,,,,,,,,,,,,,,,,,,,,
,191352558881,BCA,24/04/2001,001,2023-04-17_14h58.07.516,OS3_Mult_verification,2022.2.4,MacIntel,60.0024001,,,,,,,,,,,,,,,,,,,,,,,,,,,,,,,,,,,TRUE,1.481,-0.043663194,-0.350907118,1,0,0,,,,,,Trial #1,,2,2,0,2,2,2,1,2,,,,,,,,,,,,,,,,,,,,,,,,,,,,,,,,,,,,,,,,,,,,,,,,,,,,,,,,,,,,,,,,,,,,,,,,,,,,,,,,,,,,,,,,,,,,,,,,,,,,,,,,,,,,,,,,,,,,,,
,191352558881,BCA,24/04/2001,001,2023-04-17_14h58.07.516,OS3_Mult_verification,2022.2.4,MacIntel,60.0024001,,,,,,,,,,,,,,,,,,,,,,,,,,,,,,,,,,,TRUE,2.263,0.014483507,-0.328025174,1,0,0,,,,,,Trial #2,,3,3,0,0,0,0,1,3,,,,,,,,,,,,,,,,,,,,,,,,,,,,,,,,,,,,,,,,,,,,,,,,,,,,,,,,,,,,,,,,,,,,,,,,,,,,,,,,,,,,,,,,,,,,,,,,,,,,,,,,,,,,,,,,,,,,,,
,191352558881,BCA,24/04/2001,001,2023-04-17_14h58.07.516,OS3_Mult_verification,2022.2.4,MacIntel,60.0024001,,,,,,,,,,,,,,,,,,,,,,,,,,,,,,,,,,,TRUE,1.6997,-0.04922309,-0.327313368,1,0,0,,,,,,Trial #2,,3,3,0,1,1,1,1,3,,,,,,,,,,,,,,,,,,,,,,,,,,,,,,,,,,,,,,,,,,,,,,,,,,,,,,,,,,,,,,,,,,,,,,,,,,,,,,,,,,,,,,,,,,,,,,,,,,,,,,,,,,,,,,,,,,,,,,
,191352558881,BCA,24/04/2001,001,2023-04-17_14h58.07.516,OS3_Mult_verification,2022.2.4,MacIntel,60.0024001,,,,,,,,,,,,,,,,,,,,,,,,,,,,,,,,,,,TRUE,1.7849,-0.069292535,-0.3496875,1,0,0,,,,,,Trial #2,,3,3,0,2,2,2,1,3,,,,,,,,,,,,,,,,,,,,,,,,,,,,,,,,,,,,,,,,,,,,,,,,,,,,,,,,,,,,,,,,,,,,,,,,,,,,,,,,,,,,,,,,,,,,,,,,,,,,,,,,,,,,,,,,,,,,,,
,191352558881,BCA,24/04/2001,001,2023-04-17_14h58.07.516,OS3_Mult_verification,2022.2.4,MacIntel,60.0024001,,,,,,,,,,,,,,,,,,,,,,,,,,,,,,,,,,,TRUE,2.0676,0.022903646,-0.33015625,1,0,0,,,,,,Trial #3,,3,3,0,0,0,0,1,4,,,,,,,,,,,,,,,,,,,,,,,,,,,,,,,,,,,,,,,,,,,,,,,,,,,,,,,,,,,,,,,,,,,,,,,,,,,,,,,,,,,,,,,,,,,,,,,,,,,,,,,,,,,,,,,,,,,,,,
,191352558881,BCA,24/04/2001,001,2023-04-17_14h58.07.516,OS3_Mult_verification,2022.2.4,MacIntel,60.0024001,,,,,,,,,,,,,,,,,,,,,,,,,,,,,,,,,,,TRUE,2.0507,-0.025290799,-0.333059896,1,0,0,,,,,,Trial #3,,3,3,0,1,1,1,1,4,,,,,,,,,,,,,,,,,,,,,,,,,,,,,,,,,,,,,,,,,,,,,,,,,,,,,,,,,,,,,,,,,,,,,,,,,,,,,,,,,,,,,,,,,,,,,,,,,,,,,,,,,,,,,,,,,,,,,,
,191352558881,BCA,24/04/2001,001,2023-04-17_14h58.07.516,OS3_Mult_verification,2022.2.4,MacIntel,60.0024001,,,,,,,,,,,,,,,,,,,,,,,,,,,,,,,,,,,TRUE,2.2655,-0.029631076,-0.357322049,1,0,0,,,,,,Trial #3,,3,3,0,2,2,2,1,4,,,,,,,,,,,,,,,,,,,,,,,,,,,,,,,,,,,,,,,,,,,,,,,,,,,,,,,,,,,,,,,,,,,,,,,,,,,,,,,,,,,,,,,,,,,,,,,,,,,,,,,,,,,,,,,,,,,,,,
,191352558881,BCA,24/04/2001,001,2023-04-17_14h58.07.516,OS3_Mult_verification,2022.2.4,MacIntel,60.0024001,,,,,,,,,,,,,,,,,,,,,,,,,,,,,,,,,,,TRUE,2.4167,-0.03844184,-0.337530382,1,0,0,,,,,,Trial #4,,4,4,0,0,0,0,1,5,,,,,,,,,,,,,,,,,,,,,,,,,,,,,,,,,,,,,,,,,,,,,,,,,,,,,,,,,,,,,,,,,,,,,,,,,,,,,,,,,,,,,,,,,,,,,,,,,,,,,,,,,,,,,,,,,,,,,,
,191352558881,BCA,24/04/2001,001,2023-04-17_14h58.07.516,OS3_Mult_verification,2022.2.4,MacIntel,60.0024001,,,,,,,,,,,,,,,,,,,,,,,,,,,,,,,,,,,TRUE,2.566,-0.024422743,-0.333506944,1,0,0,,,,,,Trial #4,,4,4,0,1,1,1,1,5,,,,,,,,,,,,,,,,,,,,,,,,,,,,,,,,,,,,,,,,,,,,,,,,,,,,,,,,,,,,,,,,,,,,,,,,,,,,,,,,,,,,,,,,,,,,,,,,,,,,,,,,,,,,,,,,,,,,,,
,191352558881,BCA,24/04/2001,001,2023-04-17_14h58.07.516,OS3_Mult_verification,2022.2.4,MacIntel,60.0024001,,,,,,,,,,,,,,,,,,,,,,,,,,,,,,,,,,,TRUE,2.4674,-0.084943576,-0.335147569,1,0,0,,,,,,Trial #4,,4,4,0,2,2,2,1,5,,,,,,,,,,,,,,,,,,,,,,,,,,,,,,,,,,,,,,,,,,,,,,,,,,,,,,,,,,,,,,,,,,,,,,,,,,,,,,,,,,,,,,,,,,,,,,,,,,,,,,,,,,,,,,,,,,,,,,
,191352558881,BCA,24/04/2001,001,2023-04-17_14h58.07.516,OS3_Mult_verification,2022.2.4,MacIntel,60.0024001,,,,,,,,,,,,,,,,,,,,,,,,,,,,,,,,,,,TRUE,2.7024,0.000668403,-0.34375,1,0,0,,,,,,Trial #5,,4,4,0,0,0,0,1,6,,,,,,,,,,,,,,,,,,,,,,,,,,,,,,,,,,,,,,,,,,,,,,,,,,,,,,,,,,,,,,,,,,,,,,,,,,,,,,,,,,,,,,,,,,,,,,,,,,,,,,,,,,,,,,,,,,,,,,
,191352558881,BCA,24/04/2001,001,2023-04-17_14h58.07.516,OS3_Mult_verification,2022.2.4,MacIntel,60.0024001,,,,,,,,,,,,,,,,,,,,,,,,,,,,,,,,,,,TRUE,2.5317,0.080724826,-0.34015191,1,0,0,,,,,,Trial #5,,4,4,0,1,1,1,1,6,,,,,,,,,,,,,,,,,,,,,,,,,,,,,,,,,,,,,,,,,,,,,,,,,,,,,,,,,,,,,,,,,,,,,,,,,,,,,,,,,,,,,,,,,,,,,,,,,,,,,,,,,,,,,,,,,,,,,,
,191352558881,BCA,24/04/2001,001,2023-04-17_14h58.07.516,OS3_Mult_verification,2022.2.4,MacIntel,60.0024001,,,,,,,,,,,,,,,,,,,,,,,,,,,,,,,,,,,TRUE,2.6022,-0.098828125,-0.347022569,1,0,0,,,,,,Trial #5,,4,4,0,2,2,2,1,6,,,,,,,,,,,,,,,,,,,,,,,,,,,,,,,,,,,,,,,,,,,,,,,,,,,,,,,,,,,,,,,,,,,,,,,,,,,,,,,,,,,,,,,,,,,,,,,,,,,,,,,,,,,,,,,,,,,,,,
,191352558881,BCA,24/04/2001,001,2023-04-17_14h58.07.516,OS3_Mult_verification,2022.2.4,MacIntel,60.0024001,,,,,,,,,,,,,,,,,,,,,,,,,,,,,,,,,,,TRUE,3.3502,-0.03203559,-0.348884549,1,0,0,,,,,,Trial #6,,4,4,0,0,0,0,1,7,,,,,,,,,,,,,,,,,,,,,,,,,,,,,,,,,,,,,,,,,,,,,,,,,,,,,,,,,,,,,,,,,,,,,,,,,,,,,,,,,,,,,,,,,,,,,,,,,,,,,,,,,,,,,,,,,,,,,,
,191352558881,BCA,24/04/2001,001,2023-04-17_14h58.07.516,OS3_Mult_verification,2022.2.4,MacIntel,60.0024001,,,,,,,,,,,,,,,,,,,,,,,,,,,,,,,,,,,TRUE,4.0158,-0.066953125,-0.363706597,1,0,0,,,,,,Trial #6,,4,4,0,1,1,1,1,7,,,,,,,,,,,,,,,,,,,,,,,,,,,,,,,,,,,,,,,,,,,,,,,,,,,,,,,,,,,,,,,,,,,,,,,,,,,,,,,,,,,,,,,,,,,,,,,,,,,,,,,,,,,,,,,,,,,,,,
,191352558881,BCA,24/04/2001,001,2023-04-17_14h58.07.516,OS3_Mult_verification,2022.2.4,MacIntel,60.0024001,,,,,,,,,,,,,,,,,,,,,,,,,,,,,,,,,,,TRUE,3.965,-0.102517361,-0.312881944,1,0,0,,,,,,Trial #6,,4,4,0,2,2,2,1,7,,,,,,,,,,,,,,,,,,,,,,,,,,,,,,,,,,,,,,,,,,,,,,,,,,,,,,,,,,,,,,,,,,,,,,,,,,,,,,,,,,,,,,,,,,,,,,,,,,,,,,,,,,,,,,,,,,,,,,
,191352558881,BCA,24/04/2001,001,2023-04-17_14h58.07.516,OS3_Mult_verification,2022.2.4,MacIntel,60.0024001,,,,,,,,,,,,,,,,,,,,,,,,,,,,,,,,,,,TRUE,3.7508,0.013789062,-0.364448785,1,0,0,,,,,,Trial #7,,4,4,0,0,0,0,1,8,,,,,,,,,,,,,,,,,,,,,,,,,,,,,,,,,,,,,,,,,,,,,,,,,,,,,,,,,,,,,,,,,,,,,,,,,,,,,,,,,,,,,,,,,,,,,,,,,,,,,,,,,,,,,,,,,,,,,,
,191352558881,BCA,24/04/2001,001,2023-04-17_14h58.07.516,OS3_Mult_verification,2022.2.4,MacIntel,60.0024001,,,,,,,,,,,,,,,,,,,,,,,,,,,,,,,,,,,TRUE,3.5831,-0.076666667,-0.321631944,1,0,0,,,,,,Trial #7,,4,4,0,1,1,1,1,8,,,,,,,,,,,,,,,,,,,,,,,,,,,,,,,,,,,,,,,,,,,,,,,,,,,,,,,,,,,,,,,,,,,,,,,,,,,,,,,,,,,,,,,,,,,,,,,,,,,,,,,,,,,,,,,,,,,,,,
,191352558881,BCA,24/04/2001,001,2023-04-17_14h58.07.516,OS3_Mult_verification,2022.2.4,MacIntel,60.0024001,,,,,,,,,,,,,,,,,,,,,,,,,,,,,,,,,,,TRUE,4.2142,-0.027686632,-0.375256076,1,0,0,,,,,,Trial #7,,4,4,0,2,2,2,1,8,,,,,,,,,,,,,,,,,,,,,,,,,,,,,,,,,,,,,,,,,,,,,,,,,,,,,,,,,,,,,,,,,,,,,,,,,,,,,,,,,,,,,,,,,,,,,,,,,,,,,,,,,,,,,,,,,,,,,,
,191352558881,BCA,24/04/2001,001,2023-04-17_14h58.07.516,OS3_Mult_verification,2022.2.4,MacIntel,60.0024001,,,,,,,,,,,,,,,,,,,,,,,,,,,,,,,,,,,TRUE,4.1177,-0.017690972,-0.347799479,1,0,0,,,,,,Trial #8,,5,5,0,0,0,0,1,9,,,,,,,,,,,,,,,,,,,,,,,,,,,,,,,,,,,,,,,,,,,,,,,,,,,,,,,,,,,,,,,,,,,,,,,,,,,,,,,,,,,,,,,,,,,,,,,,,,,,,,,,,,,,,,,,,,,,,,
,191352558881,BCA,24/04/2001,001,2023-04-17_14h58.07.516,OS3_Mult_verification,2022.2.4,MacIntel,60.0024001,,,,,,,,,,,,,,,,,,,,,,,,,,,,,,,,,,,TRUE,4.9678,-0.03828559,-0.33608941,1,0,0,,,,,,Trial #8,,5,5,0,1,1,1,1,9,,,,,,,,,,,,,,,,,,,,,,,,,,,,,,,,,,,,,,,,,,,,,,,,,,,,,,,,,,,,,,,,,,,,,,,,,,,,,,,,,,,,,,,,,,,,,,,,,,,,,,,,,,,,,,,,,,,,,,
,191352558881,BCA,24/04/2001,001,2023-04-17_14h58.07.516,OS3_Mult_verification,2022.2.4,MacIntel,60.0024001,,,,,,,,,,,,,,,,,,,,,,,,,,,,,,,,,,,TRUE,3.8327,0.011080729,-0.388532986,1,0,0,,,,,,Trial #8,,5,5,0,2,2,2,1,9,,,,,,,,,,,,,,,,,,,,,,,,,,,,,,,,,,,,,,,,,,,,,,,,,,,,,,,,,,,,,,,,,,,,,,,,,,,,,,,,,,,,,,,,,,,,,,,,,,,,,,,,,,,,,,,,,,,,,,
,191352558881,BCA,24/04/2001,001,2023-04-17_14h58.07.516,OS3_Mult_verification,2022.2.4,MacIntel,60.0024001,,,,,,,,,,,,,,,,,,,,,,,,,,,,,,,,,,,TRUE,4.6179,-0.074461806,-0.325394965,1,0,0,,,,,,Trial #9,,5,5,0,0,0,0,1,10,,,,,,,,,,,,,,,,,,,,,,,,,,,,,,,,,,,,,,,,,,,,,,,,,,,,,,,,,,,,,,,,,,,,,,,,,,,,,,,,,,,,,,,,,,,,,,,,,,,,,,,,,,,,,,,,,,,,,,
,191352558881,BCA,24/04/2001,001,2023-04-17_14h58.07.516,OS3_Mult_verification,2022.2.4,MacIntel,60.0024001,,,,,,,,,,,,,,,,,,,,,,,,,,,,,,,,,,,TRUE,4.0696,0.058263889,-0.33250434,1,0,0,,,,,,Trial #9,,5,5,0,1,1,1,1,10,,,,,,,,,,,,,,,,,,,,,,,,,,,,,,,,,,,,,,,,,,,,,,,,,,,,,,,,,,,,,,,,,,,,,,,,,,,,,,,,,,,,,,,,,,,,,,,,,,,,,,,,,,,,,,,,,,,,,,
,191352558881,BCA,24/04/2001,001,2023-04-17_14h58.07.516,OS3_Mult_verification,2022.2.4,MacIntel,60.0024001,,,,,,,,,,,,,,,,,,,,,,,,,,,,,,,,,,,FALSE,5.317,0.06952691,-0.340512153,1,0,0,,,,,,Trial #9,,5,5,0,2,2,2,1,10,,,,,,,,,,,,,,,,,,,,,,,,,,,,,,,,,,,,,,,,,,,,,,,,,,,,,,,,,,,,,,,,,,,,,,,,,,,,,,,,,,,,,,,,,,,,,,,,,,,,,,,,,,,,,,,,,,,,,,
,191352558881,BCA,24/04/2001,001,2023-04-17_14h58.07.516,OS3_Mult_verification,2022.2.4,MacIntel,60.0024001,,,,,,,,,,,,,,,,,,,,,,,,,,,,,,,,,,,TRUE,4.6985,0.045872396,-0.347387153,1,0,0,,,,,,Trial #10,,5,5,0,0,0,0,1,11,,,,,,,,,,,,,,,,,,,,,,,,,,,,,,,,,,,,,,,,,,,,,,,,,,,,,,,,,,,,,,,,,,,,,,,,,,,,,,,,,,,,,,,,,,,,,,,,,,,,,,,,,,,,,,,,,,,,,,
,191352558881,BCA,24/04/2001,001,2023-04-17_14h58.07.516,OS3_Mult_verification,2022.2.4,MacIntel,60.0024001,,,,,,,,,,,,,,,,,,,,,,,,,,,,,,,,,,,TRUE,4.4835,-0.096631944,-0.317743056,1,0,0,,,,,,Trial #10,,5,5,0,1,1,1,1,11,,,,,,,,,,,,,,,,,,,,,,,,,,,,,,,,,,,,,,,,,,,,,,,,,,,,,,,,,,,,,,,,,,,,,,,,,,,,,,,,,,,,,,,,,,,,,,,,,,,,,,,,,,,,,,,,,,,,,,
,191352558881,BCA,24/04/2001,001,2023-04-17_14h58.07.516,OS3_Mult_verification,2022.2.4,MacIntel,60.0024001,,,,,,,,,,,,,,,,,,,,,,,,,,,,,,,,,,,FALSE,4.4837,-0.041167535,-0.372230903,1,0,0,,,,,,Trial #10,,5,5,0,2,2,2,1,11,,,,,,,,,,,,,,,,,,,,,,,,,,,,,,,,,,,,,,,,,,,,,,,,,,,,,,,,,,,,,,,,,,,,,,,,,,,,,,,,,,,,,,,,,,,,,,,,,,,,,,,,,,,,,,,,,,,,,,
,191352558881,BCA,24/04/2001,001,2023-04-17_14h58.07.516,OS3_Mult_verification,2022.2.4,MacIntel,60.0024001,,,,,,,,,,,,,,,,,,,,,,,,,,,,,,,,,,,FALSE,4.4188,0.03969184,-0.337061632,1,0,0,,,,,,Trial #11,,5,5,0,0,0,0,1,12,,,,,,,,,,,,,,,,,,,,,,,,,,,,,,,,,,,,,,,,,,,,,,,,,,,,,,,,,,,,,,,,,,,,,,,,,,,,,,,,,,,,,,,,,,,,,,,,,,,,,,,,,,,,,,,,,,,,,,
,191352558881,BCA,24/04/2001,001,2023-04-17_14h58.07.516,OS3_Mult_verification,2022.2.4,MacIntel,60.0024001,,,,,,,,,,,,,,,,,,,,,,,,,,,,,,,,,,,TRUE,4.9967,-0.085212674,-0.327122396,1,0,0,,,,,,Trial #11,,5,5,0,1,1,1,1,12,,,,,,,,,,,,,,,,,,,,,,,,,,,,,,,,,,,,,,,,,,,,,,,,,,,,,,,,,,,,,,,,,,,,,,,,,,,,,,,,,,,,,,,,,,,,,,,,,,,,,,,,,,,,,,,,,,,,,,
,191352558881,BCA,24/04/2001,001,2023-04-17_14h58.07.516,OS3_Mult_verification,2022.2.4,MacIntel,60.0024001,,,,,,,,,,,,,,,,,,,,,,,,,,,,,,,,,,,FALSE,6.7832,-0.021223958,-0.335859375,1,0,0,,,,,,Trial #11,,5,5,0,2,2,2,1,12,,,,,,,,,,,,,,,,,,,,,,,,,,,,,,,,,,,,,,,,,,,,,,,,,,,,,,,,,,,,,,,,,,,,,,,,,,,,,,,,,,,,,,,,,,,,,,,,,,,,,,,,,,,,,,,,,,,,,,
,191352558881,BCA,24/04/2001,001,2023-04-17_14h58.07.516,OS3_Mult_verification,2022.2.4,MacIntel,60.0024001,,,,,,,,,,,,,,,,,,,,,,,,,,,,,,,,,,,,,,,,,,,,,,,,,,,,,,,,,0,0,0,0,1,,,,,,,,,,,,,,,,,,,,,,,,,,,,,,,,,,,,,,,,,,,,,,,,,,,,,,,,,,,,,,,,,,,,,,,,,,,,,,,,,,,,,,,,,,,,,,,,,,,,,,,,,,,,,,,,,
,191352558881,BCA,24/04/2001,001,2023-04-17_14h58.07.516,OS3_Mult_verification,2022.2.4,MacIntel,60.0024001,,,,,,,,,,,,,,,,,,,,,,,,,,,,,,,,,,,,,,,,,,,,,,,,,,,,,,,,,,,,,,0,0,0,0,1,0,1,0,,,,,,,,,,,,,,,,,,,,,,,,,,,,,,,,,,,,,,,,,,,,,,,,,,,,,,,,,,,,,,,,,,,,,,,,,,,,,,,,,,,,,,,,,,,,,,,,,,,,,,,,,
,191352558881,BCA,24/04/2001,001,2023-04-17_14h58.07.516,OS3_Mult_verification,2022.2.4,MacIntel,60.0024001,,,,,,,,,,,,,,,,space,1.1158,,,,,,,,,,,,,,,,,,,,,,,,,,,,,,,,,,,,,,,,,,,,,,,,,,,,,space,4.5685,123,1.5082,1,"[""1"",""2"",""3"",""return""]","[0.6096000000238746,0.7287000000178523,0.7937000000179069,1.4745000000000346]",0,0,0,0,1,3,123,Audio/123.mp3,practice,,,,,,,,,,,,,,,,,,,,,,,,,,,,,,,,,,,,,,,,,,,,,,,,,,,,,,,,,,,,,,,,,,,,,,,,,,,,,,,,,,,,,,,,,
,191352558881,BCA,24/04/2001,001,2023-04-17_14h58.07.516,OS3_Mult_verification,2022.2.4,MacIntel,60.0024001,,,,,,,,,,,,,,,,,,,,,,,,,,,,,,,,,,,,,,,,,,,,,,,,,,,,,,,,,,,,,,,,,,,,,,,,321,1.364,1,"[""3"",""2"",""1"",""return""]","[0.6150999999940723,0.6686999999881209,0.7501999999881264,1.3355000000000246]",0,1,1,1,1,3,321,Audio/321.mp3,practice,,,,,,,,,,,,,,,,,,,,,,,,,,,,,,,,,,,,,,,,,,,,,,,,,,,,,,,,,,,,,,,,,,,,,,,,,,,,,,,,,,,,,,,,,
,191352558881,BCA,24/04/2001,001,2023-04-17_14h58.07.516,OS3_Mult_verification,2022.2.4,MacIntel,60.0024001,,,,,,,,,,,,,,,,,,,,,,,,,,,,,,,,,,,,,,,,,,,,,,,,,,,,,,,,,,,,,,,,,,,,,,,,911,1.2334,1,"[""9"",""1"",""1"",""return""]","[0.4980999999941105,0.6639000000059241,0.8196999999880745,1.19969999998807]",0,2,2,2,1,3,911,Audio/911.mp3,practice,,,,,,,,,,,,,,,,,,,,,,,,,,,,,,,,,,,,,,,,,,,,,,,,,,,,,,,,,,,,,,,,,,,,,,,,,,,,,,,,,,,,,,,,,
,191352558881,BCA,24/04/2001,001,2023-04-17_14h58.07.516,OS3_Mult_verification,2022.2.4,MacIntel,60.0024001,,,,,,,,,,,,,,,,,,,,,,,,,,,,,,,,,,,,,,,,,,,,,,,,,,,,,,,,,,,,,,,,,,,,,,,,97,1.2972,1,"[""9"",""7"",""return""]","[0.7992999999821677,0.9517999999821996,1.2666999999880773]",,,,,,2,97,Audio/97.mp3,WAIS,0,0,0,0,1,,,,,,,,,,,,,,,,,,,,,,,,,,,,,,,,,,,,,,,,,,,,,,,,,,,,,,,,,,,,,,,,,,,,,,,,,,,,,,,,,,,,
,191352558881,BCA,24/04/2001,001,2023-04-17_14h58.07.516,OS3_Mult_verification,2022.2.4,MacIntel,60.0024001,,,,,,,,,,,,,,,,,,,,,,,,,,,,,,,,,,,,,,,,,,,,,,,,,,,,,,,,,,,,,,,,,,,,,,,,63,1.0626,1,"[""6"",""3"",""return""]","[0.48500000000001364,0.533300000011991,1.0315999999940004]",,,,,,2,63,Audio/63.mp3,WAIS,0,1,1,1,1,,,,,,,,,,,,,,,,,,,,,,,,,,,,,,,,,,,,,,,,,,,,,,,,,,,,,,,,,,,,,,,,,,,,,,,,,,,,,,,,,,,,
,191352558881,BCA,24/04/2001,001,2023-04-17_14h58.07.516,OS3_Mult_verification,2022.2.4,MacIntel,60.0024001,,,,,,,,,,,,,,,,,,,,,,,,,,,,,,,,,,,,,,,,,,,,,,,,,,,,,,,,,,,,,,,,,,,,,,,,,,,,,,,,,,,,,,,,,,,0,0,0,0,1,digitSpan_stim/twoWAIS.xlsx,,,,,,,,,,,,,,,,,,,,,,,,,,,,,,,,,,,,,,,,,,,,,,,,,,,,,,,,,,,,,,,,,,,,,,,,,,,,,,
,191352558881,BCA,24/04/2001,001,2023-04-17_14h58.07.516,OS3_Mult_verification,2022.2.4,MacIntel,60.0024001,,,,,,,,,,,,,,,,,,,,,,,,,,,,,,,,,,,,,,,,,,,,,,,,,,,,,,,,,,,,,,,,,,,,,,,,582,1.1179,1,"[""5"",""8"",""2"",""return""]","[0.4370000000000118,0.6920000000000073,0.8863000000118291,1.0849000000059732]",,,,,,3,582,Audio/582.mp3,WAIS,0,0,0,0,1,,,,,,,,,,,,,,,,,,,,,,,,,,,,,,,,,,,,,,,,,,,,,,,,,,,,,,,,,,,,,,,,,,,,,,,,,,,,,,,,,,,,
,191352558881,BCA,24/04/2001,001,2023-04-17_14h58.07.516,OS3_Mult_verification,2022.2.4,MacIntel,60.0024001,,,,,,,,,,,,,,,,,,,,,,,,,,,,,,,,,,,,,,,,,,,,,,,,,,,,,,,,,,,,,,,,,,,,,,,,694,0.9343,1,"[""6"",""9"",""4"",""return""]","[0.5342999999820677,0.6501999999879899,0.7332999999821368,0.90199999999993]",,,,,,3,694,Audio/694.mp3,WAIS,0,1,1,1,1,,,,,,,,,,,,,,,,,,,,,,,,,,,,,,,,,,,,,,,,,,,,,,,,,,,,,,,,,,,,,,,,,,,,,,,,,,,,,,,,,,,,
,191352558881,BCA,24/04/2001,001,2023-04-17_14h58.07.516,OS3_Mult_verification,2022.2.4,MacIntel,60.0024001,,,,,,,,,,,,,,,,,,,,,,,,,,,,,,,,,,,,,,,,,,,,,,,,,,,,,,,,,,,,,,,,,,,,,,,,,,,,,,,,,,,,,,,,,,,0,1,1,1,1,digitSpan_stim/threeWAIS.xlsx,,,,,,,,,,,,,,,,,,,,,,,,,,,,,,,,,,,,,,,,,,,,,,,,,,,,,,,,,,,,,,,,,,,,,,,,,,,,,,
,191352558881,BCA,24/04/2001,001,2023-04-17_14h58.07.516,OS3_Mult_verification,2022.2.4,MacIntel,60.0024001,,,,,,,,,,,,,,,,,,,,,,,,,,,,,,,,,,,,,,,,,,,,,,,,,,,,,,,,,,,,,,,,,,,,,,,,7286,1.5696,1,"[""7"",""2"",""8"",""6"",""return""]","[0.5196000000238428,0.673100000023851,0.9857000000179141,1.1363000000119428,1.5356000000239192]",,,,,,4,7286,Audio/7286.mp3,WAIS,0,0,0,0,1,,,,,,,,,,,,,,,,,,,,,,,,,,,,,,,,,,,,,,,,,,,,,,,,,,,,,,,,,,,,,,,,,,,,,,,,,,,,,,,,,,,,
,191352558881,BCA,24/04/2001,001,2023-04-17_14h58.07.516,OS3_Mult_verification,2022.2.4,MacIntel,60.0024001,,,,,,,,,,,,,,,,,,,,,,,,,,,,,,,,,,,,,,,,,,,,,,,,,,,,,,,,,,,,,,,,,,,,,,,,6439,1.4982,1,"[""6"",""4"",""3"",""9"",""return""]","[0.6987000000178796,0.7507000000179005,0.8312000000179296,1.0335000000000036,1.4649000000059686]",,,,,,4,6439,Audio/6439.mp3,WAIS,0,1,1,1,1,,,,,,,,,,,,,,,,,,,,,,,,,,,,,,,,,,,,,,,,,,,,,,,,,,,,,,,,,,,,,,,,,,,,,,,,,,,,,,,,,,,,
,191352558881,BCA,24/04/2001,001,2023-04-17_14h58.07.516,OS3_Mult_verification,2022.2.4,MacIntel,60.0024001,,,,,,,,,,,,,,,,,,,,,,,,,,,,,,,,,,,,,,,,,,,,,,,,,,,,,,,,,,,,,,,,,,,,,,,,,,,,,,,,,,,,,,,,,,,0,2,2,2,1,digitSpan_stim/fourWAIS.xlsx,,,,,,,,,,,,,,,,,,,,,,,,,,,,,,,,,,,,,,,,,,,,,,,,,,,,,,,,,,,,,,,,,,,,,,,,,,,,,,
,191352558881,BCA,24/04/2001,001,2023-04-17_14h58.07.516,OS3_Mult_verification,2022.2.4,MacIntel,60.0024001,,,,,,,,,,,,,,,,,,,,,,,,,,,,,,,,,,,,,,,,,,,,,,,,,,,,,,,,,,,,,,,,,,,,,,,,42731,2.0817,1,"[""4"",""2"",""7"",""3"",""1"",""return""]","[0.7158000000119955,0.9660000000000082,1.2645999999940614,1.4658000000119955,1.5497000000178787,2.0490999999940414]",,,,,,5,42731,Audio/42731.mp3,WAIS,0,0,0,0,1,,,,,,,,,,,,,,,,,,,,,,,,,,,,,,,,,,,,,,,,,,,,,,,,,,,,,,,,,,,,,,,,,,,,,,,,,,,,,,,,,,,,
,191352558881,BCA,24/04/2001,001,2023-04-17_14h58.07.516,OS3_Mult_verification,2022.2.4,MacIntel,60.0024001,,,,,,,,,,,,,,,,,,,,,,,,,,,,,,,,,,,,,,,,,,,,,,,,,,,,,,,,,,,,,,,,,,,,,,,,75836,3.2501,1,"[""7"",""5"",""8"",""3"",""6"",""return""]","[1.231599999994046,1.6515999999941187,1.999200000017936,2.384700000017915,2.815700000017955,3.2137000000179796]",,,,,,5,75836,Audio/75836.mp3,WAIS,0,1,1,1,1,,,,,,,,,,,,,,,,,,,,,,,,,,,,,,,,,,,,,,,,,,,,,,,,,,,,,,,,,,,,,,,,,,,,,,,,,,,,,,,,,,,,
,191352558881,BCA,24/04/2001,001,2023-04-17_14h58.07.516,OS3_Mult_verification,2022.2.4,MacIntel,60.0024001,,,,,,,,,,,,,,,,,,,,,,,,,,,,,,,,,,,,,,,,,,,,,,,,,,,,,,,,,,,,,,,,,,,,,,,,,,,,,,,,,,,,,,,,,,,0,3,3,3,1,digitSpan_stim/fiveWAIS.xlsx,,,,,,,,,,,,,,,,,,,,,,,,,,,,,,,,,,,,,,,,,,,,,,,,,,,,,,,,,,,,,,,,,,,,,,,,,,,,,,
,191352558881,BCA,24/04/2001,001,2023-04-17_14h58.07.516,OS3_Mult_verification,2022.2.4,MacIntel,60.0024001,,,,,,,,,,,,,,,,,,,,,,,,,,,,,,,,,,,,,,,,,,,,,,,,,,,,,,,,,,,,,,,,,,,,,,,,392487,3.6649,1,"[""3"",""9"",""2"",""4"",""8"",""7"",""return""]","[1.5315999999940004,1.823400000005904,2.133000000000038,2.6325999999939995,2.8644000000059577,3.0518000000118946,3.6343000000118764]",,,,,,6,392487,Audio/392487.mp3,WAIS,0,0,0,0,1,,,,,,,,,,,,,,,,,,,,,,,,,,,,,,,,,,,,,,,,,,,,,,,,,,,,,,,,,,,,,,,,,,,,,,,,,,,,,,,,,,,,
,191352558881,BCA,24/04/2001,001,2023-04-17_14h58.07.516,OS3_Mult_verification,2022.2.4,MacIntel,60.0024001,,,,,,,,,,,,,,,,,,,,,,,,,,,,,,,,,,,,,,,,,,,,,,,,,,,,,,,,,,,,,,,,,,,,,,,,649173,4.2337,0,"[""6"",""4"",""9"",""1"",""7"",""3"",""return""]","[1.7164999999999964,2.0818999999761445,2.566799999982095,3.1667999999821177,3.5516999999880454,3.849099999993996,4.199199999988082]",,,,,,6,619473,Audio/619473.mp3,WAIS,0,1,1,1,1,,,,,,,,,,,,,,,,,,,,,,,,,,,,,,,,,,,,,,,,,,,,,,,,,,,,,,,,,,,,,,,,,,,,,,,,,,,,,,,,,,,,
,191352558881,BCA,24/04/2001,001,2023-04-17_14h58.07.516,OS3_Mult_verification,2022.2.4,MacIntel,60.0024001,,,,,,,,,,,,,,,,,,,,,,,,,,,,,,,,,,,,,,,,,,,,,,,,,,,,,,,,,,,,,,,,,,,,,,,,,,,,,,,,,,,,,,,,,,,0,4,4,4,1,digitSpan_stim/sixWAIS.xlsx,,,,,,,,,,,,,,,,,,,,,,,,,,,,,,,,,,,,,,,,,,,,,,,,,,,,,,,,,,,,,,,,,,,,,,,,,,,,,,
,191352558881,BCA,24/04/2001,001,2023-04-17_14h58.07.516,OS3_Mult_verification,2022.2.4,MacIntel,60.0024001,,,,,,,,,,,,,,,,,,,,,,,,,,,,,,,,,,,,,,,,,,,,,,,,,,,,,,,,,,,,,,,,,,,,,,,,6194728,4.0164,0,"[""6"",""1"",""9"",""4"",""7"",""2"",""8"",""return""]","[1.3166999999880318,1.615800000011859,2.0679000000059204,2.366999999999962,2.6999000000059823,3.0655999999939922,3.3000999999940177,3.986099999994053]",,,,,,7,6917428,Audio/6917428.mp3,WAIS,0,0,0,0,1,,,,,,,,,,,,,,,,,,,,,,,,,,,,,,,,,,,,,,,,,,,,,,,,,,,,,,,,,,,,,,,,,,,,,,,,,,,,,,,,,,,,
,191352558881,BCA,24/04/2001,001,2023-04-17_14h58.07.516,OS3_Mult_verification,2022.2.4,MacIntel,60.0024001,,,,,,,,,,,,,,,,,,,,,,,,,,,,,,,,,,,,,,,,,,,,,,,,,,,,,,,,,,,,,,,,,,,,,,,,4179386,5.7311,1,"[""4"",""1"",""7"",""9"",""3"",""8"",""6"",""return""]","[1.0045999999940705,1.3054999999999382,1.7868999999761854,2.08299999999997,5.099099999993996,5.2169999999999845,5.401499999999942,5.700699999988046]",,,,,,7,4179386,Audio/4179386.mp3,WAIS,0,1,1,1,1,,,,,,,,,,,,,,,,,,,,,,,,,,,,,,,,,,,,,,,,,,,,,,,,,,,,,,,,,,,,,,,,,,,,,,,,,,,,,,,,,,,,
,191352558881,BCA,24/04/2001,001,2023-04-17_14h58.07.516,OS3_Mult_verification,2022.2.4,MacIntel,60.0024001,,,,,,,,,,,,,,,,,,,,,,,,,,,,,,,,,,,,,,,,,,,,,,,,,,,,,,,,,,,,,,,,,,,,,,,,,,,,,,,,,,,,,,,,,,,0,5,5,5,1,digitSpan_stim/sevenWAIS.xlsx,,,,,,,,,,,,,,,,,,,,,,,,,,,,,,,,,,,,,,,,,,,,,,,,,,,,,,,,,,,,,,,,,,,,,,,,,,,,,,
,191352558881,BCA,24/04/2001,001,2023-04-17_14h58.07.516,OS3_Mult_verification,2022.2.4,MacIntel,60.0024001,,,,,,,,,,,,,,,,,,,,,,,,,,,,,,,,,,,,,,,,,,,,,,,,,,,,,,,,,,,,,,,,,,,,,,,,38291674,6.2998,0,"[""3"",""2"",""backspace"",""8"",""2"",""9"",""1"",""6"",""7"",""4"",""return""]","[0.8490999999939959,0.9524999999999864,1.447999999999979,1.7847000000178923,2.1838000000119564,2.5404000000060023,4.847800000011944,5.2349000000059505,5.582700000017894,5.900400000006016,6.264400000005935]",,,,,,8,38296174,Audio/38296174.mp3,WAIS,0,0,0,0,1,,,,,,,,,,,,,,,,,,,,,,,,,,,,,,,,,,,,,,,,,,,,,,,,,,,,,,,,,,,,,,,,,,,,,,,,,,,,,,,,,,,,
,191352558881,BCA,24/04/2001,001,2023-04-17_14h58.07.516,OS3_Mult_verification,2022.2.4,MacIntel,60.0024001,,,,,,,,,,,,,,,,,,,,,,,,,,,,,,,,,,,,,,,,,,,,,,,,,,,,,,,,,,,,,,,,,,,,,,,,589321467,7.4684,0,"[""5"",""8"",""9"",""3"",""2"",""1"",""6"",""backspace"",""4"",""6"",""7"",""return""]","[0.4763000000118609,0.8351000000237718,2.230200000017817,2.552000000000021,2.9189999999999827,4.134600000023852,5.069600000023797,5.755300000011857,5.9508000000118955,6.053700000017898,7.173400000005927,7.437300000011874]",,,,,,8,58132647,Audio/58132647.mp3,WAIS,0,1,1,1,1,,,,,,,,,,,,,,,,,,,,,,,,,,,,,,,,,,,,,,,,,,,,,,,,,,,,,,,,,,,,,,,,,,,,,,,,,,,,,,,,,,,,
,191352558881,BCA,24/04/2001,001,2023-04-17_14h58.07.516,OS3_Mult_verification,2022.2.4,MacIntel,60.0024001,,,,,,,,,,,,,,,,,,,,,,,,,,,,,,,,,,,,,,,,,,,,,,,,,,,,,,,,,,,,,,,,,,,,,,,,,,,,,,,,,,WAIS,,,,,,,,,,,,,,,0,0,0,1,1,digitSpan_stim/WAIS.xlsx,,,,,,,,,,,,,,,,,,,,,,,,,,,,,,,,,,,,,,,,,,,,,,,,,,,,,,,,,,,,,,,,,,,,,,,,
,191352558881,BCA,24/04/2001,001,2023-04-17_14h58.07.516,OS3_Mult_verification,2022.2.4,MacIntel,60.0024001,,,,,,,,,,,,,,,,,,,,,,,,,,,,,,,,,,,,,,,,,,,,,,,,,,,,,,,,,,,,,,,,,,,,,,,,46,1.2012,1,"[""4"",""6"",""return""]","[0.8001999999880809,0.8664999999999736,1.1689000000060332]",,,,,,2,46,Audio/46.mp3,EGNER,0,0,0,0,1,,,,,,,,,,,,,,,,,,,,,,,,,,,,,,,,,,,,,,,,,,,,,,,,,,,,,,,,,,,,,,,,,,,,,,,,,,,,,,,,,,,,
,191352558881,BCA,24/04/2001,001,2023-04-17_14h58.07.516,OS3_Mult_verification,2022.2.4,MacIntel,60.0024001,,,,,,,,,,,,,,,,,,,,,,,,,,,,,,,,,,,,,,,,,,,,,,,,,,,,,,,,,,,,,,,,,,,,,,,,82,0.615,1,"[""8"",""2"",""return""]","[0.36840000000597684,0.4615000000000009,0.5830999999940332]",,,,,,2,82,Audio/82.mp3,EGNER,0,1,1,1,1,,,,,,,,,,,,,,,,,,,,,,,,,,,,,,,,,,,,,,,,,,,,,,,,,,,,,,,,,,,,,,,,,,,,,,,,,,,,,,,,,,,,
,191352558881,BCA,24/04/2001,001,2023-04-17_14h58.07.516,OS3_Mult_verification,2022.2.4,MacIntel,60.0024001,,,,,,,,,,,,,,,,,,,,,,,,,,,,,,,,,,,,,,,,,,,,,,,,,,,,,,,,,,,,,,,,,,,,,,,,,,,,,,,,,,,,,,,,,,,0,0,0,0,1,digitSpan_stim/twoAudio.xlsx,,,,,,,,,,,,,,,,,,,,,,,,,,,,,,,,,,,,,,,,,,,,,,,,,,,,,,,,,,,,,,,,,,,,,,,,,,,,,,
,191352558881,BCA,24/04/2001,001,2023-04-17_14h58.07.516,OS3_Mult_verification,2022.2.4,MacIntel,60.0024001,,,,,,,,,,,,,,,,,,,,,,,,,,,,,,,,,,,,,,,,,,,,,,,,,,,,,,,,,,,,,,,,,,,,,,,,157,1.0656,1,"[""1"",""5"",""7"",""return""]","[0.5479000000060523,0.6468000000119218,0.789000000000101,1.0340000000001055]",,,,,,3,157,Audio/157.mp3,EGNER,0,0,0,0,1,,,,,,,,,,,,,,,,,,,,,,,,,,,,,,,,,,,,,,,,,,,,,,,,,,,,,,,,,,,,,,,,,,,,,,,,,,,,,,,,,,,,
,191352558881,BCA,24/04/2001,001,2023-04-17_14h58.07.516,OS3_Mult_verification,2022.2.4,MacIntel,60.0024001,,,,,,,,,,,,,,,,,,,,,,,,,,,,,,,,,,,,,,,,,,,,,,,,,,,,,,,,,,,,,,,,,,,,,,,,397,1.1181,1,"[""3"",""9"",""7"",""return""]","[0.4674999999999727,0.5691000000238091,0.6546000000238337,1.0832000000178823]",,,,,,3,397,Audio/397.mp3,EGNER,0,1,1,1,1,,,,,,,,,,,,,,,,,,,,,,,,,,,,,,,,,,,,,,,,,,,,,,,,,,,,,,,,,,,,,,,,,,,,,,,,,,,,,,,,,,,,
,191352558881,BCA,24/04/2001,001,2023-04-17_14h58.07.516,OS3_Mult_verification,2022.2.4,MacIntel,60.0024001,,,,,,,,,,,,,,,,,,,,,,,,,,,,,,,,,,,,,,,,,,,,,,,,,,,,,,,,,,,,,,,,,,,,,,,,,,,,,,,,,,,,,,,,,,,0,1,1,1,1,digitSpan_stim/threeAudio.xlsx,,,,,,,,,,,,,,,,,,,,,,,,,,,,,,,,,,,,,,,,,,,,,,,,,,,,,,,,,,,,,,,,,,,,,,,,,,,,,,
,191352558881,BCA,24/04/2001,001,2023-04-17_14h58.07.516,OS3_Mult_verification,2022.2.4,MacIntel,60.0024001,,,,,,,,,,,,,,,,,,,,,,,,,,,,,,,,,,,,,,,,,,,,,,,,,,,,,,,,,,,,,,,,,,,,,,,,6352,1.8658,1,"[""6"",""3"",""5"",""2"",""return""]","[1.0965000000001055,1.2620999999941205,1.3326999999881082,1.5480000000000018,1.8310999999940805]",,,,,,4,6352,Audio/6352.mp3,EGNER,0,0,0,0,1,,,,,,,,,,,,,,,,,,,,,,,,,,,,,,,,,,,,,,,,,,,,,,,,,,,,,,,,,,,,,,,,,,,,,,,,,,,,,,,,,,,,
,191352558881,BCA,24/04/2001,001,2023-04-17_14h58.07.516,OS3_Mult_verification,2022.2.4,MacIntel,60.0024001,,,,,,,,,,,,,,,,,,,,,,,,,,,,,,,,,,,,,,,,,,,,,,,,,,,,,,,,,,,,,,,,,,,,,,,,9184,1.681,1,"[""9"",""1"",""8"",""4"",""return""]","[0.7727999999822259,0.8815999999941369,1.0451999999880854,1.2315000000000964,1.6506999999880918]",,,,,,4,9184,Audio/9184.mp3,EGNER,0,1,1,1,1,,,,,,,,,,,,,,,,,,,,,,,,,,,,,,,,,,,,,,,,,,,,,,,,,,,,,,,,,,,,,,,,,,,,,,,,,,,,,,,,,,,,
,191352558881,BCA,24/04/2001,001,2023-04-17_14h58.07.516,OS3_Mult_verification,2022.2.4,MacIntel,60.0024001,,,,,,,,,,,,,,,,,,,,,,,,,,,,,,,,,,,,,,,,,,,,,,,,,,,,,,,,,,,,,,,,,,,,,,,,,,,,,,,,,,,,,,,,,,,0,2,2,2,1,digitSpan_stim/fourAudio.xlsx,,,,,,,,,,,,,,,,,,,,,,,,,,,,,,,,,,,,,,,,,,,,,,,,,,,,,,,,,,,,,,,,,,,,,,,,,,,,,,
,191352558881,BCA,24/04/2001,001,2023-04-17_14h58.07.516,OS3_Mult_verification,2022.2.4,MacIntel,60.0024001,,,,,,,,,,,,,,,,,,,,,,,,,,,,,,,,,,,,,,,,,,,,,,,,,,,,,,,,,,,,,,,,,,,,,,,,59281,1.836,1,"[""5"",""9"",""2"",""8"",""1"",""return""]","[0.31810000002383276,0.5513000000119064,1.0352000000178805,1.2514999999999645,1.4184999999999945,1.8018000000118946]",,,,,,5,59281,Audio/59281.mp3,EGNER,0,0,0,0,1,,,,,,,,,,,,,,,,,,,,,,,,,,,,,,,,,,,,,,,,,,,,,,,,,,,,,,,,,,,,,,,,,,,,,,,,,,,,,,,,,,,,
,191352558881,BCA,24/04/2001,001,2023-04-17_14h58.07.516,OS3_Mult_verification,2022.2.4,MacIntel,60.0024001,,,,,,,,,,,,,,,,,,,,,,,,,,,,,,,,,,,,,,,,,,,,,,,,,,,,,,,,,,,,,,,,,,,,,,,,64738,2.4669,1,"[""6"",""4"",""7"",""3"",""8"",""return""]","[1.0171999999880654,1.10349999999994,1.5174999999999272,1.6807999999821277,1.8005999999940059,2.4354999999999336]",,,,,,5,64738,Audio/64738.mp3,EGNER,0,1,1,1,1,,,,,,,,,,,,,,,,,,,,,,,,,,,,,,,,,,,,,,,,,,,,,,,,,,,,,,,,,,,,,,,,,,,,,,,,,,,,,,,,,,,,
,191352558881,BCA,24/04/2001,001,2023-04-17_14h58.07.516,OS3_Mult_verification,2022.2.4,MacIntel,60.0024001,,,,,,,,,,,,,,,,,,,,,,,,,,,,,,,,,,,,,,,,,,,,,,,,,,,,,,,,,,,,,,,,,,,,,,,,,,,,,,,,,,,,,,,,,,,0,3,3,3,1,digitSpan_stim/fiveAudio.xlsx,,,,,,,,,,,,,,,,,,,,,,,,,,,,,,,,,,,,,,,,,,,,,,,,,,,,,,,,,,,,,,,,,,,,,,,,,,,,,,
,191352558881,BCA,24/04/2001,001,2023-04-17_14h58.07.516,OS3_Mult_verification,2022.2.4,MacIntel,60.0024001,,,,,,,,,,,,,,,,,,,,,,,,,,,,,,,,,,,,,,,,,,,,,,,,,,,,,,,,,,,,,,,,,,,,,,,,396172,3.0652,1,"[""3"",""9"",""6"",""1"",""7"",""2"",""return""]","[0.5815000000000055,1.3530000000000655,1.9216999999881637,2.2667999999821404,2.5325999999940905,2.6523999999761827,3.033999999999992]",,,,,,6,396172,Audio/396172.mp3,EGNER,0,0,0,0,1,,,,,,,,,,,,,,,,,,,,,,,,,,,,,,,,,,,,,,,,,,,,,,,,,,,,,,,,,,,,,,,,,,,,,,,,,,,,,,,,,,,,
,191352558881,BCA,24/04/2001,001,2023-04-17_14h58.07.516,OS3_Mult_verification,2022.2.4,MacIntel,60.0024001,,,,,,,,,,,,,,,,,,,,,,,,,,,,,,,,,,,,,,,,,,,,,,,,,,,,,,,,,,,,,,,,,,,,,,,,594631,3.5321,1,"[""5"",""4"",""backspace"",""9"",""4"",""6"",""3"",""1"",""return""]","[0.81819999998811,0.8765000000000782,1.2821999999881655,1.5326999999881536,1.7485000000000355,2.2811999999880754,2.7647999999821877,3.064199999988091,3.4967999999821586]",,,,,,6,594631,Audio/594631.mp3,EGNER,0,1,1,1,1,,,,,,,,,,,,,,,,,,,,,,,,,,,,,,,,,,,,,,,,,,,,,,,,,,,,,,,,,,,,,,,,,,,,,,,,,,,,,,,,,,,,
,191352558881,BCA,24/04/2001,001,2023-04-17_14h58.07.516,OS3_Mult_verification,2022.2.4,MacIntel,60.0024001,,,,,,,,,,,,,,,,,,,,,,,,,,,,,,,,,,,,,,,,,,,,,,,,,,,,,,,,,,,,,,,,,,,,,,,,,,,,,,,,,,,,,,,,,,,0,4,4,4,1,digitSpan_stim/sixAudio.xlsx,,,,,,,,,,,,,,,,,,,,,,,,,,,,,,,,,,,,,,,,,,,,,,,,,,,,,,,,,,,,,,,,,,,,,,,,,,,,,,
,191352558881,BCA,24/04/2001,001,2023-04-17_14h58.07.516,OS3_Mult_verification,2022.2.4,MacIntel,60.0024001,,,,,,,,,,,,,,,,,,,,,,,,,,,,,,,,,,,,,,,,,,,,,,,,,,,,,,,,,,,,,,,,,,,,,,,,88241973,2.9847,0,"[""8"",""8"",""2"",""4"",""1"",""9"",""7"",""3"",""return""]","[1.0499000000058913,1.1656999999880782,1.28449999999998,1.5325999999939768,1.7985999999940532,2.1141999999880454,2.3984000000059496,2.665599999994015,2.9510999999939713]",,,,,,7,8241973,Audio/8241973.mp3,EGNER,0,0,0,0,1,,,,,,,,,,,,,,,,,,,,,,,,,,,,,,,,,,,,,,,,,,,,,,,,,,,,,,,,,,,,,,,,,,,,,,,,,,,,,,,,,,,,
,191352558881,BCA,24/04/2001,001,2023-04-17_14h58.07.516,OS3_Mult_verification,2022.2.4,MacIntel,60.0024001,,,,,,,,,,,,,,,,,,,,,,,,,,,,,,,,,,,,,,,,,,,,,,,,,,,,,,,,,,,,,,,,,,,,,,,,2814367,3.3021,1,"[""2"",""8"",""1"",""4"",""3"",""6"",""7"",""return""]","[1.0027999999821304,1.336599999994064,1.7017999999821996,1.9505999999940968,2.3005000000000564,2.6165000000000873,2.9013999999762063,3.268000000000029]",,,,,,7,2814367,Audio/2814367.mp3,EGNER,0,1,1,1,1,,,,,,,,,,,,,,,,,,,,,,,,,,,,,,,,,,,,,,,,,,,,,,,,,,,,,,,,,,,,,,,,,,,,,,,,,,,,,,,,,,,,
,191352558881,BCA,24/04/2001,001,2023-04-17_14h58.07.516,OS3_Mult_verification,2022.2.4,MacIntel,60.0024001,,,,,,,,,,,,,,,,,,,,,,,,,,,,,,,,,,,,,,,,,,,,,,,,,,,,,,,,,,,,,,,,,,,,,,,,,,,,,,,,,,,,,,,,,,,0,5,5,5,1,digitSpan_stim/sevenAudio.xlsx,,,,,,,,,,,,,,,,,,,,,,,,,,,,,,,,,,,,,,,,,,,,,,,,,,,,,,,,,,,,,,,,,,,,,,,,,,,,,,
,191352558881,BCA,24/04/2001,001,2023-04-17_14h58.07.516,OS3_Mult_verification,2022.2.4,MacIntel,60.0024001,,,,,,,,,,,,,,,,,,,,,,,,,,,,,,,,,,,,,,,,,,,,,,,,,,,,,,,,,,,,,,,,,,,,,,,,53827164,3.2989,1,"[""5"",""3"",""8"",""2"",""7"",""1"",""6"",""4"",""return""]","[0.6578999999761663,0.9020999999939932,1.3046999999880882,1.56899999999996,1.8673999999761008,2.1505999999940286,2.6993999999760945,2.8244999999999436,3.2724999999999227]",,,,,,8,53827164,Audio/53827164.mp3,EGNER,0,0,0,0,1,,,,,,,,,,,,,,,,,,,,,,,,,,,,,,,,,,,,,,,,,,,,,,,,,,,,,,,,,,,,,,,,,,,,,,,,,,,,,,,,,,,,
,191352558881,BCA,24/04/2001,001,2023-04-17_14h58.07.516,OS3_Mult_verification,2022.2.4,MacIntel,60.0024001,,,,,,,,,,,,,,,,,,,,,,,,,,,,,,,,,,,,,,,,,,,,,,,,,,,,,,,,,,,,,,,,,,,,,,,,75421731,6.667,0,"[""7"",""5"",""4"",""2"",""1"",""7"",""3"",""1"",""return""]","[0.7680999999940923,1.0896999999880563,1.268299999982105,1.5850000000000364,2.3851999999881173,2.6710999999939986,5.884999999999991,6.4162999999821295,6.632099999994011]",,,,,,8,75241739,Audio/75241739.mp3,EGNER,0,1,1,1,1,,,,,,,,,,,,,,,,,,,,,,,,,,,,,,,,,,,,,,,,,,,,,,,,,,,,,,,,,,,,,,,,,,,,,,,,,,,,,,,,,,,,
,191352558881,BCA,24/04/2001,001,2023-04-17_14h58.07.516,OS3_Mult_verification,2022.2.4,MacIntel,60.0024001,,,,,,,,,,,,,,,,,,,,,,,,,,,,,,,,,,,,,,,,,,,,,,,,,,,,,,,,,,,,,,,,,,,,,,,,,,,,,,,,,,,,,,,,,,,0,6,6,6,1,digitSpan_stim/eightAudio.xlsx,,,,,,,,,,,,,,,,,,,,,,,,,,,,,,,,,,,,,,,,,,,,,,,,,,,,,,,,,,,,,,,,,,,,,,,,,,,,,,
,191352558881,BCA,24/04/2001,001,2023-04-17_14h58.07.516,OS3_Mult_verification,2022.2.4,MacIntel,60.0024001,,,,,,,,,,,,,,,,,,,,,,,,,,,,,,,,,,,,,,,,,,,,,,,,,,,,,,,,,,,,,,,,,,,,,,,,684291836,7.3988,0,"[""6"",""8"",""4"",""2"",""9"",""8"",""backspace"",""1"",""8"",""3"",""6"",""return""]","[0.8361999999880254,1.0344000000059168,1.8535999999940032,2.151699999988068,2.502599999994004,3.950099999993995,4.718699999988075,4.966099999993958,5.1666999999880545,6.7352999999820895,7.137799999982121,7.368299999982128]",,,,,,9,682594316,Audio/682594316.mp3,EGNER,0,0,0,0,1,,,,,,,,,,,,,,,,,,,,,,,,,,,,,,,,,,,,,,,,,,,,,,,,,,,,,,,,,,,,,,,,,,,,,,,,,,,,,,,,,,,,
,191352558881,BCA,24/04/2001,001,2023-04-17_14h58.07.516,OS3_Mult_verification,2022.2.4,MacIntel,60.0024001,,,,,,,,,,,,,,,,,,,,,,,,,,,,,,,,,,,,,,,,,,,,,,,,,,,,,,,,,,,,,,,,,,,,,,,,142963748,4.6663,0,"[""1"",""4"",""2"",""9"",""6"",""3"",""7"",""4"",""8"",""return""]","[0.8192999999820358,1.001199999987989,1.3630999999940059,1.6823999999761554,1.9970999999940204,2.2810999999940123,2.6159999999999854,3.871799999982045,3.996799999982045,4.633799999982102]",,,,,,9,142963758,Audio/142963758.mp3,EGNER,0,1,1,1,1,,,,,,,,,,,,,,,,,,,,,,,,,,,,,,,,,,,,,,,,,,,,,,,,,,,,,,,,,,,,,,,,,,,,,,,,,,,,,,,,,,,,
,191352558881,BCA,24/04/2001,001,2023-04-17_14h58.07.516,OS3_Mult_verification,2022.2.4,MacIntel,60.0024001,,,,,,,,,,,,,,,,,,,,,,,,,,,,,,,,,,,,,,,,,,,,,,,,,,,,,,,,,,,,,,,,,,,,,,,,,,,,,,,,,,Egner,,,,,,,,,,,,,,,0,1,1,0,1,digitSpan_stim/Egner.xlsx,,,,,,,,,,,,,,,,,,,,,,,,,,,,,,,,,,,,,,,,,,,,,,,,,,,,,,,,,,,,,,,,,,,,,,,,
,191352558881,BCA,24/04/2001,001,2023-04-17_14h58.07.516,OS3_Mult_verification,2022.2.4,MacIntel,60.0024001,,,,,,,,,,,,,,,,,,,,,,,,,,,,,,,,,,,,,,,,,,,,,,,,,,,,,,,,,,,,,,,,,,,,,,,,,,,,,,,,,,,,,,,,,,,,,,,,,,,,,,,0,0,0,0,1,,,,,,,,,,,,,,,,,,,,,,,,,,,,,,,,,,,,,,,,,,,,,,,,,,,,,,,,,,,,,,,,,,,
,191352558881,BCA,24/04/2001,001,2023-04-17_14h58.07.516,OS3_Mult_verification,2022.2.4,MacIntel,60.0024001,,,,,,,,,,,,,,,,,,,,,,,,,,,,,,,,,,,,,,,,,,,,,,,,,,,,,,,,,,,,,,0,1,1,1,1,0,0,1,,,,,,,,,,,,,,,,,,,,,,,,,,,,,,,,,,,,,,,,,,,,,,,,,,,,,,,,,,,,,,,,,,,,,,,,,,,,,,,,,,,,,,,,,,,,,,,,,,,,,,,,,
,191352558881,BCA,24/04/2001,001,2023-04-17_14h58.07.516,OS3_Mult_verification,2022.2.4,MacIntel,60.0024001,,,,,,,,,,,,,,,,space,4.0675,,,,,,,,,,,,,,,,,,,,,,,,,,,,,,,,,,,,,,,,,,,,,,,,,,,,,,,,,,,,,,,,,,,,,,,,,,,,,,,,,,,,,,,,,,,left,1,3.4111,0,0,0,0,1,practice,9,8,9 | 8,1,0.065,0.05,congruent,left,,,,,,,,,,,,,,,,,,,,,,,,,,,,,,,,,,,,,,,,,,,,,,,,,,
,191352558881,BCA,24/04/2001,001,2023-04-17_14h58.07.516,OS3_Mult_verification,2022.2.4,MacIntel,60.0024001,,,,,,,,,,,,,,,,,,,,,,,,,,,,,,,,,,,,,,,,,,,,,,,,,,,,,,,,,,,,,,,,,,,,,,,,,,,,,,,,,,,,,,,,,,,,,,,,,,,,,,,,,,,,right,1,0.5138,0,1,1,2,1,practice,9,9,9 | 9,0,0.05,0.065,neutral,right,,,,,,,,,,,,,,,,,,,,,,,,,,,,,,,,,,,,,,,,,,,,,,,,,,
,191352558881,BCA,24/04/2001,001,2023-04-17_14h58.07.516,OS3_Mult_verification,2022.2.4,MacIntel,60.0024001,,,,,,,,,,,,,,,,,,,,,,,,,,,,,,,,,,,,,,,,,,,,,,,,,,,,,,,,,,,,,,,,,,,,,,,,,,,,,,,,,,,,,,,,,,,,,,,,,,,,,,,,,,,,right,1,0.7836,0,2,2,1,1,practice,4,3,4 | 3,1,0.05,0.065,incongruent,right,,,,,,,,,,,,,,,,,,,,,,,,,,,,,,,,,,,,,,,,,,,,,,,,,,
,191352558881,BCA,24/04/2001,001,2023-04-17_14h58.07.516,OS3_Mult_verification,2022.2.4,MacIntel,60.0024001,,,,,,,,,,,,,,,,,,,,,,,,,,,,,,,,,,,,,,,,,,,,,,,,,,,,,,,,,,,,,,,,,,,,,,,,,,,,,,,,,,,,,,,,,,,,,,,,,,,,,,,,,,,,right,1,0.8116,,,,,,physical,6,8,6 | 8,2,0.05,0.065,congruent,right,0,0,0,10,1,,,,,,,,,,,,,,,,,,,,,,,,,,,,,,,,,,,,,,,,,,,,,
,191352558881,BCA,24/04/2001,001,2023-04-17_14h58.07.516,OS3_Mult_verification,2022.2.4,MacIntel,60.0024001,,,,,,,,,,,,,,,,,,,,,,,,,,,,,,,,,,,,,,,,,,,,,,,,,,,,,,,,,,,,,,,,,,,,,,,,,,,,,,,,,,,,,,,,,,,,,,,,,,,,,,,,,,,,left,1,0.5659,,,,,,physical,9,4,9 | 4,5,0.065,0.05,congruent,left,0,1,1,23,1,,,,,,,,,,,,,,,,,,,,,,,,,,,,,,,,,,,,,,,,,,,,,
,191352558881,BCA,24/04/2001,001,2023-04-17_14h58.07.516,OS3_Mult_verification,2022.2.4,MacIntel,60.0024001,,,,,,,,,,,,,,,,,,,,,,,,,,,,,,,,,,,,,,,,,,,,,,,,,,,,,,,,,,,,,,,,,,,,,,,,,,,,,,,,,,,,,,,,,,,,,,,,,,,,,,,,,,,,right,1,0.6136,,,,,,physical,9,9,9 | 9,0,0.05,0.065,neutral,right,0,2,2,71,1,,,,,,,,,,,,,,,,,,,,,,,,,,,,,,,,,,,,,,,,,,,,,
,191352558881,BCA,24/04/2001,001,2023-04-17_14h58.07.516,OS3_Mult_verification,2022.2.4,MacIntel,60.0024001,,,,,,,,,,,,,,,,,,,,,,,,,,,,,,,,,,,,,,,,,,,,,,,,,,,,,,,,,,,,,,,,,,,,,,,,,,,,,,,,,,,,,,,,,,,,,,,,,,,,,,,,,,,,right,1,0.5154,,,,,,physical,3,8,3 | 8,5,0.05,0.065,congruent,right,0,3,3,18,1,,,,,,,,,,,,,,,,,,,,,,,,,,,,,,,,,,,,,,,,,,,,,
,191352558881,BCA,24/04/2001,001,2023-04-17_14h58.07.516,OS3_Mult_verification,2022.2.4,MacIntel,60.0024001,,,,,,,,,,,,,,,,,,,,,,,,,,,,,,,,,,,,,,,,,,,,,,,,,,,,,,,,,,,,,,,,,,,,,,,,,,,,,,,,,,,,,,,,,,,,,,,,,,,,,,,,,,,,right,1,0.7478,,,,,,physical,2,4,2 | 4,2,0.05,0.065,congruent,right,0,4,4,9,1,,,,,,,,,,,,,,,,,,,,,,,,,,,,,,,,,,,,,,,,,,,,,
,191352558881,BCA,24/04/2001,001,2023-04-17_14h58.07.516,OS3_Mult_verification,2022.2.4,MacIntel,60.0024001,,,,,,,,,,,,,,,,,,,,,,,,,,,,,,,,,,,,,,,,,,,,,,,,,,,,,,,,,,,,,,,,,,,,,,,,,,,,,,,,,,,,,,,,,,,,,,,,,,,,,,,,,,,,right,1,0.599,,,,,,physical,7,7,7 | 7,0,0.05,0.065,neutral,right,0,5,5,69,1,,,,,,,,,,,,,,,,,,,,,,,,,,,,,,,,,,,,,,,,,,,,,
,191352558881,BCA,24/04/2001,001,2023-04-17_14h58.07.516,OS3_Mult_verification,2022.2.4,MacIntel,60.0024001,,,,,,,,,,,,,,,,,,,,,,,,,,,,,,,,,,,,,,,,,,,,,,,,,,,,,,,,,,,,,,,,,,,,,,,,,,,,,,,,,,,,,,,,,,,,,,,,,,,,,,,,,,,,left,1,0.546,,,,,,physical,2,2,2 | 2,0,0.065,0.05,neutral,left,0,6,6,52,1,,,,,,,,,,,,,,,,,,,,,,,,,,,,,,,,,,,,,,,,,,,,,
,191352558881,BCA,24/04/2001,001,2023-04-17_14h58.07.516,OS3_Mult_verification,2022.2.4,MacIntel,60.0024001,,,,,,,,,,,,,,,,,,,,,,,,,,,,,,,,,,,,,,,,,,,,,,,,,,,,,,,,,,,,,,,,,,,,,,,,,,,,,,,,,,,,,,,,,,,,,,,,,,,,,,,,,,,,right,1,0.5802,,,,,,physical,3,3,3 | 3,0,0.05,0.065,neutral,right,0,7,7,60,1,,,,,,,,,,,,,,,,,,,,,,,,,,,,,,,,,,,,,,,,,,,,,
,191352558881,BCA,24/04/2001,001,2023-04-17_14h58.07.516,OS3_Mult_verification,2022.2.4,MacIntel,60.0024001,,,,,,,,,,,,,,,,,,,,,,,,,,,,,,,,,,,,,,,,,,,,,,,,,,,,,,,,,,,,,,,,,,,,,,,,,,,,,,,,,,,,,,,,,,,,,,,,,,,,,,,,,,,,left,1,0.7336,,,,,,physical,7,9,7 | 9,2,0.065,0.05,incongruent,left,0,8,8,35,1,,,,,,,,,,,,,,,,,,,,,,,,,,,,,,,,,,,,,,,,,,,,,
,191352558881,BCA,24/04/2001,001,2023-04-17_14h58.07.516,OS3_Mult_verification,2022.2.4,MacIntel,60.0024001,,,,,,,,,,,,,,,,,,,,,,,,,,,,,,,,,,,,,,,,,,,,,,,,,,,,,,,,,,,,,,,,,,,,,,,,,,,,,,,,,,,,,,,,,,,,,,,,,,,,,,,,,,,,right,1,0.5183,,,,,,physical,1,2,1 | 2,1,0.05,0.065,congruent,right,0,9,9,0,1,,,,,,,,,,,,,,,,,,,,,,,,,,,,,,,,,,,,,,,,,,,,,
,191352558881,BCA,24/04/2001,001,2023-04-17_14h58.07.516,OS3_Mult_verification,2022.2.4,MacIntel,60.0024001,,,,,,,,,,,,,,,,,,,,,,,,,,,,,,,,,,,,,,,,,,,,,,,,,,,,,,,,,,,,,,,,,,,,,,,,,,,,,,,,,,,,,,,,,,,,,,,,,,,,,,,,,,,,left,1,0.6486,,,,,,physical,6,6,6 | 6,0,0.065,0.05,neutral,left,0,10,10,68,1,,,,,,,,,,,,,,,,,,,,,,,,,,,,,,,,,,,,,,,,,,,,,
,191352558881,BCA,24/04/2001,001,2023-04-17_14h58.07.516,OS3_Mult_verification,2022.2.4,MacIntel,60.0024001,,,,,,,,,,,,,,,,,,,,,,,,,,,,,,,,,,,,,,,,,,,,,,,,,,,,,,,,,,,,,,,,,,,,,,,,,,,,,,,,,,,,,,,,,,,,,,,,,,,,,,,,,,,,right,1,0.9639,,,,,,physical,4,2,4 | 2,2,0.05,0.065,incongruent,right,0,11,11,37,1,,,,,,,,,,,,,,,,,,,,,,,,,,,,,,,,,,,,,,,,,,,,,
,191352558881,BCA,24/04/2001,001,2023-04-17_14h58.07.516,OS3_Mult_verification,2022.2.4,MacIntel,60.0024001,,,,,,,,,,,,,,,,,,,,,,,,,,,,,,,,,,,,,,,,,,,,,,,,,,,,,,,,,,,,,,,,,,,,,,,,,,,,,,,,,,,,,,,,,,,,,,,,,,,,,,,,,,,,left,1,0.569,,,,,,physical,7,7,7 | 7,0,0.065,0.05,neutral,left,0,12,12,54,1,,,,,,,,,,,,,,,,,,,,,,,,,,,,,,,,,,,,,,,,,,,,,
,191352558881,BCA,24/04/2001,001,2023-04-17_14h58.07.516,OS3_Mult_verification,2022.2.4,MacIntel,60.0024001,,,,,,,,,,,,,,,,,,,,,,,,,,,,,,,,,,,,,,,,,,,,,,,,,,,,,,,,,,,,,,,,,,,,,,,,,,,,,,,,,,,,,,,,,,,,,,,,,,,,,,,,,,,,right,1,0.576,,,,,,physical,4,3,4 | 3,1,0.05,0.065,incongruent,right,0,13,13,29,1,,,,,,,,,,,,,,,,,,,,,,,,,,,,,,,,,,,,,,,,,,,,,
,191352558881,BCA,24/04/2001,001,2023-04-17_14h58.07.516,OS3_Mult_verification,2022.2.4,MacIntel,60.0024001,,,,,,,,,,,,,,,,,,,,,,,,,,,,,,,,,,,,,,,,,,,,,,,,,,,,,,,,,,,,,,,,,,,,,,,,,,,,,,,,,,,,,,,,,,,,,,,,,,,,,,,,,,,,left,1,0.762,,,,,,physical,1,1,1 | 1,0,0.065,0.05,neutral,left,0,14,14,64,1,,,,,,,,,,,,,,,,,,,,,,,,,,,,,,,,,,,,,,,,,,,,,
,191352558881,BCA,24/04/2001,001,2023-04-17_14h58.07.516,OS3_Mult_verification,2022.2.4,MacIntel,60.0024001,,,,,,,,,,,,,,,,,,,,,,,,,,,,,,,,,,,,,,,,,,,,,,,,,,,,,,,,,,,,,,,,,,,,,,,,,,,,,,,,,,,,,,,,,,,,,,,,,,,,,,,,,,,,right,1,0.5978,,,,,,physical,2,1,2 | 1,1,0.05,0.065,incongruent,right,0,15,15,28,1,,,,,,,,,,,,,,,,,,,,,,,,,,,,,,,,,,,,,,,,,,,,,
,191352558881,BCA,24/04/2001,001,2023-04-17_14h58.07.516,OS3_Mult_verification,2022.2.4,MacIntel,60.0024001,,,,,,,,,,,,,,,,,,,,,,,,,,,,,,,,,,,,,,,,,,,,,,,,,,,,,,,,,,,,,,,,,,,,,,,,,,,,,,,,,,,,,,,,,,,,,,,,,,,,,,,,,,,,left,1,0.5638,,,,,,physical,1,2,1 | 2,1,0.065,0.05,incongruent,left,0,16,16,24,1,,,,,,,,,,,,,,,,,,,,,,,,,,,,,,,,,,,,,,,,,,,,,
,191352558881,BCA,24/04/2001,001,2023-04-17_14h58.07.516,OS3_Mult_verification,2022.2.4,MacIntel,60.0024001,,,,,,,,,,,,,,,,,,,,,,,,,,,,,,,,,,,,,,,,,,,,,,,,,,,,,,,,,,,,,,,,,,,,,,,,,,,,,,,,,,,,,,,,,,,,,,,,,,,,,,,,,,,,right,1,0.4541,,,,,,physical,4,4,4 | 4,0,0.05,0.065,neutral,right,0,17,17,61,1,,,,,,,,,,,,,,,,,,,,,,,,,,,,,,,,,,,,,,,,,,,,,
,191352558881,BCA,24/04/2001,001,2023-04-17_14h58.07.516,OS3_Mult_verification,2022.2.4,MacIntel,60.0024001,,,,,,,,,,,,,,,,,,,,,,,,,,,,,,,,,,,,,,,,,,,,,,,,,,,,,,,,,,,,,,,,,,,,,,,,,,,,,,,,,,,,,,,,,,,,,,,,,,,,,,,,,,,,right,1,0.5195,,,,,,physical,9,8,9 | 8,1,0.05,0.065,incongruent,right,0,18,18,31,1,,,,,,,,,,,,,,,,,,,,,,,,,,,,,,,,,,,,,,,,,,,,,
,191352558881,BCA,24/04/2001,001,2023-04-17_14h58.07.516,OS3_Mult_verification,2022.2.4,MacIntel,60.0024001,,,,,,,,,,,,,,,,,,,,,,,,,,,,,,,,,,,,,,,,,,,,,,,,,,,,,,,,,,,,,,,,,,,,,,,,,,,,,,,,,,,,,,,,,,,,,,,,,,,,,,,,,,,,right,1,0.615,,,,,,physical,6,7,6 | 7,1,0.05,0.065,congruent,right,0,19,19,2,1,,,,,,,,,,,,,,,,,,,,,,,,,,,,,,,,,,,,,,,,,,,,,
,191352558881,BCA,24/04/2001,001,2023-04-17_14h58.07.516,OS3_Mult_verification,2022.2.4,MacIntel,60.0024001,,,,,,,,,,,,,,,,,,,,,,,,,,,,,,,,,,,,,,,,,,,,,,,,,,,,,,,,,,,,,,,,,,,,,,,,,,,,,,,,,,,,,,,,,,,,,,,,,,,,,,,,,,,,left,1,0.5495,,,,,,physical,9,9,9 | 9,0,0.065,0.05,neutral,left,0,20,20,55,1,,,,,,,,,,,,,,,,,,,,,,,,,,,,,,,,,,,,,,,,,,,,,
,191352558881,BCA,24/04/2001,001,2023-04-17_14h58.07.516,OS3_Mult_verification,2022.2.4,MacIntel,60.0024001,,,,,,,,,,,,,,,,,,,,,,,,,,,,,,,,,,,,,,,,,,,,,,,,,,,,,,,,,,,,,,,,,,,,,,,,,,,,,,,,,,,,,,,,,,,,,,,,,,,,,,,,,,,,right,1,0.5312,,,,,,physical,6,6,6 | 6,0,0.05,0.065,neutral,right,0,21,21,58,1,,,,,,,,,,,,,,,,,,,,,,,,,,,,,,,,,,,,,,,,,,,,,
,191352558881,BCA,24/04/2001,001,2023-04-17_14h58.07.516,OS3_Mult_verification,2022.2.4,MacIntel,60.0024001,,,,,,,,,,,,,,,,,,,,,,,,,,,,,,,,,,,,,,,,,,,,,,,,,,,,,,,,,,,,,,,,,,,,,,,,,,,,,,,,,,,,,,,,,,,,,,,,,,,,,,,,,,,,right,1,0.8052,,,,,,physical,2,2,2 | 2,0,0.05,0.065,neutral,right,0,22,22,65,1,,,,,,,,,,,,,,,,,,,,,,,,,,,,,,,,,,,,,,,,,,,,,
,191352558881,BCA,24/04/2001,001,2023-04-17_14h58.07.516,OS3_Mult_verification,2022.2.4,MacIntel,60.0024001,,,,,,,,,,,,,,,,,,,,,,,,,,,,,,,,,,,,,,,,,,,,,,,,,,,,,,,,,,,,,,,,,,,,,,,,,,,,,,,,,,,,,,,,,,,,,,,,,,,,,,,,,,,,left,1,0.5809,,,,,,physical,1,3,1 | 3,2,0.065,0.05,incongruent,left,0,23,23,32,1,,,,,,,,,,,,,,,,,,,,,,,,,,,,,,,,,,,,,,,,,,,,,
,191352558881,BCA,24/04/2001,001,2023-04-17_14h58.07.516,OS3_Mult_verification,2022.2.4,MacIntel,60.0024001,,,,,,,,,,,,,,,,,,,,,,,,,,,,,,,,,,,,,,,,,,,,,,,,,,,,,,,,,,,,,,,,,,,,,,,,,,,,,,,,,,,,,,,,,,,,,,,,,,,,,,,,,,,,right,1,0.6642,,,,,,physical,9,7,9 | 7,2,0.05,0.065,incongruent,right,0,24,24,39,1,,,,,,,,,,,,,,,,,,,,,,,,,,,,,,,,,,,,,,,,,,,,,
,191352558881,BCA,24/04/2001,001,2023-04-17_14h58.07.516,OS3_Mult_verification,2022.2.4,MacIntel,60.0024001,,,,,,,,,,,,,,,,,,,,,,,,,,,,,,,,,,,,,,,,,,,,,,,,,,,,,,,,,,,,,,,,,,,,,,,,,,,,,,,,,,,,,,,,,,,,,,,,,,,,,,,,,,,,right,1,0.7962,,,,,,physical,8,6,8 | 6,2,0.05,0.065,incongruent,right,0,25,25,38,1,,,,,,,,,,,,,,,,,,,,,,,,,,,,,,,,,,,,,,,,,,,,,
,191352558881,BCA,24/04/2001,001,2023-04-17_14h58.07.516,OS3_Mult_verification,2022.2.4,MacIntel,60.0024001,,,,,,,,,,,,,,,,,,,,,,,,,,,,,,,,,,,,,,,,,,,,,,,,,,,,,,,,,,,,,,,,,,,,,,,,,,,,,,,,,,,,,,,,,,,,,,,,,,,,,,,,,,,,right,1,0.6487,,,,,,physical,1,3,1 | 3,2,0.05,0.065,congruent,right,0,26,26,8,1,,,,,,,,,,,,,,,,,,,,,,,,,,,,,,,,,,,,,,,,,,,,,
,191352558881,BCA,24/04/2001,001,2023-04-17_14h58.07.516,OS3_Mult_verification,2022.2.4,MacIntel,60.0024001,,,,,,,,,,,,,,,,,,,,,,,,,,,,,,,,,,,,,,,,,,,,,,,,,,,,,,,,,,,,,,,,,,,,,,,,,,,,,,,,,,,,,,,,,,,,,,,,,,,,,,,,,,,,left,1,0.5861,,,,,,physical,8,8,8 | 8,0,0.065,0.05,neutral,left,0,27,27,70,1,,,,,,,,,,,,,,,,,,,,,,,,,,,,,,,,,,,,,,,,,,,,,
,191352558881,BCA,24/04/2001,001,2023-04-17_14h58.07.516,OS3_Mult_verification,2022.2.4,MacIntel,60.0024001,,,,,,,,,,,,,,,,,,,,,,,,,,,,,,,,,,,,,,,,,,,,,,,,,,,,,,,,,,,,,,,,,,,,,,,,,,,,,,,,,,,,,,,,,,,,,,,,,,,,,,,,,,,,left,1,0.6136,,,,,,physical,4,4,4 | 4,0,0.065,0.05,neutral,left,0,28,28,53,1,,,,,,,,,,,,,,,,,,,,,,,,,,,,,,,,,,,,,,,,,,,,,
,191352558881,BCA,24/04/2001,001,2023-04-17_14h58.07.516,OS3_Mult_verification,2022.2.4,MacIntel,60.0024001,,,,,,,,,,,,,,,,,,,,,,,,,,,,,,,,,,,,,,,,,,,,,,,,,,,,,,,,,,,,,,,,,,,,,,,,,,,,,,,,,,,,,,,,,,,,,,,,,,,,,,,,,,,,left,1,1.1106,,,,,,physical,8,6,8 | 6,2,0.065,0.05,congruent,left,0,29,29,14,1,,,,,,,,,,,,,,,,,,,,,,,,,,,,,,,,,,,,,,,,,,,,,
,191352558881,BCA,24/04/2001,001,2023-04-17_14h58.07.516,OS3_Mult_verification,2022.2.4,MacIntel,60.0024001,,,,,,,,,,,,,,,,,,,,,,,,,,,,,,,,,,,,,,,,,,,,,,,,,,,,,,,,,,,,,,,,,,,,,,,,,,,,,,,,,,,,,,,,,,,,,,,,,,,,,,,,,,,,left,1,0.6434,,,,,,physical,2,7,2 | 7,5,0.065,0.05,incongruent,left,0,30,30,41,1,,,,,,,,,,,,,,,,,,,,,,,,,,,,,,,,,,,,,,,,,,,,,
,191352558881,BCA,24/04/2001,001,2023-04-17_14h58.07.516,OS3_Mult_verification,2022.2.4,MacIntel,60.0024001,,,,,,,,,,,,,,,,,,,,,,,,,,,,,,,,,,,,,,,,,,,,,,,,,,,,,,,,,,,,,,,,,,,,,,,,,,,,,,,,,,,,,,,,,,,,,,,,,,,,,,,,,,,,left,1,0.5971,,,,,,physical,3,8,3 | 8,5,0.065,0.05,incongruent,left,0,31,31,42,1,,,,,,,,,,,,,,,,,,,,,,,,,,,,,,,,,,,,,,,,,,,,,
,191352558881,BCA,24/04/2001,001,2023-04-17_14h58.07.516,OS3_Mult_verification,2022.2.4,MacIntel,60.0024001,,,,,,,,,,,,,,,,,,,,,,,,,,,,,,,,,,,,,,,,,,,,,,,,,,,,,,,,,,,,,,,,,,,,,,,,,,,,,,,,,,,,,,,,,,,,,,,,,,,,,,,,,,,,left,1,0.5277,,,,,,physical,6,1,6 | 1,5,0.065,0.05,congruent,left,0,32,32,20,1,,,,,,,,,,,,,,,,,,,,,,,,,,,,,,,,,,,,,,,,,,,,,
,191352558881,BCA,24/04/2001,001,2023-04-17_14h58.07.516,OS3_Mult_verification,2022.2.4,MacIntel,60.0024001,,,,,,,,,,,,,,,,,,,,,,,,,,,,,,,,,,,,,,,,,,,,,,,,,,,,,,,,,,,,,,,,,,,,,,,,,,,,,,,,,,,,,,,,,,,,,,,,,,,,,,,,,,,,right,1,0.532,,,,,,physical,7,7,7 | 7,0,0.05,0.065,neutral,right,0,33,33,59,1,,,,,,,,,,,,,,,,,,,,,,,,,,,,,,,,,,,,,,,,,,,,,
,191352558881,BCA,24/04/2001,001,2023-04-17_14h58.07.516,OS3_Mult_verification,2022.2.4,MacIntel,60.0024001,,,,,,,,,,,,,,,,,,,,,,,,,,,,,,,,,,,,,,,,,,,,,,,,,,,,,,,,,,,,,,,,,,,,,,,,,,,,,,,,,,,,,,,,,,,,,,,,,,,,,,,,,,,,left,1,0.5956,,,,,,physical,1,6,1 | 6,5,0.065,0.05,incongruent,left,0,34,34,40,1,,,,,,,,,,,,,,,,,,,,,,,,,,,,,,,,,,,,,,,,,,,,,
,191352558881,BCA,24/04/2001,001,2023-04-17_14h58.07.516,OS3_Mult_verification,2022.2.4,MacIntel,60.0024001,,,,,,,,,,,,,,,,,,,,,,,,,,,,,,,,,,,,,,,,,,,,,,,,,,,,,,,,,,,,,,,,,,,,,,,,,,,,,,,,,,,,,,,,,,,,,,,,,,,,,,,,,,,,left,1,0.4915,,,,,,physical,4,2,4 | 2,2,0.065,0.05,congruent,left,0,35,35,13,1,,,,,,,,,,,,,,,,,,,,,,,,,,,,,,,,,,,,,,,,,,,,,
,191352558881,BCA,24/04/2001,001,2023-04-17_14h58.07.516,OS3_Mult_verification,2022.2.4,MacIntel,60.0024001,,,,,,,,,,,,,,,,,,,,,,,,,,,,,,,,,,,,,,,,,,,,,,,,,,,,,,,,,,,,,,,,,,,,,,,,,,,,,,,,,,,,,,,,,,,,,,,,,,,,,,,,,,,,left,1,0.8165,,,,,,physical,4,9,4 | 9,5,0.065,0.05,incongruent,left,0,36,36,43,1,,,,,,,,,,,,,,,,,,,,,,,,,,,,,,,,,,,,,,,,,,,,,
,191352558881,BCA,24/04/2001,001,2023-04-17_14h58.07.516,OS3_Mult_verification,2022.2.4,MacIntel,60.0024001,,,,,,,,,,,,,,,,,,,,,,,,,,,,,,,,,,,,,,,,,,,,,,,,,,,,,,,,,,,,,,,,,,,,,,,,,,,,,,,,,,,,,,,,,,,,,,,,,,,,,,,,,,,,left,1,0.884,,,,,,physical,8,9,8 | 9,1,0.065,0.05,incongruent,left,0,37,37,27,1,,,,,,,,,,,,,,,,,,,,,,,,,,,,,,,,,,,,,,,,,,,,,
,191352558881,BCA,24/04/2001,001,2023-04-17_14h58.07.516,OS3_Mult_verification,2022.2.4,MacIntel,60.0024001,,,,,,,,,,,,,,,,,,,,,,,,,,,,,,,,,,,,,,,,,,,,,,,,,,,,,,,,,,,,,,,,,,,,,,,,,,,,,,,,,,,,,,,,,,,,,,,,,,,,,,,,,,,,left,1,0.579,,,,,,physical,9,7,9 | 7,2,0.065,0.05,congruent,left,0,38,38,15,1,,,,,,,,,,,,,,,,,,,,,,,,,,,,,,,,,,,,,,,,,,,,,
,191352558881,BCA,24/04/2001,001,2023-04-17_14h58.07.516,OS3_Mult_verification,2022.2.4,MacIntel,60.0024001,,,,,,,,,,,,,,,,,,,,,,,,,,,,,,,,,,,,,,,,,,,,,,,,,,,,,,,,,,,,,,,,,,,,,,,,,,,,,,,,,,,,,,,,,,,,,,,,,,,,,,,,,,,,left,1,0.5375,,,,,,physical,2,4,2 | 4,2,0.065,0.05,incongruent,left,0,39,39,33,1,,,,,,,,,,,,,,,,,,,,,,,,,,,,,,,,,,,,,,,,,,,,,
,191352558881,BCA,24/04/2001,001,2023-04-17_14h58.07.516,OS3_Mult_verification,2022.2.4,MacIntel,60.0024001,,,,,,,,,,,,,,,,,,,,,,,,,,,,,,,,,,,,,,,,,,,,,,,,,,,,,,,,,,,,,,,,,,,,,,,,,,,,,,,,,,,,,,,,,,,,,,,,,,,,,,,,,,,,right,1,0.5734,,,,,,physical,3,4,3 | 4,1,0.05,0.065,congruent,right,0,40,40,1,1,,,,,,,,,,,,,,,,,,,,,,,,,,,,,,,,,,,,,,,,,,,,,
,191352558881,BCA,24/04/2001,001,2023-04-17_14h58.07.516,OS3_Mult_verification,2022.2.4,MacIntel,60.0024001,,,,,,,,,,,,,,,,,,,,,,,,,,,,,,,,,,,,,,,,,,,,,,,,,,,,,,,,,,,,,,,,,,,,,,,,,,,,,,,,,,,,,,,,,,,,,,,,,,,,,,,,,,,,right,1,0.5665,,,,,,physical,4,4,4 | 4,0,0.05,0.065,neutral,right,0,41,41,67,1,,,,,,,,,,,,,,,,,,,,,,,,,,,,,,,,,,,,,,,,,,,,,
,191352558881,BCA,24/04/2001,001,2023-04-17_14h58.07.516,OS3_Mult_verification,2022.2.4,MacIntel,60.0024001,,,,,,,,,,,,,,,,,,,,,,,,,,,,,,,,,,,,,,,,,,,,,,,,,,,,,,,,,,,,,,,,,,,,,,,,,,,,,,,,,,,,,,,,,,,,,,,,,,,,,,,,,,,,left,1,0.5461,,,,,,physical,3,3,3 | 3,0,0.065,0.05,neutral,left,0,42,42,66,1,,,,,,,,,,,,,,,,,,,,,,,,,,,,,,,,,,,,,,,,,,,,,
,191352558881,BCA,24/04/2001,001,2023-04-17_14h58.07.516,OS3_Mult_verification,2022.2.4,MacIntel,60.0024001,,,,,,,,,,,,,,,,,,,,,,,,,,,,,,,,,,,,,,,,,,,,,,,,,,,,,,,,,,,,,,,,,,,,,,,,,,,,,,,,,,,,,,,,,,,,,,,,,,,,,,,,,,,,left,1,0.8298,,,,,,physical,6,6,6 | 6,0,0.065,0.05,neutral,left,0,43,43,50,1,,,,,,,,,,,,,,,,,,,,,,,,,,,,,,,,,,,,,,,,,,,,,
,191352558881,BCA,24/04/2001,001,2023-04-17_14h58.07.516,OS3_Mult_verification,2022.2.4,MacIntel,60.0024001,,,,,,,,,,,,,,,,,,,,,,,,,,,,,,,,,,,,,,,,,,,,,,,,,,,,,,,,,,,,,,,,,,,,,,,,,,,,,,,,,,,,,,,,,,,,,,,,,,,,,,,,,,,,right,1,0.9967,,,,,,physical,9,4,9 | 4,5,0.05,0.065,incongruent,right,0,44,44,47,1,,,,,,,,,,,,,,,,,,,,,,,,,,,,,,,,,,,,,,,,,,,,,
,191352558881,BCA,24/04/2001,001,2023-04-17_14h58.07.516,OS3_Mult_verification,2022.2.4,MacIntel,60.0024001,,,,,,,,,,,,,,,,,,,,,,,,,,,,,,,,,,,,,,,,,,,,,,,,,,,,,,,,,,,,,,,,,,,,,,,,,,,,,,,,,,,,,,,,,,,,,,,,,,,,,,,,,,,,right,1,0.5955,,,,,,physical,7,6,7 | 6,1,0.05,0.065,incongruent,right,0,45,45,30,1,,,,,,,,,,,,,,,,,,,,,,,,,,,,,,,,,,,,,,,,,,,,,
,191352558881,BCA,24/04/2001,001,2023-04-17_14h58.07.516,OS3_Mult_verification,2022.2.4,MacIntel,60.0024001,,,,,,,,,,,,,,,,,,,,,,,,,,,,,,,,,,,,,,,,,,,,,,,,,,,,,,,,,,,,,,,,,,,,,,,,,,,,,,,,,,,,,,,,,,,,,,,,,,,,,,,,,,,,right,1,0.5483,,,,,,physical,9,9,9 | 9,0,0.05,0.065,neutral,right,0,46,46,63,1,,,,,,,,,,,,,,,,,,,,,,,,,,,,,,,,,,,,,,,,,,,,,
,191352558881,BCA,24/04/2001,001,2023-04-17_14h58.07.516,OS3_Mult_verification,2022.2.4,MacIntel,60.0024001,,,,,,,,,,,,,,,,,,,,,,,,,,,,,,,,,,,,,,,,,,,,,,,,,,,,,,,,,,,,,,,,,,,,,,,,,,,,,,,,,,,,,,,,,,,,,,,,,,,,,,,,,,,,left,1,0.5665,,,,,,physical,7,6,7 | 6,1,0.065,0.05,congruent,left,0,47,47,6,1,,,,,,,,,,,,,,,,,,,,,,,,,,,,,,,,,,,,,,,,,,,,,
,191352558881,BCA,24/04/2001,001,2023-04-17_14h58.07.516,OS3_Mult_verification,2022.2.4,MacIntel,60.0024001,,,,,,,,,,,,,,,,,,,,,,,,,,,,,,,,,,,,,,,,,,,,,,,,,,,,,,,,,,,,,,,,,,,,,,,,,,,,,,,,,,,,,,,,,,,,,,,,,,,,,,,,,,,,left,1,0.6451,,,,,,physical,1,1,1 | 1,0,0.065,0.05,neutral,left,0,48,48,48,1,,,,,,,,,,,,,,,,,,,,,,,,,,,,,,,,,,,,,,,,,,,,,
,191352558881,BCA,24/04/2001,001,2023-04-17_14h58.07.516,OS3_Mult_verification,2022.2.4,MacIntel,60.0024001,,,,,,,,,,,,,,,,,,,,,,,,,,,,,,,,,,,,,,,,,,,,,,,,,,,,,,,,,,,,,,,,,,,,,,,,,,,,,,,,,,,,,,,,,,,,,,,,,,,,,,,,,,,,left,1,0.597,,,,,,physical,8,3,8 | 3,5,0.065,0.05,congruent,left,0,49,49,22,1,,,,,,,,,,,,,,,,,,,,,,,,,,,,,,,,,,,,,,,,,,,,,
,191352558881,BCA,24/04/2001,001,2023-04-17_14h58.07.516,OS3_Mult_verification,2022.2.4,MacIntel,60.0024001,,,,,,,,,,,,,,,,,,,,,,,,,,,,,,,,,,,,,,,,,,,,,,,,,,,,,,,,,,,,,,,,,,,,,,,,,,,,,,,,,,,,,,,,,,,,,,,,,,,,,,,,,,,,left,1,0.5281,,,,,,physical,3,1,3 | 1,2,0.065,0.05,congruent,left,0,50,50,12,1,,,,,,,,,,,,,,,,,,,,,,,,,,,,,,,,,,,,,,,,,,,,,
,191352558881,BCA,24/04/2001,001,2023-04-17_14h58.07.516,OS3_Mult_verification,2022.2.4,MacIntel,60.0024001,,,,,,,,,,,,,,,,,,,,,,,,,,,,,,,,,,,,,,,,,,,,,,,,,,,,,,,,,,,,,,,,,,,,,,,,,,,,,,,,,,,,,,,,,,,,,,,,,,,,,,,,,,,,right,1,0.5503,,,,,,physical,2,2,2 | 2,0,0.05,0.065,neutral,right,0,51,51,57,1,,,,,,,,,,,,,,,,,,,,,,,,,,,,,,,,,,,,,,,,,,,,,
,191352558881,BCA,24/04/2001,001,2023-04-17_14h58.07.516,OS3_Mult_verification,2022.2.4,MacIntel,60.0024001,,,,,,,,,,,,,,,,,,,,,,,,,,,,,,,,,,,,,,,,,,,,,,,,,,,,,,,,,,,,,,,,,,,,,,,,,,,,,,,,,,,,,,,,,,,,,,,,,,,,,,,,,,,,right,1,0.6211,,,,,,physical,2,7,2 | 7,5,0.05,0.065,congruent,right,0,52,52,17,1,,,,,,,,,,,,,,,,,,,,,,,,,,,,,,,,,,,,,,,,,,,,,
