windowSize,participant,group,DOB (DD/MM/YEAR),session,date,expName,psychopyVersion,OS,frameRate,typing_instr_resp.keys,typing_instr_resp.rt,typing_response,typing_rt,typing_score,typingSpeed_input_resp.keys,typingSpeed_input_resp.rt,typing_speed_trials.thisRepN,typing_speed_trials.thisTrialN,typing_speed_trials.thisN,typing_speed_trials.thisIndex,typing_speed_trials.ran,typing_speed_stim,typing_report_resp.keys,typing_report_resp.rt,vpt_trial_resp1.keys,vpt_trial_resp1.rt,typedResponse,fluency_rt,fluency_score,fluencyInputResp.keys,fluencyInputResp.rt,fluencyPracLoop.thisRepN,fluencyPracLoop.thisTrialN,fluencyPracLoop.thisN,fluencyPracLoop.thisIndex,fluencyPracLoop.ran,problem,answers,fluencyLoop.thisRepN,fluencyLoop.thisTrialN,fluencyLoop.thisN,fluencyLoop.thisIndex,fluencyLoop.ran,sampleAudio_resp.keys,sampleAudio_resp.rt,subjResponse,audio_rt,DS_score,inputResp.keys,inputResp.rt,audioPracticeLoop.thisRepN,audioPracticeLoop.thisTrialN,audioPracticeLoop.thisN,audioPracticeLoop.thisIndex,audioPracticeLoop.ran,digitSpan,digits_audioStim,soundsFile,typeDS,audioTrials_Loop.thisRepN,audioTrials_Loop.thisTrialN,audioTrials_Loop.thisN,audioTrials_Loop.thisIndex,audioTrials_Loop.ran,audioBlocks_loop.thisRepN,audioBlocks_loop.thisTrialN,audioBlocks_loop.thisN,audioBlocks_loop.thisIndex,audioBlocks_loop.ran,ConditionFile,digitSpanTask_loop.thisRepN,digitSpanTask_loop.thisTrialN,digitSpanTask_loop.thisN,digitSpanTask_loop.thisIndex,digitSpanTask_loop.ran,dsFile,TASK_C.thisRepN,TASK_C.thisTrialN,TASK_C.thisN,TASK_C.thisIndex,TASK_C.ran,controlTaskOrder.thisRepN,controlTaskOrder.thisTrialN,controlTaskOrder.thisN,controlTaskOrder.thisIndex,controlTaskOrder.ran,nRepsTask1,nRepsTask2,nRepsTask3,vptCorrect,vpt_rt,respMouse.x,respMouse.y,respMouse.leftButton,respMouse.midButton,respMouse.rightButton,vptPracticeLoop.thisRepN,vptPracticeLoop.thisTrialN,vptPracticeLoop.thisN,vptPracticeLoop.thisIndex,vptPracticeLoop.ran,trialType,tiles,rows,cols,vptTrialLoop.thisRepN,vptTrialLoop.thisTrialN,vptTrialLoop.thisN,vptTrialLoop.thisIndex,vptTrialLoop.ran,noOfBlocks,TASK_B.thisRepN,TASK_B.thisTrialN,TASK_B.thisN,TASK_B.thisIndex,TASK_B.ran,stroopResp.keys,stroopResp.corr,stroopResp.rt,stroopPracLoop.thisRepN,stroopPracLoop.thisTrialN,stroopPracLoop.thisN,stroopPracLoop.thisIndex,stroopPracLoop.ran,stroopCond,leftNo,rightNo,displayProblem,numDistance,leftNo_size,rightNo_size,Dims,keyAnswer,stroopLoop.thisRepN,stroopLoop.thisTrialN,stroopLoop.thisN,stroopLoop.thisIndex,stroopLoop.ran,stroopBlocks.thisRepN,stroopBlocks.thisTrialN,stroopBlocks.thisN,stroopBlocks.thisIndex,stroopBlocks.ran,stroop_condition,stroop_pracFile,ActionInst,instrImage,TASK_A.thisRepN,TASK_A.thisTrialN,TASK_A.thisN,TASK_A.thisIndex,TASK_A.ran,veriStim_resp.keys,veriStim_resp.corr,veriStim_resp.rt,verificationPracLoop.thisRepN,verificationPracLoop.thisTrialN,verificationPracLoop.thisN,verificationPracLoop.thisIndex,verificationPracLoop.ran,mult_problem,mult_answer,mult_type,error_distance,interferenceScore,problemType,interferenceLevel,problemSize,img_leftButton,img_rightButton,veriLoop.thisRepN,veriLoop.thisTrialN,veriLoop.thisN,veriLoop.thisIndex,veriLoop.ran,veriBlock.thisRepN,veriBlock.thisTrialN,veriBlock.thisN,veriBlock.thisIndex,veriBlock.ran,verificationFiles,end_resp.keys,end_resp.rt
"[1200,833]",8251,CBA,11/12/2002,002,2023-04-11_18h37.50.511,OS3_Mult_verification,2022.2.4,MacIntel,60.0024001,,,,,,,,,,,,,,,,,,,,,,,,,,,,,,,,,,,,,,,,,,,,,,,,,,,,,,,,,,,,,,,,,,,,,,,,,,,,,,,,,,,,,,,,,,,,,,,,,,,,,,,,,,,,,,,,,,,,,,,,,,,,,,,,,,,,,,,,,,,,,,,,,,,,,,,,,,,,,,,,,,,,,,,,,,,,,,
,8251,CBA,11/12/2002,002,2023-04-11_18h37.50.511,OS3_Mult_verification,2022.2.4,MacIntel,60.0024001,,,,,,,,,,,,,,,,,,,,,,,,,,,,,,,,,,,,,,,,,,,,,,,,,,,,,,,,,,,,,,,,,,,,,,,,,,,,,,,,,,,,,,,,,,,,,,,,,,,,,,,,,,,,,,,,,,,,,,,,,,,,,,,,,,,,,,,,,,,,,,,,,,,,,,,,,,,,,,,,,,,,,,,,,,,,,,
,8251,CBA,11/12/2002,002,2023-04-11_18h37.50.511,OS3_Mult_verification,2022.2.4,MacIntel,60.0024001,space,18.9923,,,,,,,,,,,,,,,,,,,,,,,,,,,,,,,,,,,,,,,,,,,,,,,,,,,,,,,,,,,,,,,,,,,,,,,,,,,,,,,,,,,,,,,,,,,,,,,,,,,,,,,,,,,,,,,,,,,,,,,,,,,,,,,,,,,,,,,,,,,,,,,,,,,,,,,,,,,,,,,,,,,,,,,,,,,,
,8251,CBA,11/12/2002,002,2023-04-11_18h37.50.511,OS3_Mult_verification,2022.2.4,MacIntel,60.0024001,,,15,1.2492,1,"[""1"",""5"",""return""]","[0.8146999999992488,0.8492999999970152,1.214299999996996]",0,0,0,7,1,15,,,,,,,,,,,,,,,,,,,,,,,,,,,,,,,,,,,,,,,,,,,,,,,,,,,,,,,,,,,,,,,,,,,,,,,,,,,,,,,,,,,,,,,,,,,,,,,,,,,,,,,,,,,,,,,,,,,,,,,,,,,,,,,,,,,,,,,,,,,,,,,,,,,,,,,,,,,,,,,,,
,8251,CBA,11/12/2002,002,2023-04-11_18h37.50.511,OS3_Mult_verification,2022.2.4,MacIntel,60.0024001,,,63,1.4999,1,"[""6"",""3"",""return""]","[1.1321000000015147,1.382000000000005,1.4650000000000034]",0,1,1,27,1,63,,,,,,,,,,,,,,,,,,,,,,,,,,,,,,,,,,,,,,,,,,,,,,,,,,,,,,,,,,,,,,,,,,,,,,,,,,,,,,,,,,,,,,,,,,,,,,,,,,,,,,,,,,,,,,,,,,,,,,,,,,,,,,,,,,,,,,,,,,,,,,,,,,,,,,,,,,,,,,,,,
,8251,CBA,11/12/2002,002,2023-04-11_18h37.50.511,OS3_Mult_verification,2022.2.4,MacIntel,60.0024001,,,49,1.1176,1,"[""4"",""9"",""return""]","[0.7828000000007478,0.9340000000000259,1.083800000000764]",0,2,2,24,1,49,,,,,,,,,,,,,,,,,,,,,,,,,,,,,,,,,,,,,,,,,,,,,,,,,,,,,,,,,,,,,,,,,,,,,,,,,,,,,,,,,,,,,,,,,,,,,,,,,,,,,,,,,,,,,,,,,,,,,,,,,,,,,,,,,,,,,,,,,,,,,,,,,,,,,,,,,,,,,,,,,
,8251,CBA,11/12/2002,002,2023-04-11_18h37.50.511,OS3_Mult_verification,2022.2.4,MacIntel,60.0024001,,,12,0.7331,1,"[""1"",""2"",""return""]","[0.515599999997761,0.616500000000002,0.6995000000000005]",0,3,3,5,1,12,,,,,,,,,,,,,,,,,,,,,,,,,,,,,,,,,,,,,,,,,,,,,,,,,,,,,,,,,,,,,,,,,,,,,,,,,,,,,,,,,,,,,,,,,,,,,,,,,,,,,,,,,,,,,,,,,,,,,,,,,,,,,,,,,,,,,,,,,,,,,,,,,,,,,,,,,,,,,,,,,
,8251,CBA,11/12/2002,002,2023-04-11_18h37.50.511,OS3_Mult_verification,2022.2.4,MacIntel,60.0024001,,,4,0.7524,1,"[""4"",""return""]","[0.6325999999977796,0.7158000000007405]",0,4,4,0,1,4,,,,,,,,,,,,,,,,,,,,,,,,,,,,,,,,,,,,,,,,,,,,,,,,,,,,,,,,,,,,,,,,,,,,,,,,,,,,,,,,,,,,,,,,,,,,,,,,,,,,,,,,,,,,,,,,,,,,,,,,,,,,,,,,,,,,,,,,,,,,,,,,,,,,,,,,,,,,,,,,,
,8251,CBA,11/12/2002,002,2023-04-11_18h37.50.511,OS3_Mult_verification,2022.2.4,MacIntel,60.0024001,,,64,1.1329,1,"[""6"",""4"",""return""]","[0.9003000000007546,1,1.100500000000011]",0,5,5,28,1,64,,,,,,,,,,,,,,,,,,,,,,,,,,,,,,,,,,,,,,,,,,,,,,,,,,,,,,,,,,,,,,,,,,,,,,,,,,,,,,,,,,,,,,,,,,,,,,,,,,,,,,,,,,,,,,,,,,,,,,,,,,,,,,,,,,,,,,,,,,,,,,,,,,,,,,,,,,,,,,,,,
,8251,CBA,11/12/2002,002,2023-04-11_18h37.50.511,OS3_Mult_verification,2022.2.4,MacIntel,60.0024001,,,27,1.3364,1,"[""2"",""7"",""return""]","[0.6831999999992604,1.0671000000014885,1.2998000000007437]",0,6,6,14,1,27,,,,,,,,,,,,,,,,,,,,,,,,,,,,,,,,,,,,,,,,,,,,,,,,,,,,,,,,,,,,,,,,,,,,,,,,,,,,,,,,,,,,,,,,,,,,,,,,,,,,,,,,,,,,,,,,,,,,,,,,,,,,,,,,,,,,,,,,,,,,,,,,,,,,,,,,,,,,,,,,,
,8251,CBA,11/12/2002,002,2023-04-11_18h37.50.511,OS3_Mult_verification,2022.2.4,MacIntel,60.0024001,,,16,1.101,1,"[""1"",""6"",""return""]","[0.6005000000000109,0.8509000000022411,1.0637000000029957]",0,7,7,8,1,16,,,,,,,,,,,,,,,,,,,,,,,,,,,,,,,,,,,,,,,,,,,,,,,,,,,,,,,,,,,,,,,,,,,,,,,,,,,,,,,,,,,,,,,,,,,,,,,,,,,,,,,,,,,,,,,,,,,,,,,,,,,,,,,,,,,,,,,,,,,,,,,,,,,,,,,,,,,,,,,,,
,8251,CBA,11/12/2002,002,2023-04-11_18h37.50.511,OS3_Mult_verification,2022.2.4,MacIntel,60.0024001,,,81,0.916,1,"[""8"",""1"",""return""]","[0.7153000000007523,0.8150999999977842,0.8823000000007539]",0,8,8,30,1,81,,,,,,,,,,,,,,,,,,,,,,,,,,,,,,,,,,,,,,,,,,,,,,,,,,,,,,,,,,,,,,,,,,,,,,,,,,,,,,,,,,,,,,,,,,,,,,,,,,,,,,,,,,,,,,,,,,,,,,,,,,,,,,,,,,,,,,,,,,,,,,,,,,,,,,,,,,,,,,,,,
,8251,CBA,11/12/2002,002,2023-04-11_18h37.50.511,OS3_Mult_verification,2022.2.4,MacIntel,60.0024001,,,25,1.0003,1,"[""2"",""5"",""return""]","[0.5995000000000061,0.8485000000000014,0.9656000000015013]",0,9,9,13,1,25,,,,,,,,,,,,,,,,,,,,,,,,,,,,,,,,,,,,,,,,,,,,,,,,,,,,,,,,,,,,,,,,,,,,,,,,,,,,,,,,,,,,,,,,,,,,,,,,,,,,,,,,,,,,,,,,,,,,,,,,,,,,,,,,,,,,,,,,,,,,,,,,,,,,,,,,,,,,,,,,,
,8251,CBA,11/12/2002,002,2023-04-11_18h37.50.511,OS3_Mult_verification,2022.2.4,MacIntel,60.0024001,,,48,1.1833,1,"[""4"",""8"",""return""]","[0.8999000000022477,1.0336999999992713,1.1488000000007617]",0,10,10,23,1,48,,,,,,,,,,,,,,,,,,,,,,,,,,,,,,,,,,,,,,,,,,,,,,,,,,,,,,,,,,,,,,,,,,,,,,,,,,,,,,,,,,,,,,,,,,,,,,,,,,,,,,,,,,,,,,,,,,,,,,,,,,,,,,,,,,,,,,,,,,,,,,,,,,,,,,,,,,,,,,,,,
,8251,CBA,11/12/2002,002,2023-04-11_18h37.50.511,OS3_Mult_verification,2022.2.4,MacIntel,60.0024001,,,6,0.9183,1,"[""6"",""return""]","[0.802800000000758,0.883100000001491]",0,11,11,1,1,6,,,,,,,,,,,,,,,,,,,,,,,,,,,,,,,,,,,,,,,,,,,,,,,,,,,,,,,,,,,,,,,,,,,,,,,,,,,,,,,,,,,,,,,,,,,,,,,,,,,,,,,,,,,,,,,,,,,,,,,,,,,,,,,,,,,,,,,,,,,,,,,,,,,,,,,,,,,,,,,,,
,8251,CBA,11/12/2002,002,2023-04-11_18h37.50.511,OS3_Mult_verification,2022.2.4,MacIntel,60.0024001,,,28,0.9,1,"[""2"",""8"",""return""]","[0.5194999999999936,0.7501999999992677,0.8678999999985137]",0,12,12,15,1,28,,,,,,,,,,,,,,,,,,,,,,,,,,,,,,,,,,,,,,,,,,,,,,,,,,,,,,,,,,,,,,,,,,,,,,,,,,,,,,,,,,,,,,,,,,,,,,,,,,,,,,,,,,,,,,,,,,,,,,,,,,,,,,,,,,,,,,,,,,,,,,,,,,,,,,,,,,,,,,,,,
,8251,CBA,11/12/2002,002,2023-04-11_18h37.50.511,OS3_Mult_verification,2022.2.4,MacIntel,60.0024001,,,30,1.3664,1,"[""3"",""0"",""return""]","[0.8661000000014951,1.0989000000022315,1.3321000000014749]",0,13,13,16,1,30,,,,,,,,,,,,,,,,,,,,,,,,,,,,,,,,,,,,,,,,,,,,,,,,,,,,,,,,,,,,,,,,,,,,,,,,,,,,,,,,,,,,,,,,,,,,,,,,,,,,,,,,,,,,,,,,,,,,,,,,,,,,,,,,,,,,,,,,,,,,,,,,,,,,,,,,,,,,,,,,,
,8251,CBA,11/12/2002,002,2023-04-11_18h37.50.511,OS3_Mult_verification,2022.2.4,MacIntel,60.0024001,,,45,1.0831,1,"[""4"",""5"",""return""]","[0.8527999999970177,0.9339999999999975,1.0506999999992672]",0,14,14,22,1,45,,,,,,,,,,,,,,,,,,,,,,,,,,,,,,,,,,,,,,,,,,,,,,,,,,,,,,,,,,,,,,,,,,,,,,,,,,,,,,,,,,,,,,,,,,,,,,,,,,,,,,,,,,,,,,,,,,,,,,,,,,,,,,,,,,,,,,,,,,,,,,,,,,,,,,,,,,,,,,,,,
,8251,CBA,11/12/2002,002,2023-04-11_18h37.50.511,OS3_Mult_verification,2022.2.4,MacIntel,60.0024001,,,9,0.8322,1,"[""9"",""return""]","[0.6816999999992674,0.7960000000000207]",0,15,15,3,1,9,,,,,,,,,,,,,,,,,,,,,,,,,,,,,,,,,,,,,,,,,,,,,,,,,,,,,,,,,,,,,,,,,,,,,,,,,,,,,,,,,,,,,,,,,,,,,,,,,,,,,,,,,,,,,,,,,,,,,,,,,,,,,,,,,,,,,,,,,,,,,,,,,,,,,,,,,,,,,,,,,
,8251,CBA,11/12/2002,002,2023-04-11_18h37.50.511,OS3_Mult_verification,2022.2.4,MacIntel,60.0024001,,,56,1.0994,1,"[""5"",""6"",""return""]","[0.7158999999984985,0.9323999999984949,1.0649999999999977]",0,16,16,26,1,56,,,,,,,,,,,,,,,,,,,,,,,,,,,,,,,,,,,,,,,,,,,,,,,,,,,,,,,,,,,,,,,,,,,,,,,,,,,,,,,,,,,,,,,,,,,,,,,,,,,,,,,,,,,,,,,,,,,,,,,,,,,,,,,,,,,,,,,,,,,,,,,,,,,,,,,,,,,,,,,,,
,8251,CBA,11/12/2002,002,2023-04-11_18h37.50.511,OS3_Mult_verification,2022.2.4,MacIntel,60.0024001,,,21,0.6679,1,"[""2"",""1"",""return""]","[0.5161000000014724,0.6001999999992336,0.633199999999249]",0,17,17,11,1,21,,,,,,,,,,,,,,,,,,,,,,,,,,,,,,,,,,,,,,,,,,,,,,,,,,,,,,,,,,,,,,,,,,,,,,,,,,,,,,,,,,,,,,,,,,,,,,,,,,,,,,,,,,,,,,,,,,,,,,,,,,,,,,,,,,,,,,,,,,,,,,,,,,,,,,,,,,,,,,,,,
,8251,CBA,11/12/2002,002,2023-04-11_18h37.50.511,OS3_Mult_verification,2022.2.4,MacIntel,60.0024001,,,32,0.7828,1,"[""3"",""2"",""return""]","[0.5866999999992402,0.6494999999999891,0.7503000000007489]",0,18,18,17,1,32,,,,,,,,,,,,,,,,,,,,,,,,,,,,,,,,,,,,,,,,,,,,,,,,,,,,,,,,,,,,,,,,,,,,,,,,,,,,,,,,,,,,,,,,,,,,,,,,,,,,,,,,,,,,,,,,,,,,,,,,,,,,,,,,,,,,,,,,,,,,,,,,,,,,,,,,,,,,,,,,,
,8251,CBA,11/12/2002,002,2023-04-11_18h37.50.511,OS3_Mult_verification,2022.2.4,MacIntel,60.0024001,,,72,1.1837,1,"[""7"",""2"",""return""]","[0.9675999999977591,1.0999999999999943,1.1508000000007428]",0,19,19,29,1,72,,,,,,,,,,,,,,,,,,,,,,,,,,,,,,,,,,,,,,,,,,,,,,,,,,,,,,,,,,,,,,,,,,,,,,,,,,,,,,,,,,,,,,,,,,,,,,,,,,,,,,,,,,,,,,,,,,,,,,,,,,,,,,,,,,,,,,,,,,,,,,,,,,,,,,,,,,,,,,,,,
,8251,CBA,11/12/2002,002,2023-04-11_18h37.50.511,OS3_Mult_verification,2022.2.4,MacIntel,60.0024001,,,54,1.7651,1,"[""4"",""backspace"",""5"",""4"",""return""]","[0.7998000000007437,1.3828999999985285,1.4486999999992634,1.5688999999985072,1.733000000000004]",0,20,20,25,1,54,,,,,,,,,,,,,,,,,,,,,,,,,,,,,,,,,,,,,,,,,,,,,,,,,,,,,,,,,,,,,,,,,,,,,,,,,,,,,,,,,,,,,,,,,,,,,,,,,,,,,,,,,,,,,,,,,,,,,,,,,,,,,,,,,,,,,,,,,,,,,,,,,,,,,,,,,,,,,,,,,
,8251,CBA,11/12/2002,002,2023-04-11_18h37.50.511,OS3_Mult_verification,2022.2.4,MacIntel,60.0024001,,,8,1.0663,1,"[""8"",""return""]","[0.933100000001474,1.0324999999999989]",0,21,21,2,1,8,,,,,,,,,,,,,,,,,,,,,,,,,,,,,,,,,,,,,,,,,,,,,,,,,,,,,,,,,,,,,,,,,,,,,,,,,,,,,,,,,,,,,,,,,,,,,,,,,,,,,,,,,,,,,,,,,,,,,,,,,,,,,,,,,,,,,,,,,,,,,,,,,,,,,,,,,,,,,,,,,
,8251,CBA,11/12/2002,002,2023-04-11_18h37.50.511,OS3_Mult_verification,2022.2.4,MacIntel,60.0024001,,,40,1.0659,1,"[""4"",""0"",""return""]","[0.882000000000005,0.9818999999985181,1.0341999999992595]",0,22,22,20,1,40,,,,,,,,,,,,,,,,,,,,,,,,,,,,,,,,,,,,,,,,,,,,,,,,,,,,,,,,,,,,,,,,,,,,,,,,,,,,,,,,,,,,,,,,,,,,,,,,,,,,,,,,,,,,,,,,,,,,,,,,,,,,,,,,,,,,,,,,,,,,,,,,,,,,,,,,,,,,,,,,,
,8251,CBA,11/12/2002,002,2023-04-11_18h37.50.511,OS3_Mult_verification,2022.2.4,MacIntel,60.0024001,,,18,0.9497,1,"[""1"",""8"",""return""]","[0.5820999999977516,0.8329999999999984,0.9159999999999968]",0,23,23,9,1,18,,,,,,,,,,,,,,,,,,,,,,,,,,,,,,,,,,,,,,,,,,,,,,,,,,,,,,,,,,,,,,,,,,,,,,,,,,,,,,,,,,,,,,,,,,,,,,,,,,,,,,,,,,,,,,,,,,,,,,,,,,,,,,,,,,,,,,,,,,,,,,,,,,,,,,,,,,,,,,,,,
,8251,CBA,11/12/2002,002,2023-04-11_18h37.50.511,OS3_Mult_verification,2022.2.4,MacIntel,60.0024001,,,20,0.7831,1,"[""2"",""0"",""return""]","[0.5673000000007562,0.6841999999992652,0.7535000000000025]",0,24,24,10,1,20,,,,,,,,,,,,,,,,,,,,,,,,,,,,,,,,,,,,,,,,,,,,,,,,,,,,,,,,,,,,,,,,,,,,,,,,,,,,,,,,,,,,,,,,,,,,,,,,,,,,,,,,,,,,,,,,,,,,,,,,,,,,,,,,,,,,,,,,,,,,,,,,,,,,,,,,,,,,,,,,,
,8251,CBA,11/12/2002,002,2023-04-11_18h37.50.511,OS3_Mult_verification,2022.2.4,MacIntel,60.0024001,,,36,1.1987,1,"[""3"",""6"",""return""]","[0.7508000000007371,0.980499999999978,1.1666999999992527]",0,25,25,19,1,36,,,,,,,,,,,,,,,,,,,,,,,,,,,,,,,,,,,,,,,,,,,,,,,,,,,,,,,,,,,,,,,,,,,,,,,,,,,,,,,,,,,,,,,,,,,,,,,,,,,,,,,,,,,,,,,,,,,,,,,,,,,,,,,,,,,,,,,,,,,,,,,,,,,,,,,,,,,,,,,,,
,8251,CBA,11/12/2002,002,2023-04-11_18h37.50.511,OS3_Mult_verification,2022.2.4,MacIntel,60.0024001,,,42,1.1833,1,"[""4"",""2"",""return""]","[0.8331999999992377,1.0335999999977616,1.1500000000000057]",0,26,26,21,1,42,,,,,,,,,,,,,,,,,,,,,,,,,,,,,,,,,,,,,,,,,,,,,,,,,,,,,,,,,,,,,,,,,,,,,,,,,,,,,,,,,,,,,,,,,,,,,,,,,,,,,,,,,,,,,,,,,,,,,,,,,,,,,,,,,,,,,,,,,,,,,,,,,,,,,,,,,,,,,,,,,
,8251,CBA,11/12/2002,002,2023-04-11_18h37.50.511,OS3_Mult_verification,2022.2.4,MacIntel,60.0024001,,,14,0.7993,1,"[""1"",""4"",""return""]","[0.5331999999992547,0.666400000002227,0.7688000000007378]",0,27,27,6,1,14,,,,,,,,,,,,,,,,,,,,,,,,,,,,,,,,,,,,,,,,,,,,,,,,,,,,,,,,,,,,,,,,,,,,,,,,,,,,,,,,,,,,,,,,,,,,,,,,,,,,,,,,,,,,,,,,,,,,,,,,,,,,,,,,,,,,,,,,,,,,,,,,,,,,,,,,,,,,,,,,,
,8251,CBA,11/12/2002,002,2023-04-11_18h37.50.511,OS3_Mult_verification,2022.2.4,MacIntel,60.0024001,,,24,0.8669,1,"[""2"",""4"",""return""]","[0.5493000000007271,0.6329999999999814,0.8356000000014774]",0,28,28,12,1,24,,,,,,,,,,,,,,,,,,,,,,,,,,,,,,,,,,,,,,,,,,,,,,,,,,,,,,,,,,,,,,,,,,,,,,,,,,,,,,,,,,,,,,,,,,,,,,,,,,,,,,,,,,,,,,,,,,,,,,,,,,,,,,,,,,,,,,,,,,,,,,,,,,,,,,,,,,,,,,,,,
,8251,CBA,11/12/2002,002,2023-04-11_18h37.50.511,OS3_Mult_verification,2022.2.4,MacIntel,60.0024001,,,35,1.449,1,"[""4"",""backspace"",""3"",""5"",""return""]","[0.6316999999992561,1.0323999999985176,1.132300000000754,1.3323000000007426,1.4155999999977666]",0,29,29,18,1,35,,,,,,,,,,,,,,,,,,,,,,,,,,,,,,,,,,,,,,,,,,,,,,,,,,,,,,,,,,,,,,,,,,,,,,,,,,,,,,,,,,,,,,,,,,,,,,,,,,,,,,,,,,,,,,,,,,,,,,,,,,,,,,,,,,,,,,,,,,,,,,,,,,,,,,,,,,,,,,,,,
,8251,CBA,11/12/2002,002,2023-04-11_18h37.50.511,OS3_Mult_verification,2022.2.4,MacIntel,60.0024001,,,10,0.8335,1,"[""1"",""0"",""return""]","[0.4511999999992611,0.684800000000763,0.8011999999992554]",0,30,30,4,1,10,,,,,,,,,,,,,,,,,,,,,,,,,,,,,,,,,,,,,,,,,,,,,,,,,,,,,,,,,,,,,,,,,,,,,,,,,,,,,,,,,,,,,,,,,,,,,,,,,,,,,,,,,,,,,,,,,,,,,,,,,,,,,,,,,,,,,,,,,,,,,,,,,,,,,,,,,,,,,,,,,
,8251,CBA,11/12/2002,002,2023-04-11_18h37.50.511,OS3_Mult_verification,2022.2.4,MacIntel,60.0024001,,,49,1.1494,1,"[""4"",""9"",""return""]","[0.8652000000029716,0.9994000000022254,1.1161000000014667]",1,0,31,24,1,49,,,,,,,,,,,,,,,,,,,,,,,,,,,,,,,,,,,,,,,,,,,,,,,,,,,,,,,,,,,,,,,,,,,,,,,,,,,,,,,,,,,,,,,,,,,,,,,,,,,,,,,,,,,,,,,,,,,,,,,,,,,,,,,,,,,,,,,,,,,,,,,,,,,,,,,,,,,,,,,,,
,8251,CBA,11/12/2002,002,2023-04-11_18h37.50.511,OS3_Mult_verification,2022.2.4,MacIntel,60.0024001,,,32,0.9,1,"[""3"",""2"",""return""]","[0.682099999997746,0.7663999999984981,0.8659999999999854]",1,1,32,17,1,32,,,,,,,,,,,,,,,,,,,,,,,,,,,,,,,,,,,,,,,,,,,,,,,,,,,,,,,,,,,,,,,,,,,,,,,,,,,,,,,,,,,,,,,,,,,,,,,,,,,,,,,,,,,,,,,,,,,,,,,,,,,,,,,,,,,,,,,,,,,,,,,,,,,,,,,,,,,,,,,,,
,8251,CBA,11/12/2002,002,2023-04-11_18h37.50.511,OS3_Mult_verification,2022.2.4,MacIntel,60.0024001,,,12,0.6839,1,"[""1"",""2"",""return""]","[0.4334999999999809,0.4841999999992481,0.6489999999999725]",1,2,33,5,1,12,,,,,,,,,,,,,,,,,,,,,,,,,,,,,,,,,,,,,,,,,,,,,,,,,,,,,,,,,,,,,,,,,,,,,,,,,,,,,,,,,,,,,,,,,,,,,,,,,,,,,,,,,,,,,,,,,,,,,,,,,,,,,,,,,,,,,,,,,,,,,,,,,,,,,,,,,,,,,,,,,
,8251,CBA,11/12/2002,002,2023-04-11_18h37.50.511,OS3_Mult_verification,2022.2.4,MacIntel,60.0024001,,,30,0.7839,1,"[""3"",""0"",""return""]","[0.516600000001489,0.6825000000000045,0.7495000000000118]",1,3,34,16,1,30,,,,,,,,,,,,,,,,,,,,,,,,,,,,,,,,,,,,,,,,,,,,,,,,,,,,,,,,,,,,,,,,,,,,,,,,,,,,,,,,,,,,,,,,,,,,,,,,,,,,,,,,,,,,,,,,,,,,,,,,,,,,,,,,,,,,,,,,,,,,,,,,,,,,,,,,,,,,,,,,,
,8251,CBA,11/12/2002,002,2023-04-11_18h37.50.511,OS3_Mult_verification,2022.2.4,MacIntel,60.0024001,,,21,0.8169,1,"[""2"",""1"",""return""]","[0.6336999999992372,0.7019999999999982,0.783399999998494]",1,4,35,11,1,21,,,,,,,,,,,,,,,,,,,,,,,,,,,,,,,,,,,,,,,,,,,,,,,,,,,,,,,,,,,,,,,,,,,,,,,,,,,,,,,,,,,,,,,,,,,,,,,,,,,,,,,,,,,,,,,,,,,,,,,,,,,,,,,,,,,,,,,,,,,,,,,,,,,,,,,,,,,,,,,,,
,8251,CBA,11/12/2002,002,2023-04-11_18h37.50.511,OS3_Mult_verification,2022.2.4,MacIntel,60.0024001,,,8,1.0498,1,"[""8"",""return""]","[0.749900000002242,1.0191000000014867]",1,5,36,2,1,8,,,,,,,,,,,,,,,,,,,,,,,,,,,,,,,,,,,,,,,,,,,,,,,,,,,,,,,,,,,,,,,,,,,,,,,,,,,,,,,,,,,,,,,,,,,,,,,,,,,,,,,,,,,,,,,,,,,,,,,,,,,,,,,,,,,,,,,,,,,,,,,,,,,,,,,,,,,,,,,,,
,8251,CBA,11/12/2002,002,2023-04-11_18h37.50.511,OS3_Mult_verification,2022.2.4,MacIntel,60.0024001,,,63,1.2837,1,"[""6"",""3"",""return""]","[0.9664999999999964,1.1668999999985203,1.2495999999977698]",1,6,37,27,1,63,,,,,,,,,,,,,,,,,,,,,,,,,,,,,,,,,,,,,,,,,,,,,,,,,,,,,,,,,,,,,,,,,,,,,,,,,,,,,,,,,,,,,,,,,,,,,,,,,,,,,,,,,,,,,,,,,,,,,,,,,,,,,,,,,,,,,,,,,,,,,,,,,,,,,,,,,,,,,,,,,
,8251,CBA,11/12/2002,002,2023-04-11_18h37.50.511,OS3_Mult_verification,2022.2.4,MacIntel,60.0024001,,,9,0.7505,1,"[""9"",""return""]","[0.6014000000022293,0.717000000000013]",1,7,38,3,1,9,,,,,,,,,,,,,,,,,,,,,,,,,,,,,,,,,,,,,,,,,,,,,,,,,,,,,,,,,,,,,,,,,,,,,,,,,,,,,,,,,,,,,,,,,,,,,,,,,,,,,,,,,,,,,,,,,,,,,,,,,,,,,,,,,,,,,,,,,,,,,,,,,,,,,,,,,,,,,,,,,
,8251,CBA,11/12/2002,002,2023-04-11_18h37.50.511,OS3_Mult_verification,2022.2.4,MacIntel,60.0024001,,,25,1.3329,1,"[""2"",""5"",""return""]","[0.515500000000003,1.015299999997012,1.298599999997748]",1,8,39,13,1,25,,,,,,,,,,,,,,,,,,,,,,,,,,,,,,,,,,,,,,,,,,,,,,,,,,,,,,,,,,,,,,,,,,,,,,,,,,,,,,,,,,,,,,,,,,,,,,,,,,,,,,,,,,,,,,,,,,,,,,,,,,,,,,,,,,,,,,,,,,,,,,,,,,,,,,,,,,,,,,,,,
,8251,CBA,11/12/2002,002,2023-04-11_18h37.50.511,OS3_Mult_verification,2022.2.4,MacIntel,60.0024001,,,15,0.883,1,"[""1"",""5"",""return""]","[0.5831000000015081,0.7331000000014853,0.8504000000022529]",1,9,40,7,1,15,,,,,,,,,,,,,,,,,,,,,,,,,,,,,,,,,,,,,,,,,,,,,,,,,,,,,,,,,,,,,,,,,,,,,,,,,,,,,,,,,,,,,,,,,,,,,,,,,,,,,,,,,,,,,,,,,,,,,,,,,,,,,,,,,,,,,,,,,,,,,,,,,,,,,,,,,,,,,,,,,
,8251,CBA,11/12/2002,002,2023-04-11_18h37.50.511,OS3_Mult_verification,2022.2.4,MacIntel,60.0024001,,,16,1.1169,1,"[""1"",""6"",""return""]","[0.7504999999999882,0.9499999999999886,1.0840999999977612]",1,10,41,8,1,16,,,,,,,,,,,,,,,,,,,,,,,,,,,,,,,,,,,,,,,,,,,,,,,,,,,,,,,,,,,,,,,,,,,,,,,,,,,,,,,,,,,,,,,,,,,,,,,,,,,,,,,,,,,,,,,,,,,,,,,,,,,,,,,,,,,,,,,,,,,,,,,,,,,,,,,,,,,,,,,,,
,8251,CBA,11/12/2002,002,2023-04-11_18h37.50.511,OS3_Mult_verification,2022.2.4,MacIntel,60.0024001,,,56,1.2007,1,"[""5"",""6"",""return""]","[0.7326999999992267,1.0168000000007282,1.166800000000734]",1,11,42,26,1,56,,,,,,,,,,,,,,,,,,,,,,,,,,,,,,,,,,,,,,,,,,,,,,,,,,,,,,,,,,,,,,,,,,,,,,,,,,,,,,,,,,,,,,,,,,,,,,,,,,,,,,,,,,,,,,,,,,,,,,,,,,,,,,,,,,,,,,,,,,,,,,,,,,,,,,,,,,,,,,,,,
,8251,CBA,11/12/2002,002,2023-04-11_18h37.50.511,OS3_Mult_verification,2022.2.4,MacIntel,60.0024001,,,64,1.0168,1,"[""6"",""4"",""return""]","[0.7688999999985242,0.8685999999977696,0.9832999999970298]",1,12,43,28,1,64,,,,,,,,,,,,,,,,,,,,,,,,,,,,,,,,,,,,,,,,,,,,,,,,,,,,,,,,,,,,,,,,,,,,,,,,,,,,,,,,,,,,,,,,,,,,,,,,,,,,,,,,,,,,,,,,,,,,,,,,,,,,,,,,,,,,,,,,,,,,,,,,,,,,,,,,,,,,,,,,,
,8251,CBA,11/12/2002,002,2023-04-11_18h37.50.511,OS3_Mult_verification,2022.2.4,MacIntel,60.0024001,,,18,1.1502,1,"[""1"",""8"",""return""]","[0.4502999999970143,0.9370000000000118,1.116500000000002]",1,13,44,9,1,18,,,,,,,,,,,,,,,,,,,,,,,,,,,,,,,,,,,,,,,,,,,,,,,,,,,,,,,,,,,,,,,,,,,,,,,,,,,,,,,,,,,,,,,,,,,,,,,,,,,,,,,,,,,,,,,,,,,,,,,,,,,,,,,,,,,,,,,,,,,,,,,,,,,,,,,,,,,,,,,,,
,8251,CBA,11/12/2002,002,2023-04-11_18h37.50.511,OS3_Mult_verification,2022.2.4,MacIntel,60.0024001,,,27,1.0665,1,"[""2"",""7"",""return""]","[0.5658999999984928,0.8688999999985185,1.0335000000000036]",1,14,45,14,1,27,,,,,,,,,,,,,,,,,,,,,,,,,,,,,,,,,,,,,,,,,,,,,,,,,,,,,,,,,,,,,,,,,,,,,,,,,,,,,,,,,,,,,,,,,,,,,,,,,,,,,,,,,,,,,,,,,,,,,,,,,,,,,,,,,,,,,,,,,,,,,,,,,,,,,,,,,,,,,,,,,
,8251,CBA,11/12/2002,002,2023-04-11_18h37.50.511,OS3_Mult_verification,2022.2.4,MacIntel,60.0024001,,,6,1.0666,1,"[""6"",""return""]","[0.8658000000007462,1.0355000000000132]",1,15,46,1,1,6,,,,,,,,,,,,,,,,,,,,,,,,,,,,,,,,,,,,,,,,,,,,,,,,,,,,,,,,,,,,,,,,,,,,,,,,,,,,,,,,,,,,,,,,,,,,,,,,,,,,,,,,,,,,,,,,,,,,,,,,,,,,,,,,,,,,,,,,,,,,,,,,,,,,,,,,,,,,,,,,,
,8251,CBA,11/12/2002,002,2023-04-11_18h37.50.511,OS3_Mult_verification,2022.2.4,MacIntel,60.0024001,,,54,1.2018,1,"[""5"",""4"",""return""]","[0.9819999999999993,1.1330000000000098,1.1675000000000182]",1,16,47,25,1,54,,,,,,,,,,,,,,,,,,,,,,,,,,,,,,,,,,,,,,,,,,,,,,,,,,,,,,,,,,,,,,,,,,,,,,,,,,,,,,,,,,,,,,,,,,,,,,,,,,,,,,,,,,,,,,,,,,,,,,,,,,,,,,,,,,,,,,,,,,,,,,,,,,,,,,,,,,,,,,,,,
,8251,CBA,11/12/2002,002,2023-04-11_18h37.50.511,OS3_Mult_verification,2022.2.4,MacIntel,60.0024001,,,48,1.0336,1,"[""4"",""8"",""return""]","[0.616899999998509,0.899800000000738,0.9990999999977532]",1,17,48,23,1,48,,,,,,,,,,,,,,,,,,,,,,,,,,,,,,,,,,,,,,,,,,,,,,,,,,,,,,,,,,,,,,,,,,,,,,,,,,,,,,,,,,,,,,,,,,,,,,,,,,,,,,,,,,,,,,,,,,,,,,,,,,,,,,,,,,,,,,,,,,,,,,,,,,,,,,,,,,,,,,,,,
,8251,CBA,11/12/2002,002,2023-04-11_18h37.50.511,OS3_Mult_verification,2022.2.4,MacIntel,60.0024001,,,4,0.7164,1,"[""4"",""return""]","[0.5347000000029709,0.6844000000022277]",1,18,49,0,1,4,,,,,,,,,,,,,,,,,,,,,,,,,,,,,,,,,,,,,,,,,,,,,,,,,,,,,,,,,,,,,,,,,,,,,,,,,,,,,,,,,,,,,,,,,,,,,,,,,,,,,,,,,,,,,,,,,,,,,,,,,,,,,,,,,,,,,,,,,,,,,,,,,,,,,,,,,,,,,,,,,
,8251,CBA,11/12/2002,002,2023-04-11_18h37.50.511,OS3_Mult_verification,2022.2.4,MacIntel,60.0024001,,,24,0.8338,1,"[""2"",""4"",""return""]","[0.5163000000007401,0.6491999999992402,0.7993000000007271]",1,19,50,12,1,24,,,,,,,,,,,,,,,,,,,,,,,,,,,,,,,,,,,,,,,,,,,,,,,,,,,,,,,,,,,,,,,,,,,,,,,,,,,,,,,,,,,,,,,,,,,,,,,,,,,,,,,,,,,,,,,,,,,,,,,,,,,,,,,,,,,,,,,,,,,,,,,,,,,,,,,,,,,,,,,,,
,8251,CBA,11/12/2002,002,2023-04-11_18h37.50.511,OS3_Mult_verification,2022.2.4,MacIntel,60.0024001,,,42,0.9173,1,"[""4"",""2"",""return""]","[0.5515000000000043,0.6163000000007628,0.8843000000007635]",1,20,51,21,1,42,,,,,,,,,,,,,,,,,,,,,,,,,,,,,,,,,,,,,,,,,,,,,,,,,,,,,,,,,,,,,,,,,,,,,,,,,,,,,,,,,,,,,,,,,,,,,,,,,,,,,,,,,,,,,,,,,,,,,,,,,,,,,,,,,,,,,,,,,,,,,,,,,,,,,,,,,,,,,,,,,
,8251,CBA,11/12/2002,002,2023-04-11_18h37.50.511,OS3_Mult_verification,2022.2.4,MacIntel,60.0024001,,,20,1.3496,0,"[""2"",""4"",""backspace"",""0"",""return""]","[0.4003000000007546,0.48280000000076484,1.0165999999977657,1.1498999999985244,1.316500000000019]",1,21,52,20,1,40,,,,,,,,,,,,,,,,,,,,,,,,,,,,,,,,,,,,,,,,,,,,,,,,,,,,,,,,,,,,,,,,,,,,,,,,,,,,,,,,,,,,,,,,,,,,,,,,,,,,,,,,,,,,,,,,,,,,,,,,,,,,,,,,,,,,,,,,,,,,,,,,,,,,,,,,,,,,,,,,,
,8251,CBA,11/12/2002,002,2023-04-11_18h37.50.511,OS3_Mult_verification,2022.2.4,MacIntel,60.0024001,,,81,1.1152,1,"[""8"",""1"",""return""]","[0.9354999999999905,1.016600000001489,1.0836000000014963]",1,22,53,30,1,81,,,,,,,,,,,,,,,,,,,,,,,,,,,,,,,,,,,,,,,,,,,,,,,,,,,,,,,,,,,,,,,,,,,,,,,,,,,,,,,,,,,,,,,,,,,,,,,,,,,,,,,,,,,,,,,,,,,,,,,,,,,,,,,,,,,,,,,,,,,,,,,,,,,,,,,,,,,,,,,,,
,8251,CBA,11/12/2002,002,2023-04-11_18h37.50.511,OS3_Mult_verification,2022.2.4,MacIntel,60.0024001,,,10,0.7494,1,"[""1"",""0"",""return""]","[0.4811999999992622,0.6154999999999973,0.71550000000002]",1,23,54,4,1,10,,,,,,,,,,,,,,,,,,,,,,,,,,,,,,,,,,,,,,,,,,,,,,,,,,,,,,,,,,,,,,,,,,,,,,,,,,,,,,,,,,,,,,,,,,,,,,,,,,,,,,,,,,,,,,,,,,,,,,,,,,,,,,,,,,,,,,,,,,,,,,,,,,,,,,,,,,,,,,,,,
,8251,CBA,11/12/2002,002,2023-04-11_18h37.50.511,OS3_Mult_verification,2022.2.4,MacIntel,60.0024001,,,36,1.2996,1,"[""3"",""6"",""return""]","[0.7337000000029832,1.1338000000007469,1.2707000000029893]",1,24,55,19,1,36,,,,,,,,,,,,,,,,,,,,,,,,,,,,,,,,,,,,,,,,,,,,,,,,,,,,,,,,,,,,,,,,,,,,,,,,,,,,,,,,,,,,,,,,,,,,,,,,,,,,,,,,,,,,,,,,,,,,,,,,,,,,,,,,,,,,,,,,,,,,,,,,,,,,,,,,,,,,,,,,,
,8251,CBA,11/12/2002,002,2023-04-11_18h37.50.511,OS3_Mult_verification,2022.2.4,MacIntel,60.0024001,,,72,1.1502,1,"[""7"",""2"",""return""]","[0.9991999999992629,1.0661999999992702,1.115699999999265]",1,25,56,29,1,72,,,,,,,,,,,,,,,,,,,,,,,,,,,,,,,,,,,,,,,,,,,,,,,,,,,,,,,,,,,,,,,,,,,,,,,,,,,,,,,,,,,,,,,,,,,,,,,,,,,,,,,,,,,,,,,,,,,,,,,,,,,,,,,,,,,,,,,,,,,,,,,,,,,,,,,,,,,,,,,,,
,8251,CBA,11/12/2002,002,2023-04-11_18h37.50.511,OS3_Mult_verification,2022.2.4,MacIntel,60.0024001,,,14,0.8339,1,"[""1"",""4"",""return""]","[0.5670000000000073,0.6841999999992652,0.8008000000007485]",1,26,57,6,1,14,,,,,,,,,,,,,,,,,,,,,,,,,,,,,,,,,,,,,,,,,,,,,,,,,,,,,,,,,,,,,,,,,,,,,,,,,,,,,,,,,,,,,,,,,,,,,,,,,,,,,,,,,,,,,,,,,,,,,,,,,,,,,,,,,,,,,,,,,,,,,,,,,,,,,,,,,,,,,,,,,
,8251,CBA,11/12/2002,002,2023-04-11_18h37.50.511,OS3_Mult_verification,2022.2.4,MacIntel,60.0024001,,,35,1.334,1,"[""3"",""5"",""return""]","[0.799699999999234,0.9993000000007441,1.3016000000014856]",1,27,58,18,1,35,,,,,,,,,,,,,,,,,,,,,,,,,,,,,,,,,,,,,,,,,,,,,,,,,,,,,,,,,,,,,,,,,,,,,,,,,,,,,,,,,,,,,,,,,,,,,,,,,,,,,,,,,,,,,,,,,,,,,,,,,,,,,,,,,,,,,,,,,,,,,,,,,,,,,,,,,,,,,,,,,
,8251,CBA,11/12/2002,002,2023-04-11_18h37.50.511,OS3_Mult_verification,2022.2.4,MacIntel,60.0024001,,,28,1.0487,1,"[""2"",""8"",""return""]","[0.5839999999999748,0.8501999999992336,1.0160999999977491]",1,28,59,15,1,28,,,,,,,,,,,,,,,,,,,,,,,,,,,,,,,,,,,,,,,,,,,,,,,,,,,,,,,,,,,,,,,,,,,,,,,,,,,,,,,,,,,,,,,,,,,,,,,,,,,,,,,,,,,,,,,,,,,,,,,,,,,,,,,,,,,,,,,,,,,,,,,,,,,,,,,,,,,,,,,,,
,8251,CBA,11/12/2002,002,2023-04-11_18h37.50.511,OS3_Mult_verification,2022.2.4,MacIntel,60.0024001,,,45,0.8994,1,"[""4"",""5"",""return""]","[0.5988999999985083,0.7650999999977728,0.8652999999970348]",1,29,60,22,1,45,,,,,,,,,,,,,,,,,,,,,,,,,,,,,,,,,,,,,,,,,,,,,,,,,,,,,,,,,,,,,,,,,,,,,,,,,,,,,,,,,,,,,,,,,,,,,,,,,,,,,,,,,,,,,,,,,,,,,,,,,,,,,,,,,,,,,,,,,,,,,,,,,,,,,,,,,,,,,,,,,
,8251,CBA,11/12/2002,002,2023-04-11_18h37.50.511,OS3_Mult_verification,2022.2.4,MacIntel,60.0024001,,,20,0.8329,1,"[""2"",""0"",""return""]","[0.4838000000007412,0.6839000000022395,0.8003000000007319]",1,30,61,10,1,20,,,,,,,,,,,,,,,,,,,,,,,,,,,,,,,,,,,,,,,,,,,,,,,,,,,,,,,,,,,,,,,,,,,,,,,,,,,,,,,,,,,,,,,,,,,,,,,,,,,,,,,,,,,,,,,,,,,,,,,,,,,,,,,,,,,,,,,,,,,,,,,,,,,,,,,,,,,,,,,,,
,8251,CBA,11/12/2002,002,2023-04-11_18h37.50.511,OS3_Mult_verification,2022.2.4,MacIntel,60.0024001,,,,,,,,,,,,,,space,2.9988,,,,,,,,,,,,,,,,,,,,,,,,,,,,,,,,,,,,,,,,,,,,,,,,,,,,,,,,,,,,,,,,,,,,,,,,,,,,,,,,,,,,,,,,,,,,,,,,,,,,,,,,,,,,,,,,,,,,,,,,,,,,,,,,,,,,,,,,,,,,,,,,,,,,,,,,,,,,,,,
,8251,CBA,11/12/2002,002,2023-04-11_18h37.50.511,OS3_Mult_verification,2022.2.4,MacIntel,60.0024001,,,,,,,,,,,,,,,,,,,,,,,,,,,,,,,,,,,,,,,,,,,,,,,,,,,,,,,,,,,,,,,,,,,,,,,,,,,,,,,,,,,,,,,,,,,,,,,,,,,,,,,,,,,,,,,,,,,,,,,,,,,,,,,,,,,,,,,,,,,,,,,,,,,,,,,,,,,,,,,,,,,,,,,,,,,,,,
,8251,CBA,11/12/2002,002,2023-04-11_18h37.50.511,OS3_Mult_verification,2022.2.4,MacIntel,60.0024001,,,,,,,,,,,,,,,,space,1.2323,,,,,,,,,,,,,,,,,,,,,,,,,,,,,,,,,,,,,,,,,,,,,,,,,,,,,,,,,,,,,,,,,,,,,,,,,,,,,,,,,,,,,,,,,,,,,,,,,,,,,,,,,,,,,,,,,,,,,,,,,,,,,,,,,,,,,,,,,,,,,,,,,,,,,,,,,,,,,
,8251,CBA,11/12/2002,002,2023-04-11_18h37.50.511,OS3_Mult_verification,2022.2.4,MacIntel,60.0024001,,,,,,,,,,,,,,,,,,7,1.4994,1,"[""7"",""return""]","[1.031800000000743,1.198699999999235]",0,0,0,0,1,1 × 7 =,7,,,,,,,,,,,,,,,,,,,,,,,,,,,,,,,,,,,,,,,,,,,,,,,,,,,,,,,,,,,,,,,,,,,,,,,,,,,,,,,,,,,,,,,,,,,,,,,,,,,,,,,,,,,,,,,,,,,,,,,,,,,,,,,,,,,,,,,,,,,,,,,,,
,8251,CBA,11/12/2002,002,2023-04-11_18h37.50.511,OS3_Mult_verification,2022.2.4,MacIntel,60.0024001,,,,,,,,,,,,,,,,,,20,1.4703,1,"[""return"",""2"",""0"",""return""]","[0.1171999999992579,1.0335999999977616,1.117199999999258,1.1791999999992697]",0,1,1,1,1,2 × 10 =,20,,,,,,,,,,,,,,,,,,,,,,,,,,,,,,,,,,,,,,,,,,,,,,,,,,,,,,,,,,,,,,,,,,,,,,,,,,,,,,,,,,,,,,,,,,,,,,,,,,,,,,,,,,,,,,,,,,,,,,,,,,,,,,,,,,,,,,,,,,,,,,,,,
,8251,CBA,11/12/2002,002,2023-04-11_18h37.50.511,OS3_Mult_verification,2022.2.4,MacIntel,60.0024001,,,,,,,,,,,,,,,,,,22,1.1181,1,"[""2"",""2"",""return""]","[0.4961999999992486,0.6628999999985012,0.8298999999984744]",0,2,2,2,1,2 × 11 =,22,,,,,,,,,,,,,,,,,,,,,,,,,,,,,,,,,,,,,,,,,,,,,,,,,,,,,,,,,,,,,,,,,,,,,,,,,,,,,,,,,,,,,,,,,,,,,,,,,,,,,,,,,,,,,,,,,,,,,,,,,,,,,,,,,,,,,,,,,,,,,,,,,
,8251,CBA,11/12/2002,002,2023-04-11_18h37.50.511,OS3_Mult_verification,2022.2.4,MacIntel,60.0024001,,,,,,,,,,,,,,,,,,,,,,,,,,,,,,,,,,,,,,,,,,,,,,,,,,,,,,,,,,,,,,,,,,,,,,,,,,,,,,,,,,,,,,,,,,,,,,,,,,,,,,,,,,,,,,,,,,,,,,,,,,,,,,,,,,,,,,,,,,,,,,,,,,,,,,,,,,,,,,,,,,,,,,,,,,,,,,
,8251,CBA,11/12/2002,002,2023-04-11_18h37.50.511,OS3_Mult_verification,2022.2.4,MacIntel,60.0024001,,,,,,,,,,,,,,,,,,,,,,,,,,,,,,,,,,,,,,,,,,,,,,,,,,,,,,,,,,,,,,,,,,,,,,,,,,,,,,,,,,,,,,,,,,,,,,,,,,,,,,,,,,,,,,,,,,,,,,,,,,,,,,,,,,,,,,,,,,,,,,,,,,,,,,,,,,,,,,,,,,,,,,,,,,,,,,
,8251,CBA,11/12/2002,002,2023-04-11_18h37.50.511,OS3_Mult_verification,2022.2.4,MacIntel,60.0024001,,,,,,,,,,,,,,,,,,6,1.7162,1,"[""6"",""return""]","[1.2164999999999964,1.4166999999992527]",,,,,,2 × 3 =,6,0,0,0,0,1,,,,,,,,,,,,,,,,,,,,,,,,,,,,,,,,,,,,,,,,,,,,,,,,,,,,,,,,,,,,,,,,,,,,,,,,,,,,,,,,,,,,,,,,,,,,,,,,,,,,,,,,,,,,,,,,,,,,,,,,,,,,,,,,,,,,,,,,,,,,
,8251,CBA,11/12/2002,002,2023-04-11_18h37.50.511,OS3_Mult_verification,2022.2.4,MacIntel,60.0024001,,,,,,,,,,,,,,,,,,4,1.2835,0,"[""4"",""return""]","[0.8522999999970011,0.9861999999992577]",,,,,,5 × 8 =,40,0,1,1,1,1,,,,,,,,,,,,,,,,,,,,,,,,,,,,,,,,,,,,,,,,,,,,,,,,,,,,,,,,,,,,,,,,,,,,,,,,,,,,,,,,,,,,,,,,,,,,,,,,,,,,,,,,,,,,,,,,,,,,,,,,,,,,,,,,,,,,,,,,,,,,
,8251,CBA,11/12/2002,002,2023-04-11_18h37.50.511,OS3_Mult_verification,2022.2.4,MacIntel,60.0024001,,,,,,,,,,,,,,,,,,12,1.299,1,"[""1"",""2"",""return""]","[0.8158000000007632,0.8991999999992686,0.9995000000000118]",,,,,,3 × 4 =,12,0,2,2,2,1,,,,,,,,,,,,,,,,,,,,,,,,,,,,,,,,,,,,,,,,,,,,,,,,,,,,,,,,,,,,,,,,,,,,,,,,,,,,,,,,,,,,,,,,,,,,,,,,,,,,,,,,,,,,,,,,,,,,,,,,,,,,,,,,,,,,,,,,,,,,
,8251,CBA,11/12/2002,002,2023-04-11_18h37.50.511,OS3_Mult_verification,2022.2.4,MacIntel,60.0024001,,,,,,,,,,,,,,,,,,15,1.5136,1,"[""1"",""5"",""return""]","[0.7830000000000155,1.0188000000007378,1.2153999999985103]",,,,,,5 × 3 =,15,0,3,3,3,1,,,,,,,,,,,,,,,,,,,,,,,,,,,,,,,,,,,,,,,,,,,,,,,,,,,,,,,,,,,,,,,,,,,,,,,,,,,,,,,,,,,,,,,,,,,,,,,,,,,,,,,,,,,,,,,,,,,,,,,,,,,,,,,,,,,,,,,,,,,,
,8251,CBA,11/12/2002,002,2023-04-11_18h37.50.511,OS3_Mult_verification,2022.2.4,MacIntel,60.0024001,,,,,,,,,,,,,,,,,,8,1.4019,1,"[""8"",""return""]","[0.9624999999999773,1.1131000000014524]",,,,,,2 × 4 =,8,0,4,4,4,1,,,,,,,,,,,,,,,,,,,,,,,,,,,,,,,,,,,,,,,,,,,,,,,,,,,,,,,,,,,,,,,,,,,,,,,,,,,,,,,,,,,,,,,,,,,,,,,,,,,,,,,,,,,,,,,,,,,,,,,,,,,,,,,,,,,,,,,,,,,,
,8251,CBA,11/12/2002,002,2023-04-11_18h37.50.511,OS3_Mult_verification,2022.2.4,MacIntel,60.0024001,,,,,,,,,,,,,,,,,,4,1.2659,1,"[""4"",""return""]","[0.8629999999999995,0.9799000000022033]",,,,,,2 × 2 =,4,0,5,5,5,1,,,,,,,,,,,,,,,,,,,,,,,,,,,,,,,,,,,,,,,,,,,,,,,,,,,,,,,,,,,,,,,,,,,,,,,,,,,,,,,,,,,,,,,,,,,,,,,,,,,,,,,,,,,,,,,,,,,,,,,,,,,,,,,,,,,,,,,,,,,,
,8251,CBA,11/12/2002,002,2023-04-11_18h37.50.511,OS3_Mult_verification,2022.2.4,MacIntel,60.0024001,,,,,,,,,,,,,,,,,,20,1.4971,1,"[""2"",""0"",""return""]","[1.0336000000014565,1.134200000002977,1.2011000000014747]",,,,,,4 × 5 =,20,0,6,6,6,1,,,,,,,,,,,,,,,,,,,,,,,,,,,,,,,,,,,,,,,,,,,,,,,,,,,,,,,,,,,,,,,,,,,,,,,,,,,,,,,,,,,,,,,,,,,,,,,,,,,,,,,,,,,,,,,,,,,,,,,,,,,,,,,,,,,,,,,,,,,,
,8251,CBA,11/12/2002,002,2023-04-11_18h37.50.511,OS3_Mult_verification,2022.2.4,MacIntel,60.0024001,,,,,,,,,,,,,,,,,,9,1.3164,1,"[""9"",""return""]","[0.8488000000007787,1.0326000000014801]",,,,,,3 × 3 =,9,0,7,7,7,1,,,,,,,,,,,,,,,,,,,,,,,,,,,,,,,,,,,,,,,,,,,,,,,,,,,,,,,,,,,,,,,,,,,,,,,,,,,,,,,,,,,,,,,,,,,,,,,,,,,,,,,,,,,,,,,,,,,,,,,,,,,,,,,,,,,,,,,,,,,,
,8251,CBA,11/12/2002,002,2023-04-11_18h37.50.511,OS3_Mult_verification,2022.2.4,MacIntel,60.0024001,,,,,,,,,,,,,,,,,,10,1.1698,1,"[""1"",""0"",""return""]","[0.6825000000000045,0.7818999999984726,0.8823000000007255]",,,,,,5 × 2 =,10,0,8,8,8,1,,,,,,,,,,,,,,,,,,,,,,,,,,,,,,,,,,,,,,,,,,,,,,,,,,,,,,,,,,,,,,,,,,,,,,,,,,,,,,,,,,,,,,,,,,,,,,,,,,,,,,,,,,,,,,,,,,,,,,,,,,,,,,,,,,,,,,,,,,,,
,8251,CBA,11/12/2002,002,2023-04-11_18h37.50.511,OS3_Mult_verification,2022.2.4,MacIntel,60.0024001,,,,,,,,,,,,,,,,,,16,1.5803,1,"[""1"",""6"",""return""]","[0.69959999999773,1.0839999999999748,1.2834999999999752]",,,,,,4 × 4 =,16,0,9,9,9,1,,,,,,,,,,,,,,,,,,,,,,,,,,,,,,,,,,,,,,,,,,,,,,,,,,,,,,,,,,,,,,,,,,,,,,,,,,,,,,,,,,,,,,,,,,,,,,,,,,,,,,,,,,,,,,,,,,,,,,,,,,,,,,,,,,,,,,,,,,,,
,8251,CBA,11/12/2002,002,2023-04-11_18h37.50.511,OS3_Mult_verification,2022.2.4,MacIntel,60.0024001,,,,,,,,,,,,,,,,,,24,1.5498,1,"[""2"",""4"",""return""]","[1.065900000002273,1.149400000002231,1.2496999999992795]",,,,,,8 × 3 =,24,0,10,10,10,1,,,,,,,,,,,,,,,,,,,,,,,,,,,,,,,,,,,,,,,,,,,,,,,,,,,,,,,,,,,,,,,,,,,,,,,,,,,,,,,,,,,,,,,,,,,,,,,,,,,,,,,,,,,,,,,,,,,,,,,,,,,,,,,,,,,,,,,,,,,,
,8251,CBA,11/12/2002,002,2023-04-11_18h37.50.511,OS3_Mult_verification,2022.2.4,MacIntel,60.0024001,,,,,,,,,,,,,,,,,,30,1.368,1,"[""3"",""0"",""return""]","[0.8812999999970543,1.0137999999970475,1.0815999999977635]",,,,,,6 × 5 =,30,0,11,11,11,1,,,,,,,,,,,,,,,,,,,,,,,,,,,,,,,,,,,,,,,,,,,,,,,,,,,,,,,,,,,,,,,,,,,,,,,,,,,,,,,,,,,,,,,,,,,,,,,,,,,,,,,,,,,,,,,,,,,,,,,,,,,,,,,,,,,,,,,,,,,,
,8251,CBA,11/12/2002,002,2023-04-11_18h37.50.511,OS3_Mult_verification,2022.2.4,MacIntel,60.0024001,,,,,,,,,,,,,,,,,,14,1.348,1,"[""1"",""4"",""return""]","[0.8164999999999623,0.9174999999999613,1.05269999999922]",,,,,,7 × 2 =,14,0,12,12,12,1,,,,,,,,,,,,,,,,,,,,,,,,,,,,,,,,,,,,,,,,,,,,,,,,,,,,,,,,,,,,,,,,,,,,,,,,,,,,,,,,,,,,,,,,,,,,,,,,,,,,,,,,,,,,,,,,,,,,,,,,,,,,,,,,,,,,,,,,,,,,
,8251,CBA,11/12/2002,002,2023-04-11_18h37.50.511,OS3_Mult_verification,2022.2.4,MacIntel,60.0024001,,,,,,,,,,,,,,,,,,27,1.7816,1,"[""2"",""7"",""return""]","[1.031400000002236,1.3477000000029875,1.4804000000022484]",,,,,,3 × 9 =,27,0,13,13,13,1,,,,,,,,,,,,,,,,,,,,,,,,,,,,,,,,,,,,,,,,,,,,,,,,,,,,,,,,,,,,,,,,,,,,,,,,,,,,,,,,,,,,,,,,,,,,,,,,,,,,,,,,,,,,,,,,,,,,,,,,,,,,,,,,,,,,,,,,,,,,
,8251,CBA,11/12/2002,002,2023-04-11_18h37.50.511,OS3_Mult_verification,2022.2.4,MacIntel,60.0024001,,,,,,,,,,,,,,,,,,16,1.5838,1,"[""1"",""6"",""return""]","[0.8166999999992868,1.082300000000771,1.2835999999977616]",,,,,,2 × 8 =,16,0,14,14,14,1,,,,,,,,,,,,,,,,,,,,,,,,,,,,,,,,,,,,,,,,,,,,,,,,,,,,,,,,,,,,,,,,,,,,,,,,,,,,,,,,,,,,,,,,,,,,,,,,,,,,,,,,,,,,,,,,,,,,,,,,,,,,,,,,,,,,,,,,,,,,
,8251,CBA,11/12/2002,002,2023-04-11_18h37.50.511,OS3_Mult_verification,2022.2.4,MacIntel,60.0024001,,,,,,,,,,,,,,,,,,24,1.6489,1,"[""2"",""4"",""return""]","[0.9993999999985022,1.167600000001471,1.348699999999269]",,,,,,4 × 6 =,24,0,15,15,15,1,,,,,,,,,,,,,,,,,,,,,,,,,,,,,,,,,,,,,,,,,,,,,,,,,,,,,,,,,,,,,,,,,,,,,,,,,,,,,,,,,,,,,,,,,,,,,,,,,,,,,,,,,,,,,,,,,,,,,,,,,,,,,,,,,,,,,,,,,,,,
,8251,CBA,11/12/2002,002,2023-04-11_18h37.50.511,OS3_Mult_verification,2022.2.4,MacIntel,60.0024001,,,,,,,,,,,,,,,,,,21,1.1982,1,"[""2"",""1"",""return""]","[0.7183000000007382,0.817199999999275,0.9005999999977803]",,,,,,7 × 3 =,21,0,16,16,16,1,,,,,,,,,,,,,,,,,,,,,,,,,,,,,,,,,,,,,,,,,,,,,,,,,,,,,,,,,,,,,,,,,,,,,,,,,,,,,,,,,,,,,,,,,,,,,,,,,,,,,,,,,,,,,,,,,,,,,,,,,,,,,,,,,,,,,,,,,,,,
,8251,CBA,11/12/2002,002,2023-04-11_18h37.50.511,OS3_Mult_verification,2022.2.4,MacIntel,60.0024001,,,,,,,,,,,,,,,,,,27,1.9176,1,"[""2"",""7"",""return""]","[1.2648000000007187,1.4651000000014847,1.6316000000014697]",,,,,,9 × 3 =,27,0,17,17,17,1,,,,,,,,,,,,,,,,,,,,,,,,,,,,,,,,,,,,,,,,,,,,,,,,,,,,,,,,,,,,,,,,,,,,,,,,,,,,,,,,,,,,,,,,,,,,,,,,,,,,,,,,,,,,,,,,,,,,,,,,,,,,,,,,,,,,,,,,,,,,
,8251,CBA,11/12/2002,002,2023-04-11_18h37.50.511,OS3_Mult_verification,2022.2.4,MacIntel,60.0024001,,,,,,,,,,,,,,,,,,28,1.5999,1,"[""2"",""8"",""return""]","[1.0149999999999864,1.1626999999992904,1.2986000000014997]",,,,,,4 × 7 =,28,0,18,18,18,1,,,,,,,,,,,,,,,,,,,,,,,,,,,,,,,,,,,,,,,,,,,,,,,,,,,,,,,,,,,,,,,,,,,,,,,,,,,,,,,,,,,,,,,,,,,,,,,,,,,,,,,,,,,,,,,,,,,,,,,,,,,,,,,,,,,,,,,,,,,,
,8251,CBA,11/12/2002,002,2023-04-11_18h37.50.511,OS3_Mult_verification,2022.2.4,MacIntel,60.0024001,,,,,,,,,,,,,,,,,,18,1.5148,1,"[""1"",""8"",""return""]","[0.936899999998559,1.0840000000000032,1.216799999997022]",,,,,,2 × 9 =,18,0,19,19,19,1,,,,,,,,,,,,,,,,,,,,,,,,,,,,,,,,,,,,,,,,,,,,,,,,,,,,,,,,,,,,,,,,,,,,,,,,,,,,,,,,,,,,,,,,,,,,,,,,,,,,,,,,,,,,,,,,,,,,,,,,,,,,,,,,,,,,,,,,,,,,
,8251,CBA,11/12/2002,002,2023-04-11_18h37.50.511,OS3_Mult_verification,2022.2.4,MacIntel,60.0024001,,,,,,,,,,,,,,,,,,72,1.7171,1,"[""7"",""2"",""return""]","[1.2484999999999786,1.3330000000000268,1.4321000000014692]",,,,,,9 × 8 =,72,0,20,20,20,1,,,,,,,,,,,,,,,,,,,,,,,,,,,,,,,,,,,,,,,,,,,,,,,,,,,,,,,,,,,,,,,,,,,,,,,,,,,,,,,,,,,,,,,,,,,,,,,,,,,,,,,,,,,,,,,,,,,,,,,,,,,,,,,,,,,,,,,,,,,,
,8251,CBA,11/12/2002,002,2023-04-11_18h37.50.511,OS3_Mult_verification,2022.2.4,MacIntel,60.0024001,,,,,,,,,,,,,,,,,,46,3.3665,0,"[""4"",""6"",""return""]","[2.549600000001476,2.66700000000003,3.0663000000007514]",,,,,,7 × 6 =,42,0,21,21,21,1,,,,,,,,,,,,,,,,,,,,,,,,,,,,,,,,,,,,,,,,,,,,,,,,,,,,,,,,,,,,,,,,,,,,,,,,,,,,,,,,,,,,,,,,,,,,,,,,,,,,,,,,,,,,,,,,,,,,,,,,,,,,,,,,,,,,,,,,,,,,
,8251,CBA,11/12/2002,002,2023-04-11_18h37.50.511,OS3_Mult_verification,2022.2.4,MacIntel,60.0024001,,,,,,,,,,,,,,,,,,54,3.5217,1,"[""5"",""4"",""return""]","[2.9163000000007173,3.133100000001491,3.2334999999999923]",,,,,,6 × 9 =,54,0,22,22,22,1,,,,,,,,,,,,,,,,,,,,,,,,,,,,,,,,,,,,,,,,,,,,,,,,,,,,,,,,,,,,,,,,,,,,,,,,,,,,,,,,,,,,,,,,,,,,,,,,,,,,,,,,,,,,,,,,,,,,,,,,,,,,,,,,,,,,,,,,,,,,
,8251,CBA,11/12/2002,002,2023-04-11_18h37.50.511,OS3_Mult_verification,2022.2.4,MacIntel,60.0024001,,,,,,,,,,,,,,,,,,45,1.8885,1,"[""4"",""5"",""return""]","[1.349900000002208,1.5014000000022065,1.599800000000755]",,,,,,9 × 5 =,45,0,23,23,23,1,,,,,,,,,,,,,,,,,,,,,,,,,,,,,,,,,,,,,,,,,,,,,,,,,,,,,,,,,,,,,,,,,,,,,,,,,,,,,,,,,,,,,,,,,,,,,,,,,,,,,,,,,,,,,,,,,,,,,,,,,,,,,,,,,,,,,,,,,,,,
,8251,CBA,11/12/2002,002,2023-04-11_18h37.50.511,OS3_Mult_verification,2022.2.4,MacIntel,60.0024001,,,,,,,,,,,,,,,,,,56,1.8006,1,"[""5"",""6"",""return""]","[1.1654000000021938,1.3319999999999936,1.5153000000007069]",,,,,,8 × 7 =,56,0,24,24,24,1,,,,,,,,,,,,,,,,,,,,,,,,,,,,,,,,,,,,,,,,,,,,,,,,,,,,,,,,,,,,,,,,,,,,,,,,,,,,,,,,,,,,,,,,,,,,,,,,,,,,,,,,,,,,,,,,,,,,,,,,,,,,,,,,,,,,,,,,,,,,
,8251,CBA,11/12/2002,002,2023-04-11_18h37.50.511,OS3_Mult_verification,2022.2.4,MacIntel,60.0024001,,,,,,,,,,,,,,,,,,36,2.2652,1,"[""4"",""6"",""backspace"",""backspace"",""3"",""6"",""return""]","[1.0656999999992536,1.1324999999999932,1.4658000000007405,1.5985000000000014,1.6808000000007723,1.8149999999999977,1.9831999999992718]",,,,,,6 × 6 =,36,0,25,25,25,1,,,,,,,,,,,,,,,,,,,,,,,,,,,,,,,,,,,,,,,,,,,,,,,,,,,,,,,,,,,,,,,,,,,,,,,,,,,,,,,,,,,,,,,,,,,,,,,,,,,,,,,,,,,,,,,,,,,,,,,,,,,,,,,,,,,,,,,,,,,,
,8251,CBA,11/12/2002,002,2023-04-11_18h37.50.511,OS3_Mult_verification,2022.2.4,MacIntel,60.0024001,,,,,,,,,,,,,,,,,,36,1.6153,0,"[""3"",""6"",""return""]","[1.0159000000022615,1.0825000000000387,1.3318000000007828]",,,,,,5 × 7 =,35,0,26,26,26,1,,,,,,,,,,,,,,,,,,,,,,,,,,,,,,,,,,,,,,,,,,,,,,,,,,,,,,,,,,,,,,,,,,,,,,,,,,,,,,,,,,,,,,,,,,,,,,,,,,,,,,,,,,,,,,,,,,,,,,,,,,,,,,,,,,,,,,,,,,,,
,8251,CBA,11/12/2002,002,2023-04-11_18h37.50.511,OS3_Mult_verification,2022.2.4,MacIntel,60.0024001,,,,,,,,,,,,,,,,,,36,2.5844,1,"[""3"",""6"",""return""]","[1.7493999999985022,1.9846000000014783,2.283899999998482]",,,,,,4 × 9 =,36,0,27,27,27,1,,,,,,,,,,,,,,,,,,,,,,,,,,,,,,,,,,,,,,,,,,,,,,,,,,,,,,,,,,,,,,,,,,,,,,,,,,,,,,,,,,,,,,,,,,,,,,,,,,,,,,,,,,,,,,,,,,,,,,,,,,,,,,,,,,,,,,,,,,,,
,8251,CBA,11/12/2002,002,2023-04-11_18h37.50.511,OS3_Mult_verification,2022.2.4,MacIntel,60.0024001,,,,,,,,,,,,,,,,,,48,2.4486,1,"[""4"",""8"",""return""]","[1.9146000000014851,2.0001999999992677,2.1481999999992922]",,,,,,8 × 6 =,48,0,28,28,28,1,,,,,,,,,,,,,,,,,,,,,,,,,,,,,,,,,,,,,,,,,,,,,,,,,,,,,,,,,,,,,,,,,,,,,,,,,,,,,,,,,,,,,,,,,,,,,,,,,,,,,,,,,,,,,,,,,,,,,,,,,,,,,,,,,,,,,,,,,,,,
,8251,CBA,11/12/2002,002,2023-04-11_18h37.50.511,OS3_Mult_verification,2022.2.4,MacIntel,60.0024001,,,,,,,,,,,,,,,,,,63,2.7523,1,"[""6"",""3"",""return""]","[1.9166000000014947,2.30080000000072,2.450399999998467]",,,,,,9 × 7 =,63,0,29,29,29,1,,,,,,,,,,,,,,,,,,,,,,,,,,,,,,,,,,,,,,,,,,,,,,,,,,,,,,,,,,,,,,,,,,,,,,,,,,,,,,,,,,,,,,,,,,,,,,,,,,,,,,,,,,,,,,,,,,,,,,,,,,,,,,,,,,,,,,,,,,,,
,8251,CBA,11/12/2002,002,2023-04-11_18h37.50.511,OS3_Mult_verification,2022.2.4,MacIntel,60.0024001,,,,,,,,,,,,,,,,,,12,1.2537,1,"[""1"",""2"",""return""]","[0.7340999999977385,0.8000000000000114,0.9675999999977307]",,,,,,4 × 3 =,12,0,30,30,30,1,,,,,,,,,,,,,,,,,,,,,,,,,,,,,,,,,,,,,,,,,,,,,,,,,,,,,,,,,,,,,,,,,,,,,,,,,,,,,,,,,,,,,,,,,,,,,,,,,,,,,,,,,,,,,,,,,,,,,,,,,,,,,,,,,,,,,,,,,,,,
,8251,CBA,11/12/2002,002,2023-04-11_18h37.50.511,OS3_Mult_verification,2022.2.4,MacIntel,60.0024001,,,,,,,,,,,,,,,,,,25,1.4647,1,"[""2"",""5"",""return""]","[0.817899999998474,1.0149999999999864,1.1646999999992431]",,,,,,5 × 5 =,25,0,31,31,31,1,,,,,,,,,,,,,,,,,,,,,,,,,,,,,,,,,,,,,,,,,,,,,,,,,,,,,,,,,,,,,,,,,,,,,,,,,,,,,,,,,,,,,,,,,,,,,,,,,,,,,,,,,,,,,,,,,,,,,,,,,,,,,,,,,,,,,,,,,,,,
,8251,CBA,11/12/2002,002,2023-04-11_18h37.50.511,OS3_Mult_verification,2022.2.4,MacIntel,60.0024001,,,,,,,,,,,,,,,,,,6,1.6171,1,"[""6"",""return""]","[1.1631999999992786,1.3328999999985172]",,,,,,3 × 2 =,6,0,32,32,32,1,,,,,,,,,,,,,,,,,,,,,,,,,,,,,,,,,,,,,,,,,,,,,,,,,,,,,,,,,,,,,,,,,,,,,,,,,,,,,,,,,,,,,,,,,,,,,,,,,,,,,,,,,,,,,,,,,,,,,,,,,,,,,,,,,,,,,,,,,,,,
,8251,CBA,11/12/2002,002,2023-04-11_18h37.50.511,OS3_Mult_verification,2022.2.4,MacIntel,60.0024001,,,,,,,,,,,,,,,,,,20,1.6833,1,"[""2"",""0"",""return""]","[1.0991000000014992,1.232500000000016,1.3829000000022234]",,,,,,5 × 4 =,20,0,33,33,33,1,,,,,,,,,,,,,,,,,,,,,,,,,,,,,,,,,,,,,,,,,,,,,,,,,,,,,,,,,,,,,,,,,,,,,,,,,,,,,,,,,,,,,,,,,,,,,,,,,,,,,,,,,,,,,,,,,,,,,,,,,,,,,,,,,,,,,,,,,,,,
,8251,CBA,11/12/2002,002,2023-04-11_18h37.50.511,OS3_Mult_verification,2022.2.4,MacIntel,60.0024001,,,,,,,,,,,,,,,,,,8,1.4818,1,"[""8"",""return""]","[1.033300000000736,1.183399999998528]",,,,,,4 × 2 =,8,0,34,34,34,1,,,,,,,,,,,,,,,,,,,,,,,,,,,,,,,,,,,,,,,,,,,,,,,,,,,,,,,,,,,,,,,,,,,,,,,,,,,,,,,,,,,,,,,,,,,,,,,,,,,,,,,,,,,,,,,,,,,,,,,,,,,,,,,,,,,,,,,,,,,,
,8251,CBA,11/12/2002,002,2023-04-11_18h37.50.511,OS3_Mult_verification,2022.2.4,MacIntel,60.0024001,,,,,,,,,,,,,,,,,,12,1.3006,1,"[""1"",""2"",""return""]","[0.7495999999977698,0.883199999999249,0.9990000000000236]",,,,,,2 × 6 =,12,0,35,35,35,1,,,,,,,,,,,,,,,,,,,,,,,,,,,,,,,,,,,,,,,,,,,,,,,,,,,,,,,,,,,,,,,,,,,,,,,,,,,,,,,,,,,,,,,,,,,,,,,,,,,,,,,,,,,,,,,,,,,,,,,,,,,,,,,,,,,,,,,,,,,,
,8251,CBA,11/12/2002,002,2023-04-11_18h37.50.511,OS3_Mult_verification,2022.2.4,MacIntel,60.0024001,,,,,,,,,,,,,,,,,,15,1.3486,1,"[""1"",""5"",""return""]","[0.7863999999984799,0.9333999999984712,1.0465999999977385]",,,,,,3 × 5 =,15,0,36,36,36,1,,,,,,,,,,,,,,,,,,,,,,,,,,,,,,,,,,,,,,,,,,,,,,,,,,,,,,,,,,,,,,,,,,,,,,,,,,,,,,,,,,,,,,,,,,,,,,,,,,,,,,,,,,,,,,,,,,,,,,,,,,,,,,,,,,,,,,,,,,,,
,8251,CBA,11/12/2002,002,2023-04-11_18h37.50.511,OS3_Mult_verification,2022.2.4,MacIntel,60.0024001,,,,,,,,,,,,,,,,,,18,1.4837,1,"[""1"",""8"",""return""]","[0.8829999999999814,1.0335999999977616,1.1829999999999927]",,,,,,6 × 3 =,18,0,37,37,37,1,,,,,,,,,,,,,,,,,,,,,,,,,,,,,,,,,,,,,,,,,,,,,,,,,,,,,,,,,,,,,,,,,,,,,,,,,,,,,,,,,,,,,,,,,,,,,,,,,,,,,,,,,,,,,,,,,,,,,,,,,,,,,,,,,,,,,,,,,,,,
,8251,CBA,11/12/2002,002,2023-04-11_18h37.50.511,OS3_Mult_verification,2022.2.4,MacIntel,60.0024001,,,,,,,,,,,,,,,,,,10,1.2152,1,"[""1"",""0"",""return""]","[0.6490000000000009,0.799699999999234,0.9158999999984871]",,,,,,2 × 5 =,10,0,38,38,38,1,,,,,,,,,,,,,,,,,,,,,,,,,,,,,,,,,,,,,,,,,,,,,,,,,,,,,,,,,,,,,,,,,,,,,,,,,,,,,,,,,,,,,,,,,,,,,,,,,,,,,,,,,,,,,,,,,,,,,,,,,,,,,,,,,,,,,,,,,,,,
,8251,CBA,11/12/2002,002,2023-04-11_18h37.50.511,OS3_Mult_verification,2022.2.4,MacIntel,60.0024001,,,,,,,,,,,,,,,,,,32,1.533,1,"[""3"",""2"",""return""]","[1.0323999999985176,1.095800000000736,1.232599999997774]",,,,,,4 × 8 =,32,0,39,39,39,1,,,,,,,,,,,,,,,,,,,,,,,,,,,,,,,,,,,,,,,,,,,,,,,,,,,,,,,,,,,,,,,,,,,,,,,,,,,,,,,,,,,,,,,,,,,,,,,,,,,,,,,,,,,,,,,,,,,,,,,,,,,,,,,,,,,,,,,,,,,,
,8251,CBA,11/12/2002,002,2023-04-11_18h37.50.511,OS3_Mult_verification,2022.2.4,MacIntel,60.0024001,,,,,,,,,,,,,,,,,,24,1.5665,1,"[""2"",""4"",""return""]","[0.8816000000015265,0.9824000000022579,1.2841000000015015]",,,,,,3 × 8 =,24,0,40,40,40,1,,,,,,,,,,,,,,,,,,,,,,,,,,,,,,,,,,,,,,,,,,,,,,,,,,,,,,,,,,,,,,,,,,,,,,,,,,,,,,,,,,,,,,,,,,,,,,,,,,,,,,,,,,,,,,,,,,,,,,,,,,,,,,,,,,,,,,,,,,,,
,8251,CBA,11/12/2002,002,2023-04-11_18h37.50.511,OS3_Mult_verification,2022.2.4,MacIntel,60.0024001,,,,,,,,,,,,,,,,,,30,1.267,1,"[""3"",""0"",""return""]","[0.7329999999999472,0.883299999997007,0.9666999999992072]",,,,,,5 × 6 =,30,0,41,41,41,1,,,,,,,,,,,,,,,,,,,,,,,,,,,,,,,,,,,,,,,,,,,,,,,,,,,,,,,,,,,,,,,,,,,,,,,,,,,,,,,,,,,,,,,,,,,,,,,,,,,,,,,,,,,,,,,,,,,,,,,,,,,,,,,,,,,,,,,,,,,,
,8251,CBA,11/12/2002,002,2023-04-11_18h37.50.511,OS3_Mult_verification,2022.2.4,MacIntel,60.0024001,,,,,,,,,,,,,,,,,,14,1.5981,1,"[""1"",""4"",""return""]","[0.765199999999254,1.1658999999984871,1.299699999999234]",,,,,,2 × 7 =,14,0,42,42,42,1,,,,,,,,,,,,,,,,,,,,,,,,,,,,,,,,,,,,,,,,,,,,,,,,,,,,,,,,,,,,,,,,,,,,,,,,,,,,,,,,,,,,,,,,,,,,,,,,,,,,,,,,,,,,,,,,,,,,,,,,,,,,,,,,,,,,,,,,,,,,
,8251,CBA,11/12/2002,002,2023-04-11_18h37.50.511,OS3_Mult_verification,2022.2.4,MacIntel,60.0024001,,,,,,,,,,,,,,,,,,24,1.25,1,"[""2"",""4"",""return""]","[0.7146000000014965,0.8821999999992158,0.9636000000014633]",,,,,,6 × 4 =,24,0,43,43,43,1,,,,,,,,,,,,,,,,,,,,,,,,,,,,,,,,,,,,,,,,,,,,,,,,,,,,,,,,,,,,,,,,,,,,,,,,,,,,,,,,,,,,,,,,,,,,,,,,,,,,,,,,,,,,,,,,,,,,,,,,,,,,,,,,,,,,,,,,,,,,
,8251,CBA,11/12/2002,002,2023-04-11_18h37.50.511,OS3_Mult_verification,2022.2.4,MacIntel,60.0024001,,,,,,,,,,,,,,,,,,21,1.2,1,"[""2"",""1"",""return""]","[0.7361999999992577,0.8331999999992377,0.8994999999999891]",,,,,,3 × 7 =,21,0,44,44,44,1,,,,,,,,,,,,,,,,,,,,,,,,,,,,,,,,,,,,,,,,,,,,,,,,,,,,,,,,,,,,,,,,,,,,,,,,,,,,,,,,,,,,,,,,,,,,,,,,,,,,,,,,,,,,,,,,,,,,,,,,,,,,,,,,,,,,,,,,,,,,
,8251,CBA,11/12/2002,002,2023-04-11_18h37.50.511,OS3_Mult_verification,2022.2.4,MacIntel,60.0024001,,,,,,,,,,,,,,,,,,81,1.3327,1,"[""8"",""1"",""return""]","[0.8666000000014833,0.9501000000014983,1.0328000000007478]",,,,,,9 × 9 =,81,0,45,45,45,1,,,,,,,,,,,,,,,,,,,,,,,,,,,,,,,,,,,,,,,,,,,,,,,,,,,,,,,,,,,,,,,,,,,,,,,,,,,,,,,,,,,,,,,,,,,,,,,,,,,,,,,,,,,,,,,,,,,,,,,,,,,,,,,,,,,,,,,,,,,,
,8251,CBA,11/12/2002,002,2023-04-11_18h37.50.511,OS3_Mult_verification,2022.2.4,MacIntel,60.0024001,,,,,,,,,,,,,,,,,,16,1.7164,1,"[""1"",""6"",""return""]","[0.8002999999969802,1.2369999999999663,1.4173999999985085]",,,,,,8 × 2 =,16,0,46,46,46,1,,,,,,,,,,,,,,,,,,,,,,,,,,,,,,,,,,,,,,,,,,,,,,,,,,,,,,,,,,,,,,,,,,,,,,,,,,,,,,,,,,,,,,,,,,,,,,,,,,,,,,,,,,,,,,,,,,,,,,,,,,,,,,,,,,,,,,,,,,,,
,8251,CBA,11/12/2002,002,2023-04-11_18h37.50.511,OS3_Mult_verification,2022.2.4,MacIntel,60.0024001,,,,,,,,,,,,,,,,,,48,1.8994,1,"[""4"",""8"",""return""]","[1.2318000000007032,1.448699999999235,1.5988000000007219]",,,,,,6 × 8 =,48,0,47,47,47,1,,,,,,,,,,,,,,,,,,,,,,,,,,,,,,,,,,,,,,,,,,,,,,,,,,,,,,,,,,,,,,,,,,,,,,,,,,,,,,,,,,,,,,,,,,,,,,,,,,,,,,,,,,,,,,,,,,,,,,,,,,,,,,,,,,,,,,,,,,,,
,8251,CBA,11/12/2002,002,2023-04-11_18h37.50.511,OS3_Mult_verification,2022.2.4,MacIntel,60.0024001,,,,,,,,,,,,,,,,,,28,1.7834,1,"[""2"",""8"",""return""]","[1.219100000001447,1.382699999999204,1.482499999999959]",,,,,,7 × 4 =,28,0,48,48,48,1,,,,,,,,,,,,,,,,,,,,,,,,,,,,,,,,,,,,,,,,,,,,,,,,,,,,,,,,,,,,,,,,,,,,,,,,,,,,,,,,,,,,,,,,,,,,,,,,,,,,,,,,,,,,,,,,,,,,,,,,,,,,,,,,,,,,,,,,,,,,
,8251,CBA,11/12/2002,002,2023-04-11_18h37.50.511,OS3_Mult_verification,2022.2.4,MacIntel,60.0024001,,,,,,,,,,,,,,,,,,18,1.4016,1,"[""1"",""8"",""return""]","[0.8324999999999818,0.9658000000007405,1.0994000000022197]",,,,,,9 × 2 =,18,0,49,49,49,1,,,,,,,,,,,,,,,,,,,,,,,,,,,,,,,,,,,,,,,,,,,,,,,,,,,,,,,,,,,,,,,,,,,,,,,,,,,,,,,,,,,,,,,,,,,,,,,,,,,,,,,,,,,,,,,,,,,,,,,,,,,,,,,,,,,,,,,,,,,,
,8251,CBA,11/12/2002,002,2023-04-11_18h37.50.511,OS3_Mult_verification,2022.2.4,MacIntel,60.0024001,,,,,,,,,,,,,,,,,,35,1.6993,1,"[""3"",""5"",""return""]","[1.1984999999999673,1.2986999999992577,1.4015999999977566]",,,,,,7 × 5 =,35,0,50,50,50,1,,,,,,,,,,,,,,,,,,,,,,,,,,,,,,,,,,,,,,,,,,,,,,,,,,,,,,,,,,,,,,,,,,,,,,,,,,,,,,,,,,,,,,,,,,,,,,,,,,,,,,,,,,,,,,,,,,,,,,,,,,,,,,,,,,,,,,,,,,,,
,8251,CBA,11/12/2002,002,2023-04-11_18h37.50.511,OS3_Mult_verification,2022.2.4,MacIntel,60.0024001,,,,,,,,,,,,,,,,,,36,2.8968,1,"[""3"",""6"",""return""]","[2.1334000000022115,2.416999999999973,2.599800000000698]",,,,,,9 × 4 =,36,0,51,51,51,1,,,,,,,,,,,,,,,,,,,,,,,,,,,,,,,,,,,,,,,,,,,,,,,,,,,,,,,,,,,,,,,,,,,,,,,,,,,,,,,,,,,,,,,,,,,,,,,,,,,,,,,,,,,,,,,,,,,,,,,,,,,,,,,,,,,,,,,,,,,,
,8251,CBA,11/12/2002,002,2023-04-11_18h37.50.511,OS3_Mult_verification,2022.2.4,MacIntel,60.0024001,,,,,,,,,,,,,,,,,,64,1.5891,1,"[""6"",""4"",""return""]","[1.1175000000000068,1.2156000000014728,1.2948999999985062]",,,,,,8 × 8 =,64,0,52,52,52,1,,,,,,,,,,,,,,,,,,,,,,,,,,,,,,,,,,,,,,,,,,,,,,,,,,,,,,,,,,,,,,,,,,,,,,,,,,,,,,,,,,,,,,,,,,,,,,,,,,,,,,,,,,,,,,,,,,,,,,,,,,,,,,,,,,,,,,,,,,,,
,8251,CBA,11/12/2002,002,2023-04-11_18h37.50.511,OS3_Mult_verification,2022.2.4,MacIntel,60.0024001,,,,,,,,,,,,,,,,,,,0.8491,0,,,,,,,,5 × 9 =,45,0,53,53,53,1,,,,,,,,,,,,,,,,,,,,,,,,,,,,,,,,,,,,,,,,,,,,,,,,,,,,,,,,,,,,,,,,,,,,,,,,,,,,,,,,,,,,,,,,,,,,,,,,,,,,,,,,,,,,,,,,,,,,,,,,,,,,,,,,,,,,,,,,,,,,
,8251,CBA,11/12/2002,002,2023-04-11_18h37.50.511,OS3_Mult_verification,2022.2.4,MacIntel,60.0024001,,,,,,,,,,,,,,,,space,1.6994,,,,,,,,,,,,,,,,,,space,15.9111,123,1.4292,1,"[""1"",""2"",""3"",""return""]","[0.9251999999992222,1.0919999999999845,1.2270999999977334,1.3918000000007282]",0,0,0,0,1,3,123,Audio/123.mp3,practice,,,,,,,,,,,,,,,,,,,,,,,,,,,,,,,,,,,,,,,,,,,,,,,,,,,,,,,,,,,,,,,,,,,,,,,,,,,,,,,,,,,,,,,,,,,,,,,,,,,,,,,,,,,,,,,,,,,,,,,,,,,,
,8251,CBA,11/12/2002,002,2023-04-11_18h37.50.511,OS3_Mult_verification,2022.2.4,MacIntel,60.0024001,,,,,,,,,,,,,,,,,,,,,,,,,,,,,,,,,,,,,911,1.2164,1,"[""9"",""1"",""1"",""return""]","[0.7656999999992422,0.8711999999992486,1.0194999999999936,1.1818999999985067]",0,1,1,2,1,3,911,Audio/911.mp3,practice,,,,,,,,,,,,,,,,,,,,,,,,,,,,,,,,,,,,,,,,,,,,,,,,,,,,,,,,,,,,,,,,,,,,,,,,,,,,,,,,,,,,,,,,,,,,,,,,,,,,,,,,,,,,,,,,,,,,,,,,,,,,
,8251,CBA,11/12/2002,002,2023-04-11_18h37.50.511,OS3_Mult_verification,2022.2.4,MacIntel,60.0024001,,,,,,,,,,,,,,,,,,,,,,,,,,,,,,,,,,,,,321,0.9321,1,"[""3"",""2"",""1"",""return""]","[0.5498999999985585,0.6333000000007587,0.6831000000015024,0.9000000000000341]",0,2,2,1,1,3,321,Audio/321.mp3,practice,,,,,,,,,,,,,,,,,,,,,,,,,,,,,,,,,,,,,,,,,,,,,,,,,,,,,,,,,,,,,,,,,,,,,,,,,,,,,,,,,,,,,,,,,,,,,,,,,,,,,,,,,,,,,,,,,,,,,,,,,,,,
,8251,CBA,11/12/2002,002,2023-04-11_18h37.50.511,OS3_Mult_verification,2022.2.4,MacIntel,60.0024001,,,,,,,,,,,,,,,,,,,,,,,,,,,,,,,,,,,,,97,0.9975,1,"[""9"",""7"",""return""]","[0.7671999999992636,0.8200999999977512,0.9676999999992404]",,,,,,2,97,Audio/97.mp3,WAIS,0,0,0,0,1,,,,,,,,,,,,,,,,,,,,,,,,,,,,,,,,,,,,,,,,,,,,,,,,,,,,,,,,,,,,,,,,,,,,,,,,,,,,,,,,,,,,,,,,,,,,,,,,,,,,,,,,,,,,,,,,,,,,,,,
,8251,CBA,11/12/2002,002,2023-04-11_18h37.50.511,OS3_Mult_verification,2022.2.4,MacIntel,60.0024001,,,,,,,,,,,,,,,,,,,,,,,,,,,,,,,,,,,,,63,0.7649,1,"[""6"",""3"",""return""]","[0.46669999999926404,0.5838000000007355,0.7334000000022343]",,,,,,2,63,Audio/63.mp3,WAIS,0,1,1,1,1,,,,,,,,,,,,,,,,,,,,,,,,,,,,,,,,,,,,,,,,,,,,,,,,,,,,,,,,,,,,,,,,,,,,,,,,,,,,,,,,,,,,,,,,,,,,,,,,,,,,,,,,,,,,,,,,,,,,,,,
,8251,CBA,11/12/2002,002,2023-04-11_18h37.50.511,OS3_Mult_verification,2022.2.4,MacIntel,60.0024001,,,,,,,,,,,,,,,,,,,,,,,,,,,,,,,,,,,,,,,,,,,,,,,,,,,,,,,,0,0,0,0,1,digitSpan_stim/twoWAIS.xlsx,,,,,,,,,,,,,,,,,,,,,,,,,,,,,,,,,,,,,,,,,,,,,,,,,,,,,,,,,,,,,,,,,,,,,,,,,,,,,,,,,,,,,,,,,,,,,,,,,,,,,,,,,,,,,,,,,
,8251,CBA,11/12/2002,002,2023-04-11_18h37.50.511,OS3_Mult_verification,2022.2.4,MacIntel,60.0024001,,,,,,,,,,,,,,,,,,,,,,,,,,,,,,,,,,,,,582,0.7704,1,"[""5"",""8"",""2"",""return""]","[0.40019999999924494,0.48399999999998045,0.6053999999984967,0.7332999999970298]",,,,,,3,582,Audio/582.mp3,WAIS,0,0,0,0,1,,,,,,,,,,,,,,,,,,,,,,,,,,,,,,,,,,,,,,,,,,,,,,,,,,,,,,,,,,,,,,,,,,,,,,,,,,,,,,,,,,,,,,,,,,,,,,,,,,,,,,,,,,,,,,,,,,,,,,,
,8251,CBA,11/12/2002,002,2023-04-11_18h37.50.511,OS3_Mult_verification,2022.2.4,MacIntel,60.0024001,,,,,,,,,,,,,,,,,,,,,,,,,,,,,,,,,,,,,694,0.7675,1,"[""6"",""9"",""4"",""return""]","[0.40010000000148693,0.4846999999992363,0.6166000000014833,0.7396000000014737]",,,,,,3,694,Audio/694.mp3,WAIS,0,1,1,1,1,,,,,,,,,,,,,,,,,,,,,,,,,,,,,,,,,,,,,,,,,,,,,,,,,,,,,,,,,,,,,,,,,,,,,,,,,,,,,,,,,,,,,,,,,,,,,,,,,,,,,,,,,,,,,,,,,,,,,,,
,8251,CBA,11/12/2002,002,2023-04-11_18h37.50.511,OS3_Mult_verification,2022.2.4,MacIntel,60.0024001,,,,,,,,,,,,,,,,,,,,,,,,,,,,,,,,,,,,,,,,,,,,,,,,,,,,,,,,0,1,1,1,1,digitSpan_stim/threeWAIS.xlsx,,,,,,,,,,,,,,,,,,,,,,,,,,,,,,,,,,,,,,,,,,,,,,,,,,,,,,,,,,,,,,,,,,,,,,,,,,,,,,,,,,,,,,,,,,,,,,,,,,,,,,,,,,,,,,,,,
,8251,CBA,11/12/2002,002,2023-04-11_18h37.50.511,OS3_Mult_verification,2022.2.4,MacIntel,60.0024001,,,,,,,,,,,,,,,,,,,,,,,,,,,,,,,,,,,,,7286,1.1178,1,"[""7"",""2"",""8"",""6"",""return""]","[0.36630000000070595,0.46619999999927586,0.5500999999977694,0.7723000000007687,1.0825999999977967]",,,,,,4,7286,Audio/7286.mp3,WAIS,0,0,0,0,1,,,,,,,,,,,,,,,,,,,,,,,,,,,,,,,,,,,,,,,,,,,,,,,,,,,,,,,,,,,,,,,,,,,,,,,,,,,,,,,,,,,,,,,,,,,,,,,,,,,,,,,,,,,,,,,,,,,,,,,
,8251,CBA,11/12/2002,002,2023-04-11_18h37.50.511,OS3_Mult_verification,2022.2.4,MacIntel,60.0024001,,,,,,,,,,,,,,,,,,,,,,,,,,,,,,,,,,,,,6439,1.0155,1,"[""6"",""4"",""3"",""9"",""return""]","[0.40430000000083055,0.5001999999992677,0.5678999999985308,0.6673999999985654,0.9840000000000373]",,,,,,4,6439,Audio/6439.mp3,WAIS,0,1,1,1,1,,,,,,,,,,,,,,,,,,,,,,,,,,,,,,,,,,,,,,,,,,,,,,,,,,,,,,,,,,,,,,,,,,,,,,,,,,,,,,,,,,,,,,,,,,,,,,,,,,,,,,,,,,,,,,,,,,,,,,,
,8251,CBA,11/12/2002,002,2023-04-11_18h37.50.511,OS3_Mult_verification,2022.2.4,MacIntel,60.0024001,,,,,,,,,,,,,,,,,,,,,,,,,,,,,,,,,,,,,,,,,,,,,,,,,,,,,,,,0,2,2,2,1,digitSpan_stim/fourWAIS.xlsx,,,,,,,,,,,,,,,,,,,,,,,,,,,,,,,,,,,,,,,,,,,,,,,,,,,,,,,,,,,,,,,,,,,,,,,,,,,,,,,,,,,,,,,,,,,,,,,,,,,,,,,,,,,,,,,,,
,8251,CBA,11/12/2002,002,2023-04-11_18h37.50.511,OS3_Mult_verification,2022.2.4,MacIntel,60.0024001,,,,,,,,,,,,,,,,,,,,,,,,,,,,,,,,,,,,,42731,1.6168,1,"[""4"",""2"",""7"",""3"",""1"",""return""]","[0.15139999999848897,0.25119999999924403,0.7171999999992522,0.8328999999985172,1.2501000000014528,1.5824999999999818]",,,,,,5,42731,Audio/42731.mp3,WAIS,0,0,0,0,1,,,,,,,,,,,,,,,,,,,,,,,,,,,,,,,,,,,,,,,,,,,,,,,,,,,,,,,,,,,,,,,,,,,,,,,,,,,,,,,,,,,,,,,,,,,,,,,,,,,,,,,,,,,,,,,,,,,,,,,
,8251,CBA,11/12/2002,002,2023-04-11_18h37.50.511,OS3_Mult_verification,2022.2.4,MacIntel,60.0024001,,,,,,,,,,,,,,,,,,,,,,,,,,,,,,,,,,,,,75836,1.7181,1,"[""7"",""5"",""8"",""3"",""6"",""return""]","[0.4336999999992486,0.5336999999992713,0.637199999999325,0.7726000000014892,0.8838000000007469,1.6836000000015474]",,,,,,5,75836,Audio/75836.mp3,WAIS,0,1,1,1,1,,,,,,,,,,,,,,,,,,,,,,,,,,,,,,,,,,,,,,,,,,,,,,,,,,,,,,,,,,,,,,,,,,,,,,,,,,,,,,,,,,,,,,,,,,,,,,,,,,,,,,,,,,,,,,,,,,,,,,,
,8251,CBA,11/12/2002,002,2023-04-11_18h37.50.511,OS3_Mult_verification,2022.2.4,MacIntel,60.0024001,,,,,,,,,,,,,,,,,,,,,,,,,,,,,,,,,,,,,,,,,,,,,,,,,,,,,,,,0,3,3,3,1,digitSpan_stim/fiveWAIS.xlsx,,,,,,,,,,,,,,,,,,,,,,,,,,,,,,,,,,,,,,,,,,,,,,,,,,,,,,,,,,,,,,,,,,,,,,,,,,,,,,,,,,,,,,,,,,,,,,,,,,,,,,,,,,,,,,,,,
,8251,CBA,11/12/2002,002,2023-04-11_18h37.50.511,OS3_Mult_verification,2022.2.4,MacIntel,60.0024001,,,,,,,,,,,,,,,,,,,,,,,,,,,,,,,,,,,,,392487,1.4535,1,"[""3"",""9"",""2"",""4"",""8"",""7"",""return""]","[0.5361999999992122,0.7011999999992895,0.8676999999992177,1.0006999999992559,1.1164999999999736,1.2506999999992559,1.420099999997774]",,,,,,6,392487,Audio/392487.mp3,WAIS,0,0,0,0,1,,,,,,,,,,,,,,,,,,,,,,,,,,,,,,,,,,,,,,,,,,,,,,,,,,,,,,,,,,,,,,,,,,,,,,,,,,,,,,,,,,,,,,,,,,,,,,,,,,,,,,,,,,,,,,,,,,,,,,,
,8251,CBA,11/12/2002,002,2023-04-11_18h37.50.511,OS3_Mult_verification,2022.2.4,MacIntel,60.0024001,,,,,,,,,,,,,,,,,,,,,,,,,,,,,,,,,,,,,619473,1.3122,1,"[""6"",""1"",""9"",""4"",""7"",""3"",""return""]","[0.4318000000007487,0.5371999999991885,0.63149999999996,0.7644999999999982,0.8829000000022234,1.115000000000009,1.282199999999193]",,,,,,6,619473,Audio/619473.mp3,WAIS,0,1,1,1,1,,,,,,,,,,,,,,,,,,,,,,,,,,,,,,,,,,,,,,,,,,,,,,,,,,,,,,,,,,,,,,,,,,,,,,,,,,,,,,,,,,,,,,,,,,,,,,,,,,,,,,,,,,,,,,,,,,,,,,,
,8251,CBA,11/12/2002,002,2023-04-11_18h37.50.511,OS3_Mult_verification,2022.2.4,MacIntel,60.0024001,,,,,,,,,,,,,,,,,,,,,,,,,,,,,,,,,,,,,,,,,,,,,,,,,,,,,,,,0,4,4,4,1,digitSpan_stim/sixWAIS.xlsx,,,,,,,,,,,,,,,,,,,,,,,,,,,,,,,,,,,,,,,,,,,,,,,,,,,,,,,,,,,,,,,,,,,,,,,,,,,,,,,,,,,,,,,,,,,,,,,,,,,,,,,,,,,,,,,,,
,8251,CBA,11/12/2002,002,2023-04-11_18h37.50.511,OS3_Mult_verification,2022.2.4,MacIntel,60.0024001,,,,,,,,,,,,,,,,,,,,,,,,,,,,,,,,,,,,,6194728,4.2316,0,"[""6"",""4"",""backspace"",""1"",""9"",""4"",""7"",""2"",""8"",""return""]","[0.4326999999992722,0.5836999999992258,1.9829999999999472,2.3500000000000227,2.8666999999992413,3.1826000000014574,3.450399999998467,3.7176000000014255,3.96739999999852,4.199899999998479]",,,,,,7,6917428,Audio/6917428.mp3,WAIS,0,0,0,0,1,,,,,,,,,,,,,,,,,,,,,,,,,,,,,,,,,,,,,,,,,,,,,,,,,,,,,,,,,,,,,,,,,,,,,,,,,,,,,,,,,,,,,,,,,,,,,,,,,,,,,,,,,,,,,,,,,,,,,,,
,8251,CBA,11/12/2002,002,2023-04-11_18h37.50.511,OS3_Mult_verification,2022.2.4,MacIntel,60.0024001,,,,,,,,,,,,,,,,,,,,,,,,,,,,,,,,,,,,,4179386,2.7153,1,"[""4"",""1"",""7"",""9"",""3"",""8"",""6"",""return""]","[0.6171000000014146,0.866300000000706,1.2501000000014528,1.5669999999998936,1.9663999999984298,2.0998999999984562,2.4688000000006696,2.6831999999991467]",,,,,,7,4179386,Audio/4179386.mp3,WAIS,0,1,1,1,1,,,,,,,,,,,,,,,,,,,,,,,,,,,,,,,,,,,,,,,,,,,,,,,,,,,,,,,,,,,,,,,,,,,,,,,,,,,,,,,,,,,,,,,,,,,,,,,,,,,,,,,,,,,,,,,,,,,,,,,
,8251,CBA,11/12/2002,002,2023-04-11_18h37.50.511,OS3_Mult_verification,2022.2.4,MacIntel,60.0024001,,,,,,,,,,,,,,,,,,,,,,,,,,,,,,,,,,,,,,,,,,,,,,,,,,,,,,,,0,5,5,5,1,digitSpan_stim/sevenWAIS.xlsx,,,,,,,,,,,,,,,,,,,,,,,,,,,,,,,,,,,,,,,,,,,,,,,,,,,,,,,,,,,,,,,,,,,,,,,,,,,,,,,,,,,,,,,,,,,,,,,,,,,,,,,,,,,,,,,,,
,8251,CBA,11/12/2002,002,2023-04-11_18h37.50.511,OS3_Mult_verification,2022.2.4,MacIntel,60.0024001,,,,,,,,,,,,,,,,,,,,,,,,,,,,,,,,,,,,,3829174,3.0174,0,"[""3"",""8"",""2"",""9"",""1"",""7"",""4"",""return""]","[0.4840000000000373,0.616899999998509,0.7503999999985353,0.9171999999992977,2.4670999999977994,2.6662999999970225,2.8168999999985544,2.9831999999993286]",,,,,,8,38296174,Audio/38296174.mp3,WAIS,0,0,0,0,1,,,,,,,,,,,,,,,,,,,,,,,,,,,,,,,,,,,,,,,,,,,,,,,,,,,,,,,,,,,,,,,,,,,,,,,,,,,,,,,,,,,,,,,,,,,,,,,,,,,,,,,,,,,,,,,,,,,,,,,
,8251,CBA,11/12/2002,002,2023-04-11_18h37.50.511,OS3_Mult_verification,2022.2.4,MacIntel,60.0024001,,,,,,,,,,,,,,,,,,,,,,,,,,,,,,,,,,,,,5182347,5.0335,0,"[""5"",""1"",""8"",""2"",""3"",""4"",""7"",""return""]","[1.3665000000000873,1.4698999999985745,1.6995999999977585,2.133199999999306,3.8826999999993177,3.9990000000000236,4.11630000000082,5.001199999999244]",,,,,,8,58132647,Audio/58132647.mp3,WAIS,0,1,1,1,1,,,,,,,,,,,,,,,,,,,,,,,,,,,,,,,,,,,,,,,,,,,,,,,,,,,,,,,,,,,,,,,,,,,,,,,,,,,,,,,,,,,,,,,,,,,,,,,,,,,,,,,,,,,,,,,,,,,,,,,
,8251,CBA,11/12/2002,002,2023-04-11_18h37.50.511,OS3_Mult_verification,2022.2.4,MacIntel,60.0024001,,,,,,,,,,,,,,,,,,,,,,,,,,,,,,,,,,,,,,,,,,,,,,,WAIS,,,,,,,,,,,,,,,0,0,0,1,1,digitSpan_stim/WAIS.xlsx,,,,,,,,,,,,,,,,,,,,,,,,,,,,,,,,,,,,,,,,,,,,,,,,,,,,,,,,,,,,,,,,,,,,,,,,,,,,,,,,,,,,,,,,,,,,,,,,,,,,,,,,,,,
,8251,CBA,11/12/2002,002,2023-04-11_18h37.50.511,OS3_Mult_verification,2022.2.4,MacIntel,60.0024001,,,,,,,,,,,,,,,,,,,,,,,,,,,,,,,,,,,,,46,1.1329,1,"[""4"",""6"",""return""]","[0.7851999999992358,0.869100000001481,1.099900000002208]",,,,,,2,46,Audio/46.mp3,EGNER,0,0,0,0,1,,,,,,,,,,,,,,,,,,,,,,,,,,,,,,,,,,,,,,,,,,,,,,,,,,,,,,,,,,,,,,,,,,,,,,,,,,,,,,,,,,,,,,,,,,,,,,,,,,,,,,,,,,,,,,,,,,,,,,,
,8251,CBA,11/12/2002,002,2023-04-11_18h37.50.511,OS3_Mult_verification,2022.2.4,MacIntel,60.0024001,,,,,,,,,,,,,,,,,,,,,,,,,,,,,,,,,,,,,82,0.8678,1,"[""8"",""2"",""return""]","[0.4199000000021442,0.4366000000014765,0.8404999999999063]",,,,,,2,82,Audio/82.mp3,EGNER,0,1,1,1,1,,,,,,,,,,,,,,,,,,,,,,,,,,,,,,,,,,,,,,,,,,,,,,,,,,,,,,,,,,,,,,,,,,,,,,,,,,,,,,,,,,,,,,,,,,,,,,,,,,,,,,,,,,,,,,,,,,,,,,,
,8251,CBA,11/12/2002,002,2023-04-11_18h37.50.511,OS3_Mult_verification,2022.2.4,MacIntel,60.0024001,,,,,,,,,,,,,,,,,,,,,,,,,,,,,,,,,,,,,,,,,,,,,,,,,,,,,,,,0,0,0,0,1,digitSpan_stim/twoAudio.xlsx,,,,,,,,,,,,,,,,,,,,,,,,,,,,,,,,,,,,,,,,,,,,,,,,,,,,,,,,,,,,,,,,,,,,,,,,,,,,,,,,,,,,,,,,,,,,,,,,,,,,,,,,,,,,,,,,,
,8251,CBA,11/12/2002,002,2023-04-11_18h37.50.511,OS3_Mult_verification,2022.2.4,MacIntel,60.0024001,,,,,,,,,,,,,,,,,,,,,,,,,,,,,,,,,,,,,157,0.701,1,"[""1"",""5"",""7"",""return""]","[0.41680000000076234,0.5006000000015547,0.6143000000007532,0.666399999998589]",,,,,,3,157,Audio/157.mp3,EGNER,0,0,0,0,1,,,,,,,,,,,,,,,,,,,,,,,,,,,,,,,,,,,,,,,,,,,,,,,,,,,,,,,,,,,,,,,,,,,,,,,,,,,,,,,,,,,,,,,,,,,,,,,,,,,,,,,,,,,,,,,,,,,,,,,
,8251,CBA,11/12/2002,002,2023-04-11_18h37.50.511,OS3_Mult_verification,2022.2.4,MacIntel,60.0024001,,,,,,,,,,,,,,,,,,,,,,,,,,,,,,,,,,,,,397,0.9333,1,"[""3"",""9"",""7"",""return""]","[0.499800000000846,0.584600000001501,0.6661000000015065,0.8998999999985244]",,,,,,3,397,Audio/397.mp3,EGNER,0,1,1,1,1,,,,,,,,,,,,,,,,,,,,,,,,,,,,,,,,,,,,,,,,,,,,,,,,,,,,,,,,,,,,,,,,,,,,,,,,,,,,,,,,,,,,,,,,,,,,,,,,,,,,,,,,,,,,,,,,,,,,,,,
,8251,CBA,11/12/2002,002,2023-04-11_18h37.50.511,OS3_Mult_verification,2022.2.4,MacIntel,60.0024001,,,,,,,,,,,,,,,,,,,,,,,,,,,,,,,,,,,,,,,,,,,,,,,,,,,,,,,,0,1,1,1,1,digitSpan_stim/threeAudio.xlsx,,,,,,,,,,,,,,,,,,,,,,,,,,,,,,,,,,,,,,,,,,,,,,,,,,,,,,,,,,,,,,,,,,,,,,,,,,,,,,,,,,,,,,,,,,,,,,,,,,,,,,,,,,,,,,,,,
,8251,CBA,11/12/2002,002,2023-04-11_18h37.50.511,OS3_Mult_verification,2022.2.4,MacIntel,60.0024001,,,,,,,,,,,,,,,,,,,,,,,,,,,,,,,,,,,,,6352,0.9836,1,"[""6"",""3"",""5"",""2"",""return""]","[0.3500999999978376,0.4503999999985808,0.5698000000007823,0.7501999999992677,0.9508000000007542]",,,,,,4,6352,Audio/6352.mp3,EGNER,0,0,0,0,1,,,,,,,,,,,,,,,,,,,,,,,,,,,,,,,,,,,,,,,,,,,,,,,,,,,,,,,,,,,,,,,,,,,,,,,,,,,,,,,,,,,,,,,,,,,,,,,,,,,,,,,,,,,,,,,,,,,,,,,
,8251,CBA,11/12/2002,002,2023-04-11_18h37.50.511,OS3_Mult_verification,2022.2.4,MacIntel,60.0024001,,,,,,,,,,,,,,,,,,,,,,,,,,,,,,,,,,,,,9184,1.2323,1,"[""9"",""1"",""8"",""4"",""return""]","[0.7847999999970625,0.9003999999985126,0.9842999999970061,1.100999999999999,1.2005999999977348]",,,,,,4,9184,Audio/9184.mp3,EGNER,0,1,1,1,1,,,,,,,,,,,,,,,,,,,,,,,,,,,,,,,,,,,,,,,,,,,,,,,,,,,,,,,,,,,,,,,,,,,,,,,,,,,,,,,,,,,,,,,,,,,,,,,,,,,,,,,,,,,,,,,,,,,,,,,
,8251,CBA,11/12/2002,002,2023-04-11_18h37.50.511,OS3_Mult_verification,2022.2.4,MacIntel,60.0024001,,,,,,,,,,,,,,,,,,,,,,,,,,,,,,,,,,,,,,,,,,,,,,,,,,,,,,,,0,2,2,2,1,digitSpan_stim/fourAudio.xlsx,,,,,,,,,,,,,,,,,,,,,,,,,,,,,,,,,,,,,,,,,,,,,,,,,,,,,,,,,,,,,,,,,,,,,,,,,,,,,,,,,,,,,,,,,,,,,,,,,,,,,,,,,,,,,,,,,
,8251,CBA,11/12/2002,002,2023-04-11_18h37.50.511,OS3_Mult_verification,2022.2.4,MacIntel,60.0024001,,,,,,,,,,,,,,,,,,,,,,,,,,,,,,,,,,,,,59281,1.7349,1,"[""5"",""9"",""2"",""8"",""1"",""return""]","[0.41700000000003,0.5659000000023298,0.6869000000023107,0.7994000000022652,1.4880000000000564,1.6998000000007778]",,,,,,5,59281,Audio/59281.mp3,EGNER,0,0,0,0,1,,,,,,,,,,,,,,,,,,,,,,,,,,,,,,,,,,,,,,,,,,,,,,,,,,,,,,,,,,,,,,,,,,,,,,,,,,,,,,,,,,,,,,,,,,,,,,,,,,,,,,,,,,,,,,,,,,,,,,,
,8251,CBA,11/12/2002,002,2023-04-11_18h37.50.511,OS3_Mult_verification,2022.2.4,MacIntel,60.0024001,,,,,,,,,,,,,,,,,,,,,,,,,,,,,,,,,,,,,64738,1.6351,1,"[""6"",""4"",""7"",""3"",""8"",""return""]","[0.4356000000015001,0.5721999999992704,0.6648999999985108,0.8526000000014164,1.3718000000006896,1.6048999999984517]",,,,,,5,64738,Audio/64738.mp3,EGNER,0,1,1,1,1,,,,,,,,,,,,,,,,,,,,,,,,,,,,,,,,,,,,,,,,,,,,,,,,,,,,,,,,,,,,,,,,,,,,,,,,,,,,,,,,,,,,,,,,,,,,,,,,,,,,,,,,,,,,,,,,,,,,,,,
,8251,CBA,11/12/2002,002,2023-04-11_18h37.50.511,OS3_Mult_verification,2022.2.4,MacIntel,60.0024001,,,,,,,,,,,,,,,,,,,,,,,,,,,,,,,,,,,,,,,,,,,,,,,,,,,,,,,,0,3,3,3,1,digitSpan_stim/fiveAudio.xlsx,,,,,,,,,,,,,,,,,,,,,,,,,,,,,,,,,,,,,,,,,,,,,,,,,,,,,,,,,,,,,,,,,,,,,,,,,,,,,,,,,,,,,,,,,,,,,,,,,,,,,,,,,,,,,,,,,
,8251,CBA,11/12/2002,002,2023-04-11_18h37.50.511,OS3_Mult_verification,2022.2.4,MacIntel,60.0024001,,,,,,,,,,,,,,,,,,,,,,,,,,,,,,,,,,,,,396172,1.7006,1,"[""3"",""9"",""6"",""1"",""7"",""2"",""return""]","[0.5336000000014565,0.6189000000022133,0.6849999999999454,0.946800000000735,1.116700000002993,1.4499999999999318,1.6666000000014947]",,,,,,6,396172,Audio/396172.mp3,EGNER,0,0,0,0,1,,,,,,,,,,,,,,,,,,,,,,,,,,,,,,,,,,,,,,,,,,,,,,,,,,,,,,,,,,,,,,,,,,,,,,,,,,,,,,,,,,,,,,,,,,,,,,,,,,,,,,,,,,,,,,,,,,,,,,,
,8251,CBA,11/12/2002,002,2023-04-11_18h37.50.511,OS3_Mult_verification,2022.2.4,MacIntel,60.0024001,,,,,,,,,,,,,,,,,,,,,,,,,,,,,,,,,,,,,594631,1.7498,1,"[""5"",""9"",""4"",""6"",""3"",""1"",""return""]","[0.5334000000021888,0.6836000000015474,0.852100000001542,1.0173000000007733,1.3496000000014874,1.5523000000007414,1.7167000000030157]",,,,,,6,594631,Audio/594631.mp3,EGNER,0,1,1,1,1,,,,,,,,,,,,,,,,,,,,,,,,,,,,,,,,,,,,,,,,,,,,,,,,,,,,,,,,,,,,,,,,,,,,,,,,,,,,,,,,,,,,,,,,,,,,,,,,,,,,,,,,,,,,,,,,,,,,,,,
,8251,CBA,11/12/2002,002,2023-04-11_18h37.50.511,OS3_Mult_verification,2022.2.4,MacIntel,60.0024001,,,,,,,,,,,,,,,,,,,,,,,,,,,,,,,,,,,,,,,,,,,,,,,,,,,,,,,,0,4,4,4,1,digitSpan_stim/sixAudio.xlsx,,,,,,,,,,,,,,,,,,,,,,,,,,,,,,,,,,,,,,,,,,,,,,,,,,,,,,,,,,,,,,,,,,,,,,,,,,,,,,,,,,,,,,,,,,,,,,,,,,,,,,,,,,,,,,,,,
,8251,CBA,11/12/2002,002,2023-04-11_18h37.50.511,OS3_Mult_verification,2022.2.4,MacIntel,60.0024001,,,,,,,,,,,,,,,,,,,,,,,,,,,,,,,,,,,,,8241973,3.1183,1,"[""8"",""2"",""4"",""1"",""9"",""7"",""3"",""return""]","[1.2673999999984744,1.5868000000007214,1.8338999999984935,2.0663000000007514,2.3999999999999773,2.683399999998528,2.9161999999992076,3.083699999999226]",,,,,,7,8241973,Audio/8241973.mp3,EGNER,0,0,0,0,1,,,,,,,,,,,,,,,,,,,,,,,,,,,,,,,,,,,,,,,,,,,,,,,,,,,,,,,,,,,,,,,,,,,,,,,,,,,,,,,,,,,,,,,,,,,,,,,,,,,,,,,,,,,,,,,,,,,,,,,
,8251,CBA,11/12/2002,002,2023-04-11_18h37.50.511,OS3_Mult_verification,2022.2.4,MacIntel,60.0024001,,,,,,,,,,,,,,,,,,,,,,,,,,,,,,,,,,,,,2814367,2.3161,1,"[""2"",""8"",""1"",""4"",""3"",""6"",""7"",""return""]","[0.855100000001471,1.0670000000000073,1.2526000000015074,1.4539000000022497,1.6528000000007523,1.883699999999294,2.033300000000736,2.285400000002255]",,,,,,7,2814367,Audio/2814367.mp3,EGNER,0,1,1,1,1,,,,,,,,,,,,,,,,,,,,,,,,,,,,,,,,,,,,,,,,,,,,,,,,,,,,,,,,,,,,,,,,,,,,,,,,,,,,,,,,,,,,,,,,,,,,,,,,,,,,,,,,,,,,,,,,,,,,,,,
,8251,CBA,11/12/2002,002,2023-04-11_18h37.50.511,OS3_Mult_verification,2022.2.4,MacIntel,60.0024001,,,,,,,,,,,,,,,,,,,,,,,,,,,,,,,,,,,,,,,,,,,,,,,,,,,,,,,,0,5,5,5,1,digitSpan_stim/sevenAudio.xlsx,,,,,,,,,,,,,,,,,,,,,,,,,,,,,,,,,,,,,,,,,,,,,,,,,,,,,,,,,,,,,,,,,,,,,,,,,,,,,,,,,,,,,,,,,,,,,,,,,,,,,,,,,,,,,,,,,
,8251,CBA,11/12/2002,002,2023-04-11_18h37.50.511,OS3_Mult_verification,2022.2.4,MacIntel,60.0024001,,,,,,,,,,,,,,,,,,,,,,,,,,,,,,,,,,,,,5382714,6.9019,0,"[""8"",""backspace"",""5"",""3"",""8"",""backspace"",""8"",""2"",""7"",""1"",""4"",""return""]","[0.6825999999977057,2.699899999998479,3.0168999999984862,3.2498000000007323,3.5493000000006987,4.166800000000762,5.083499999999958,5.399300000000721,5.783300000000736,6.166300000000774,6.566199999999185,6.866199999999253]",,,,,,8,53827164,Audio/53827164.mp3,EGNER,0,0,0,0,1,,,,,,,,,,,,,,,,,,,,,,,,,,,,,,,,,,,,,,,,,,,,,,,,,,,,,,,,,,,,,,,,,,,,,,,,,,,,,,,,,,,,,,,,,,,,,,,,,,,,,,,,,,,,,,,,,,,,,,,
,8251,CBA,11/12/2002,002,2023-04-11_18h37.50.511,OS3_Mult_verification,2022.2.4,MacIntel,60.0024001,,,,,,,,,,,,,,,,,,,,,,,,,,,,,,,,,,,,,75234179,6.9197,0,"[""7"",""5"",""2"",""3"",""4"",""1"",""7"",""9"",""return""]","[1.5163000000006832,1.7340000000000373,1.9674000000022716,4.718300000000681,5.167100000001483,5.467499999999973,5.950699999999301,6.66919999999925,6.883500000000026]",,,,,,8,75241739,Audio/75241739.mp3,EGNER,0,1,1,1,1,,,,,,,,,,,,,,,,,,,,,,,,,,,,,,,,,,,,,,,,,,,,,,,,,,,,,,,,,,,,,,,,,,,,,,,,,,,,,,,,,,,,,,,,,,,,,,,,,,,,,,,,,,,,,,,,,,,,,,,
,8251,CBA,11/12/2002,002,2023-04-11_18h37.50.511,OS3_Mult_verification,2022.2.4,MacIntel,60.0024001,,,,,,,,,,,,,,,,,,,,,,,,,,,,,,,,,,,,,,,,,,,,,,,Egner,,,,,,,,,,,,,,,0,1,1,0,1,digitSpan_stim/Egner.xlsx,,,,,,,,,,,,,,,,,,,,,,,,,,,,,,,,,,,,,,,,,,,,,,,,,,,,,,,,,,,,,,,,,,,,,,,,,,,,,,,,,,,,,,,,,,,,,,,,,,,,,,,,,,,
,8251,CBA,11/12/2002,002,2023-04-11_18h37.50.511,OS3_Mult_verification,2022.2.4,MacIntel,60.0024001,,,,,,,,,,,,,,,,,,,,,,,,,,,,,,,,,,,,,,,,,,,,,,,,,,,,,,,,,,,,,,,,,,,,0,0,0,0,1,,,,,,,,,,,,,,,,,,,,,,,,,,,,,,,,,,,,,,,,,,,,,,,,,,,,,,,,,,,,,,,,,,,,,,,,,,,,,,,,,,,,,,,,,,,,,,,,,,,,,,
,8251,CBA,11/12/2002,002,2023-04-11_18h37.50.511,OS3_Mult_verification,2022.2.4,MacIntel,60.0024001,,,,,,,,,,,,,,,,,,,,,,,,,,,,,,,,,,,,,,,,,,,,,,,,,,,,,,,,,,,,,,,,,,,,,,,,,0,0,0,0,1,0,0,1,,,,,,,,,,,,,,,,,,,,,,,,,,,,,,,,,,,,,,,,,,,,,,,,,,,,,,,,,,,,,,,,,,,,,,,,,,,,,,,,,,,,,,,,,,,,,,
,8251,CBA,11/12/2002,002,2023-04-11_18h37.50.511,OS3_Mult_verification,2022.2.4,MacIntel,60.0024001,,,,,,,,,,,,,,,,space,1.4846,,,,,,,,,,,,,,,,,,,,,,,,,,,,,,,,,,,,,,,,,,,,,,,,,,,,,,,,,,,,,,,,TRUE,2.0835,-0.060793573,-0.338059896,1,0,0,0,0,0,1,1,practice trial,,3,3,,,,,,,,,,,,,,,,,,,,,,,,,,,,,,,,,,,,,,,,,,,,,,,,,,,,,,,,,,,,,,,,,,,,,,,,,,,,,,
,8251,CBA,11/12/2002,002,2023-04-11_18h37.50.511,OS3_Mult_verification,2022.2.4,MacIntel,60.0024001,,,,,,,,,,,,,,,,,,,,,,,,,,,,,,,,,,,,,,,,,,,,,,,,,,,,,,,,,,,,,,,,,,,,,,,,,,,,,,,,,TRUE,1.5331,0.027720947,-0.325919015,1,0,0,0,1,1,2,1,practice trial,,3,3,,,,,,,,,,,,,,,,,,,,,,,,,,,,,,,,,,,,,,,,,,,,,,,,,,,,,,,,,,,,,,,,,,,,,,,,,,,,,,
,8251,CBA,11/12/2002,002,2023-04-11_18h37.50.511,OS3_Mult_verification,2022.2.4,MacIntel,60.0024001,,,,,,,,,,,,,,,,,,,,,,,,,,,,,,,,,,,,,,,,,,,,,,,,,,,,,,,,,,,,,,,,,,,,,,,,,,,,,,,,,TRUE,1.851,0.023350249,-0.363516555,1,0,0,0,2,2,0,1,practice trial,,3,3,,,,,,,,,,,,,,,,,,,,,,,,,,,,,,,,,,,,,,,,,,,,,,,,,,,,,,,,,,,,,,,,,,,,,,,,,,,,,,
,8251,CBA,11/12/2002,002,2023-04-11_18h37.50.511,OS3_Mult_verification,2022.2.4,MacIntel,60.0024001,,,,,,,,,,,,,,,,,,,,,,,,,,,,,,,,,,,,,,,,,,,,,,,,,,,,,,,,,,,,,,,,,,,,,,,,,,,,,,,,,TRUE,0.9998,0.038867653,-0.357224877,1,0,0,,,,,,Trial #1,,2,2,0,0,0,0,1,2,,,,,,,,,,,,,,,,,,,,,,,,,,,,,,,,,,,,,,,,,,,,,,,,,,,,,,,,,,,,,,,,,,,,,,,,
,8251,CBA,11/12/2002,002,2023-04-11_18h37.50.511,OS3_Mult_verification,2022.2.4,MacIntel,60.0024001,,,,,,,,,,,,,,,,,,,,,,,,,,,,,,,,,,,,,,,,,,,,,,,,,,,,,,,,,,,,,,,,,,,,,,,,,,,,,,,,,TRUE,0.9664,0.048198068,-0.364985584,1,0,0,,,,,,Trial #1,,2,2,0,1,1,1,1,2,,,,,,,,,,,,,,,,,,,,,,,,,,,,,,,,,,,,,,,,,,,,,,,,,,,,,,,,,,,,,,,,,,,,,,,,
,8251,CBA,11/12/2002,002,2023-04-11_18h37.50.511,OS3_Mult_verification,2022.2.4,MacIntel,60.0024001,,,,,,,,,,,,,,,,,,,,,,,,,,,,,,,,,,,,,,,,,,,,,,,,,,,,,,,,,,,,,,,,,,,,,,,,,,,,,,,,,TRUE,0.9477,0.010763463,-0.354192418,1,0,0,,,,,,Trial #1,,2,2,0,2,2,2,1,2,,,,,,,,,,,,,,,,,,,,,,,,,,,,,,,,,,,,,,,,,,,,,,,,,,,,,,,,,,,,,,,,,,,,,,,,
,8251,CBA,11/12/2002,002,2023-04-11_18h37.50.511,OS3_Mult_verification,2022.2.4,MacIntel,60.0024001,,,,,,,,,,,,,,,,,,,,,,,,,,,,,,,,,,,,,,,,,,,,,,,,,,,,,,,,,,,,,,,,,,,,,,,,,,,,,,,,,TRUE,1.1154,-0.033049549,-0.371539714,1,0,0,,,,,,Trial #2,,3,3,0,0,0,0,1,3,,,,,,,,,,,,,,,,,,,,,,,,,,,,,,,,,,,,,,,,,,,,,,,,,,,,,,,,,,,,,,,,,,,,,,,,
,8251,CBA,11/12/2002,002,2023-04-11_18h37.50.511,OS3_Mult_verification,2022.2.4,MacIntel,60.0024001,,,,,,,,,,,,,,,,,,,,,,,,,,,,,,,,,,,,,,,,,,,,,,,,,,,,,,,,,,,,,,,,,,,,,,,,,,,,,,,,,TRUE,1.3506,0.043409656,-0.375869838,1,0,0,,,,,,Trial #2,,3,3,0,1,1,1,1,3,,,,,,,,,,,,,,,,,,,,,,,,,,,,,,,,,,,,,,,,,,,,,,,,,,,,,,,,,,,,,,,,,,,,,,,,
,8251,CBA,11/12/2002,002,2023-04-11_18h37.50.511,OS3_Mult_verification,2022.2.4,MacIntel,60.0024001,,,,,,,,,,,,,,,,,,,,,,,,,,,,,,,,,,,,,,,,,,,,,,,,,,,,,,,,,,,,,,,,,,,,,,,,,,,,,,,,,TRUE,1.1308,0.062971715,-0.373643043,1,0,0,,,,,,Trial #2,,3,3,0,2,2,2,1,3,,,,,,,,,,,,,,,,,,,,,,,,,,,,,,,,,,,,,,,,,,,,,,,,,,,,,,,,,,,,,,,,,,,,,,,,
,8251,CBA,11/12/2002,002,2023-04-11_18h37.50.511,OS3_Mult_verification,2022.2.4,MacIntel,60.0024001,,,,,,,,,,,,,,,,,,,,,,,,,,,,,,,,,,,,,,,,,,,,,,,,,,,,,,,,,,,,,,,,,,,,,,,,,,,,,,,,,TRUE,1.3302,-0.022053223,-0.342720947,1,0,0,,,,,,Trial #3,,3,3,0,0,0,0,1,4,,,,,,,,,,,,,,,,,,,,,,,,,,,,,,,,,,,,,,,,,,,,,,,,,,,,,,,,,,,,,,,,,,,,,,,,
,8251,CBA,11/12/2002,002,2023-04-11_18h37.50.511,OS3_Mult_verification,2022.2.4,MacIntel,60.0024001,,,,,,,,,,,,,,,,,,,,,,,,,,,,,,,,,,,,,,,,,,,,,,,,,,,,,,,,,,,,,,,,,,,,,,,,,,,,,,,,,TRUE,1.5843,0.030254429,-0.327978981,1,0,0,,,,,,Trial #3,,3,3,0,1,1,1,1,4,,,,,,,,,,,,,,,,,,,,,,,,,,,,,,,,,,,,,,,,,,,,,,,,,,,,,,,,,,,,,,,,,,,,,,,,
,8251,CBA,11/12/2002,002,2023-04-11_18h37.50.511,OS3_Mult_verification,2022.2.4,MacIntel,60.0024001,,,,,,,,,,,,,,,,,,,,,,,,,,,,,,,,,,,,,,,,,,,,,,,,,,,,,,,,,,,,,,,,,,,,,,,,,,,,,,,,,TRUE,1.4997,0.002933175,-0.355166248,1,0,0,,,,,,Trial #3,,3,3,0,2,2,2,1,4,,,,,,,,,,,,,,,,,,,,,,,,,,,,,,,,,,,,,,,,,,,,,,,,,,,,,,,,,,,,,,,,,,,,,,,,
,8251,CBA,11/12/2002,002,2023-04-11_18h37.50.511,OS3_Mult_verification,2022.2.4,MacIntel,60.0024001,,,,,,,,,,,,,,,,,,,,,,,,,,,,,,,,,,,,,,,,,,,,,,,,,,,,,,,,,,,,,,,,,,,,,,,,,,,,,,,,,TRUE,2.3344,0.000594308,-0.360233329,1,0,0,,,,,,Trial #4,,4,4,0,0,0,0,1,5,,,,,,,,,,,,,,,,,,,,,,,,,,,,,,,,,,,,,,,,,,,,,,,,,,,,,,,,,,,,,,,,,,,,,,,,
,8251,CBA,11/12/2002,002,2023-04-11_18h37.50.511,OS3_Mult_verification,2022.2.4,MacIntel,60.0024001,,,,,,,,,,,,,,,,,,,,,,,,,,,,,,,,,,,,,,,,,,,,,,,,,,,,,,,,,,,,,,,,,,,,,,,,,,,,,,,,,TRUE,1.8839,0.042451695,-0.322114665,1,0,0,,,,,,Trial #4,,4,4,0,1,1,1,1,5,,,,,,,,,,,,,,,,,,,,,,,,,,,,,,,,,,,,,,,,,,,,,,,,,,,,,,,,,,,,,,,,,,,,,,,,
,8251,CBA,11/12/2002,002,2023-04-11_18h37.50.511,OS3_Mult_verification,2022.2.4,MacIntel,60.0024001,,,,,,,,,,,,,,,,,,,,,,,,,,,,,,,,,,,,,,,,,,,,,,,,,,,,,,,,,,,,,,,,,,,,,,,,,,,,,,,,,TRUE,1.5172,-0.006931501,-0.338764242,1,0,0,,,,,,Trial #4,,4,4,0,2,2,2,1,5,,,,,,,,,,,,,,,,,,,,,,,,,,,,,,,,,,,,,,,,,,,,,,,,,,,,,,,,,,,,,,,,,,,,,,,,
,8251,CBA,11/12/2002,002,2023-04-11_18h37.50.511,OS3_Mult_verification,2022.2.4,MacIntel,60.0024001,,,,,,,,,,,,,,,,,,,,,,,,,,,,,,,,,,,,,,,,,,,,,,,,,,,,,,,,,,,,,,,,,,,,,,,,,,,,,,,,,TRUE,1.7475,0.039360526,-0.3164252,1,0,0,,,,,,Trial #5,,4,4,0,0,0,0,1,6,,,,,,,,,,,,,,,,,,,,,,,,,,,,,,,,,,,,,,,,,,,,,,,,,,,,,,,,,,,,,,,,,,,,,,,,
,8251,CBA,11/12/2002,002,2023-04-11_18h37.50.511,OS3_Mult_verification,2022.2.4,MacIntel,60.0024001,,,,,,,,,,,,,,,,,,,,,,,,,,,,,,,,,,,,,,,,,,,,,,,,,,,,,,,,,,,,,,,,,,,,,,,,,,,,,,,,,TRUE,1.9667,0.021807978,-0.349811024,1,0,0,,,,,,Trial #5,,4,4,0,1,1,1,1,6,,,,,,,,,,,,,,,,,,,,,,,,,,,,,,,,,,,,,,,,,,,,,,,,,,,,,,,,,,,,,,,,,,,,,,,,
,8251,CBA,11/12/2002,002,2023-04-11_18h37.50.511,OS3_Mult_verification,2022.2.4,MacIntel,60.0024001,,,,,,,,,,,,,,,,,,,,,,,,,,,,,,,,,,,,,,,,,,,,,,,,,,,,,,,,,,,,,,,,,,,,,,,,,,,,,,,,,TRUE,2.4845,0.022290213,-0.355437767,1,0,0,,,,,,Trial #5,,4,4,0,2,2,2,1,6,,,,,,,,,,,,,,,,,,,,,,,,,,,,,,,,,,,,,,,,,,,,,,,,,,,,,,,,,,,,,,,,,,,,,,,,
,8251,CBA,11/12/2002,002,2023-04-11_18h37.50.511,OS3_Mult_verification,2022.2.4,MacIntel,60.0024001,,,,,,,,,,,,,,,,,,,,,,,,,,,,,,,,,,,,,,,,,,,,,,,,,,,,,,,,,,,,,,,,,,,,,,,,,,,,,,,,,TRUE,2.1674,0.01066011,-0.366362072,1,0,0,,,,,,Trial #6,,4,4,0,0,0,0,1,7,,,,,,,,,,,,,,,,,,,,,,,,,,,,,,,,,,,,,,,,,,,,,,,,,,,,,,,,,,,,,,,,,,,,,,,,
,8251,CBA,11/12/2002,002,2023-04-11_18h37.50.511,OS3_Mult_verification,2022.2.4,MacIntel,60.0024001,,,,,,,,,,,,,,,,,,,,,,,,,,,,,,,,,,,,,,,,,,,,,,,,,,,,,,,,,,,,,,,,,,,,,,,,,,,,,,,,,TRUE,2.2345,0.061552502,-0.318149937,1,0,0,,,,,,Trial #6,,4,4,0,1,1,1,1,7,,,,,,,,,,,,,,,,,,,,,,,,,,,,,,,,,,,,,,,,,,,,,,,,,,,,,,,,,,,,,,,,,,,,,,,,
,8251,CBA,11/12/2002,002,2023-04-11_18h37.50.511,OS3_Mult_verification,2022.2.4,MacIntel,60.0024001,,,,,,,,,,,,,,,,,,,,,,,,,,,,,,,,,,,,,,,,,,,,,,,,,,,,,,,,,,,,,,,,,,,,,,,,,,,,,,,,,TRUE,2.3659,0.042478085,-0.361846866,1,0,0,,,,,,Trial #6,,4,4,0,2,2,2,1,7,,,,,,,,,,,,,,,,,,,,,,,,,,,,,,,,,,,,,,,,,,,,,,,,,,,,,,,,,,,,,,,,,,,,,,,,
,8251,CBA,11/12/2002,002,2023-04-11_18h37.50.511,OS3_Mult_verification,2022.2.4,MacIntel,60.0024001,,,,,,,,,,,,,,,,,,,,,,,,,,,,,,,,,,,,,,,,,,,,,,,,,,,,,,,,,,,,,,,,,,,,,,,,,,,,,,,,,TRUE,5.267,0.04363537,-0.37540353,1,0,0,,,,,,Trial #7,,4,4,0,0,0,0,1,8,,,,,,,,,,,,,,,,,,,,,,,,,,,,,,,,,,,,,,,,,,,,,,,,,,,,,,,,,,,,,,,,,,,,,,,,
,8251,CBA,11/12/2002,002,2023-04-11_18h37.50.511,OS3_Mult_verification,2022.2.4,MacIntel,60.0024001,,,,,,,,,,,,,,,,,,,,,,,,,,,,,,,,,,,,,,,,,,,,,,,,,,,,,,,,,,,,,,,,,,,,,,,,,,,,,,,,,TRUE,2.8502,0.050910935,-0.371066953,1,0,0,,,,,,Trial #7,,4,4,0,1,1,1,1,8,,,,,,,,,,,,,,,,,,,,,,,,,,,,,,,,,,,,,,,,,,,,,,,,,,,,,,,,,,,,,,,,,,,,,,,,
,8251,CBA,11/12/2002,002,2023-04-11_18h37.50.511,OS3_Mult_verification,2022.2.4,MacIntel,60.0024001,,,,,,,,,,,,,,,,,,,,,,,,,,,,,,,,,,,,,,,,,,,,,,,,,,,,,,,,,,,,,,,,,,,,,,,,,,,,,,,,,TRUE,2.2188,0.033193824,-0.378460403,1,0,0,,,,,,Trial #7,,4,4,0,2,2,2,1,8,,,,,,,,,,,,,,,,,,,,,,,,,,,,,,,,,,,,,,,,,,,,,,,,,,,,,,,,,,,,,,,,,,,,,,,,
,8251,CBA,11/12/2002,002,2023-04-11_18h37.50.511,OS3_Mult_verification,2022.2.4,MacIntel,60.0024001,,,,,,,,,,,,,,,,,,,,,,,,,,,,,,,,,,,,,,,,,,,,,,,,,,,,,,,,,,,,,,,,,,,,,,,,,,,,,,,,,TRUE,3.4342,0.074147833,-0.381082996,1,0,0,,,,,,Trial #8,,5,5,0,0,0,0,1,9,,,,,,,,,,,,,,,,,,,,,,,,,,,,,,,,,,,,,,,,,,,,,,,,,,,,,,,,,,,,,,,,,,,,,,,,
,8251,CBA,11/12/2002,002,2023-04-11_18h37.50.511,OS3_Mult_verification,2022.2.4,MacIntel,60.0024001,,,,,,,,,,,,,,,,,,,,,,,,,,,,,,,,,,,,,,,,,,,,,,,,,,,,,,,,,,,,,,,,,,,,,,,,,,,,,,,,,TRUE,3.2002,0.060774798,-0.351739037,1,0,0,,,,,,Trial #8,,5,5,0,1,1,1,1,9,,,,,,,,,,,,,,,,,,,,,,,,,,,,,,,,,,,,,,,,,,,,,,,,,,,,,,,,,,,,,,,,,,,,,,,,
,8251,CBA,11/12/2002,002,2023-04-11_18h37.50.511,OS3_Mult_verification,2022.2.4,MacIntel,60.0024001,,,,,,,,,,,,,,,,,,,,,,,,,,,,,,,,,,,,,,,,,,,,,,,,,,,,,,,,,,,,,,,,,,,,,,,,,,,,,,,,,TRUE,3.2494,0.088234573,-0.321432815,1,0,0,,,,,,Trial #8,,5,5,0,2,2,2,1,9,,,,,,,,,,,,,,,,,,,,,,,,,,,,,,,,,,,,,,,,,,,,,,,,,,,,,,,,,,,,,,,,,,,,,,,,
,8251,CBA,11/12/2002,002,2023-04-11_18h37.50.511,OS3_Mult_verification,2022.2.4,MacIntel,60.0024001,,,,,,,,,,,,,,,,,,,,,,,,,,,,,,,,,,,,,,,,,,,,,,,,,,,,,,,,,,,,,,,,,,,,,,,,,,,,,,,,,TRUE,3.3184,0.021189314,-0.331769671,1,0,0,,,,,,Trial #9,,5,5,0,0,0,0,1,10,,,,,,,,,,,,,,,,,,,,,,,,,,,,,,,,,,,,,,,,,,,,,,,,,,,,,,,,,,,,,,,,,,,,,,,,
,8251,CBA,11/12/2002,002,2023-04-11_18h37.50.511,OS3_Mult_verification,2022.2.4,MacIntel,60.0024001,,,,,,,,,,,,,,,,,,,,,,,,,,,,,,,,,,,,,,,,,,,,,,,,,,,,,,,,,,,,,,,,,,,,,,,,,,,,,,,,,TRUE,3.0499,0.062453439,-0.380689174,1,0,0,,,,,,Trial #9,,5,5,0,1,1,1,1,10,,,,,,,,,,,,,,,,,,,,,,,,,,,,,,,,,,,,,,,,,,,,,,,,,,,,,,,,,,,,,,,,,,,,,,,,
,8251,CBA,11/12/2002,002,2023-04-11_18h37.50.511,OS3_Mult_verification,2022.2.4,MacIntel,60.0024001,,,,,,,,,,,,,,,,,,,,,,,,,,,,,,,,,,,,,,,,,,,,,,,,,,,,,,,,,,,,,,,,,,,,,,,,,,,,,,,,,TRUE,2.5985,0.016395612,-0.376606503,1,0,0,,,,,,Trial #9,,5,5,0,2,2,2,1,10,,,,,,,,,,,,,,,,,,,,,,,,,,,,,,,,,,,,,,,,,,,,,,,,,,,,,,,,,,,,,,,,,,,,,,,,
,8251,CBA,11/12/2002,002,2023-04-11_18h37.50.511,OS3_Mult_verification,2022.2.4,MacIntel,60.0024001,,,,,,,,,,,,,,,,,,,,,,,,,,,,,,,,,,,,,,,,,,,,,,,,,,,,,,,,,,,,,,,,,,,,,,,,,,,,,,,,,FALSE,4.2672,0.017952648,-0.352760068,1,0,0,,,,,,Trial #10,,5,5,0,0,0,0,1,11,,,,,,,,,,,,,,,,,,,,,,,,,,,,,,,,,,,,,,,,,,,,,,,,,,,,,,,,,,,,,,,,,,,,,,,,
,8251,CBA,11/12/2002,002,2023-04-11_18h37.50.511,OS3_Mult_verification,2022.2.4,MacIntel,60.0024001,,,,,,,,,,,,,,,,,,,,,,,,,,,,,,,,,,,,,,,,,,,,,,,,,,,,,,,,,,,,,,,,,,,,,,,,,,,,,,,,,FALSE,2.9836,0.07318836,-0.354464867,1,0,0,,,,,,Trial #10,,5,5,0,1,1,1,1,11,,,,,,,,,,,,,,,,,,,,,,,,,,,,,,,,,,,,,,,,,,,,,,,,,,,,,,,,,,,,,,,,,,,,,,,,
,8251,CBA,11/12/2002,002,2023-04-11_18h37.50.511,OS3_Mult_verification,2022.2.4,MacIntel,60.0024001,,,,,,,,,,,,,,,,,,,,,,,,,,,,,,,,,,,,,,,,,,,,,,,,,,,,,,,,,,,,,,,,,,,,,,,,,,,,,,,,,TRUE,4.1818,0.067901379,-0.359919782,1,0,0,,,,,,Trial #10,,5,5,0,2,2,2,1,11,,,,,,,,,,,,,,,,,,,,,,,,,,,,,,,,,,,,,,,,,,,,,,,,,,,,,,,,,,,,,,,,,,,,,,,,
,8251,CBA,11/12/2002,002,2023-04-11_18h37.50.511,OS3_Mult_verification,2022.2.4,MacIntel,60.0024001,,,,,,,,,,,,,,,,,,,,,,,,,,,,,,,,,,,,,,,,,,,,,,,,,,,,,,,,,,,,,,,,,,,,,,,,,,,,,,,,,,,,,,,,,,,,,,,,,,,,,,,0,0,0,0,1,,,,,,,,,,,,,,,,,,,,,,,,,,,,,,,,,,,,,,,,,,,,,,,,,,,,,,,,,,,,,,,,,,,
,8251,CBA,11/12/2002,002,2023-04-11_18h37.50.511,OS3_Mult_verification,2022.2.4,MacIntel,60.0024001,,,,,,,,,,,,,,,,,,,,,,,,,,,,,,,,,,,,,,,,,,,,,,,,,,,,,,,,,,,,,,,,,,,,,,,,,0,1,1,1,1,0,1,0,,,,,,,,,,,,,,,,,,,,,,,,,,,,,,,,,,,,,,,,,,,,,,,,,,,,,,,,,,,,,,,,,,,,,,,,,,,,,,,,,,,,,,,,,,,,,,
,8251,CBA,11/12/2002,002,2023-04-11_18h37.50.511,OS3_Mult_verification,2022.2.4,MacIntel,60.0024001,,,,,,,,,,,,,,,,space,16.1836,,,,,,,,,,,,,,,,,,,,,,,,,,,,,,,,,,,,,,,,,,,,,,,,,,,,,,,,,,,,,,,,,,,,,,,,,,,,,,,,,,,,,,,,,,,right,1,0.7521,0,0,0,2,1,practice,9,9,9 | 9,0,0.05,0.065,neutral,right,,,,,,,,,,,,,,,,,,,,,,,,,,,,,,,,,,,,,,,,,,,,,,,,,,
,8251,CBA,11/12/2002,002,2023-04-11_18h37.50.511,OS3_Mult_verification,2022.2.4,MacIntel,60.0024001,,,,,,,,,,,,,,,,,,,,,,,,,,,,,,,,,,,,,,,,,,,,,,,,,,,,,,,,,,,,,,,,,,,,,,,,,,,,,,,,,,,,,,,,,,,,,,,,,,,,,,,,,,,,left,1,0.4311,0,1,1,0,1,practice,9,8,9 | 8,1,0.065,0.05,congruent,left,,,,,,,,,,,,,,,,,,,,,,,,,,,,,,,,,,,,,,,,,,,,,,,,,,
,8251,CBA,11/12/2002,002,2023-04-11_18h37.50.511,OS3_Mult_verification,2022.2.4,MacIntel,60.0024001,,,,,,,,,,,,,,,,,,,,,,,,,,,,,,,,,,,,,,,,,,,,,,,,,,,,,,,,,,,,,,,,,,,,,,,,,,,,,,,,,,,,,,,,,,,,,,,,,,,,,,,,,,,,right,1,0.4313,0,2,2,1,1,practice,4,3,4 | 3,1,0.05,0.065,incongruent,right,,,,,,,,,,,,,,,,,,,,,,,,,,,,,,,,,,,,,,,,,,,,,,,,,,
,8251,CBA,11/12/2002,002,2023-04-11_18h37.50.511,OS3_Mult_verification,2022.2.4,MacIntel,60.0024001,,,,,,,,,,,,,,,,,,,,,,,,,,,,,,,,,,,,,,,,,,,,,,,,,,,,,,,,,,,,,,,,,,,,,,,,,,,,,,,,,,,,,,,,,,,,,,,,,,,,,,,,,,,,left,1,0.4985,,,,,,physical,6,6,6 | 6,0,0.065,0.05,neutral,left,0,0,0,50,1,,,,,,,,,,,,,,,,,,,,,,,,,,,,,,,,,,,,,,,,,,,,,
,8251,CBA,11/12/2002,002,2023-04-11_18h37.50.511,OS3_Mult_verification,2022.2.4,MacIntel,60.0024001,,,,,,,,,,,,,,,,,,,,,,,,,,,,,,,,,,,,,,,,,,,,,,,,,,,,,,,,,,,,,,,,,,,,,,,,,,,,,,,,,,,,,,,,,,,,,,,,,,,,,,,,,,,,right,1,0.4657,,,,,,physical,2,7,2 | 7,5,0.05,0.065,congruent,right,0,1,1,17,1,,,,,,,,,,,,,,,,,,,,,,,,,,,,,,,,,,,,,,,,,,,,,
,8251,CBA,11/12/2002,002,2023-04-11_18h37.50.511,OS3_Mult_verification,2022.2.4,MacIntel,60.0024001,,,,,,,,,,,,,,,,,,,,,,,,,,,,,,,,,,,,,,,,,,,,,,,,,,,,,,,,,,,,,,,,,,,,,,,,,,,,,,,,,,,,,,,,,,,,,,,,,,,,,,,,,,,,left,1,0.4116,,,,,,physical,7,6,7 | 6,1,0.065,0.05,congruent,left,0,2,2,6,1,,,,,,,,,,,,,,,,,,,,,,,,,,,,,,,,,,,,,,,,,,,,,
,8251,CBA,11/12/2002,002,2023-04-11_18h37.50.511,OS3_Mult_verification,2022.2.4,MacIntel,60.0024001,,,,,,,,,,,,,,,,,,,,,,,,,,,,,,,,,,,,,,,,,,,,,,,,,,,,,,,,,,,,,,,,,,,,,,,,,,,,,,,,,,,,,,,,,,,,,,,,,,,,,,,,,,,,right,1,0.4143,,,,,,physical,6,7,6 | 7,1,0.05,0.065,congruent,right,0,3,3,2,1,,,,,,,,,,,,,,,,,,,,,,,,,,,,,,,,,,,,,,,,,,,,,
,8251,CBA,11/12/2002,002,2023-04-11_18h37.50.511,OS3_Mult_verification,2022.2.4,MacIntel,60.0024001,,,,,,,,,,,,,,,,,,,,,,,,,,,,,,,,,,,,,,,,,,,,,,,,,,,,,,,,,,,,,,,,,,,,,,,,,,,,,,,,,,,,,,,,,,,,,,,,,,,,,,,,,,,,right,1,0.4329,,,,,,physical,4,4,4 | 4,0,0.05,0.065,neutral,right,0,4,4,67,1,,,,,,,,,,,,,,,,,,,,,,,,,,,,,,,,,,,,,,,,,,,,,
,8251,CBA,11/12/2002,002,2023-04-11_18h37.50.511,OS3_Mult_verification,2022.2.4,MacIntel,60.0024001,,,,,,,,,,,,,,,,,,,,,,,,,,,,,,,,,,,,,,,,,,,,,,,,,,,,,,,,,,,,,,,,,,,,,,,,,,,,,,,,,,,,,,,,,,,,,,,,,,,,,,,,,,,,left,1,0.3811,,,,,,physical,3,8,3 | 8,5,0.065,0.05,incongruent,left,0,5,5,42,1,,,,,,,,,,,,,,,,,,,,,,,,,,,,,,,,,,,,,,,,,,,,,
,8251,CBA,11/12/2002,002,2023-04-11_18h37.50.511,OS3_Mult_verification,2022.2.4,MacIntel,60.0024001,,,,,,,,,,,,,,,,,,,,,,,,,,,,,,,,,,,,,,,,,,,,,,,,,,,,,,,,,,,,,,,,,,,,,,,,,,,,,,,,,,,,,,,,,,,,,,,,,,,,,,,,,,,,right,1,0.397,,,,,,physical,7,7,7 | 7,0,0.05,0.065,neutral,right,0,6,6,59,1,,,,,,,,,,,,,,,,,,,,,,,,,,,,,,,,,,,,,,,,,,,,,
,8251,CBA,11/12/2002,002,2023-04-11_18h37.50.511,OS3_Mult_verification,2022.2.4,MacIntel,60.0024001,,,,,,,,,,,,,,,,,,,,,,,,,,,,,,,,,,,,,,,,,,,,,,,,,,,,,,,,,,,,,,,,,,,,,,,,,,,,,,,,,,,,,,,,,,,,,,,,,,,,,,,,,,,,left,1,0.397,,,,,,physical,4,2,4 | 2,2,0.065,0.05,congruent,left,0,7,7,13,1,,,,,,,,,,,,,,,,,,,,,,,,,,,,,,,,,,,,,,,,,,,,,
,8251,CBA,11/12/2002,002,2023-04-11_18h37.50.511,OS3_Mult_verification,2022.2.4,MacIntel,60.0024001,,,,,,,,,,,,,,,,,,,,,,,,,,,,,,,,,,,,,,,,,,,,,,,,,,,,,,,,,,,,,,,,,,,,,,,,,,,,,,,,,,,,,,,,,,,,,,,,,,,,,,,,,,,,left,1,0.4326,,,,,,physical,7,2,7 | 2,5,0.065,0.05,congruent,left,0,8,8,21,1,,,,,,,,,,,,,,,,,,,,,,,,,,,,,,,,,,,,,,,,,,,,,
,8251,CBA,11/12/2002,002,2023-04-11_18h37.50.511,OS3_Mult_verification,2022.2.4,MacIntel,60.0024001,,,,,,,,,,,,,,,,,,,,,,,,,,,,,,,,,,,,,,,,,,,,,,,,,,,,,,,,,,,,,,,,,,,,,,,,,,,,,,,,,,,,,,,,,,,,,,,,,,,,,,,,,,,,right,1,0.3814,,,,,,physical,6,8,6 | 8,2,0.05,0.065,congruent,right,0,9,9,10,1,,,,,,,,,,,,,,,,,,,,,,,,,,,,,,,,,,,,,,,,,,,,,
,8251,CBA,11/12/2002,002,2023-04-11_18h37.50.511,OS3_Mult_verification,2022.2.4,MacIntel,60.0024001,,,,,,,,,,,,,,,,,,,,,,,,,,,,,,,,,,,,,,,,,,,,,,,,,,,,,,,,,,,,,,,,,,,,,,,,,,,,,,,,,,,,,,,,,,,,,,,,,,,,,,,,,,,,right,1,0.4333,,,,,,physical,6,6,6 | 6,0,0.05,0.065,neutral,right,0,10,10,58,1,,,,,,,,,,,,,,,,,,,,,,,,,,,,,,,,,,,,,,,,,,,,,
,8251,CBA,11/12/2002,002,2023-04-11_18h37.50.511,OS3_Mult_verification,2022.2.4,MacIntel,60.0024001,,,,,,,,,,,,,,,,,,,,,,,,,,,,,,,,,,,,,,,,,,,,,,,,,,,,,,,,,,,,,,,,,,,,,,,,,,,,,,,,,,,,,,,,,,,,,,,,,,,,,,,,,,,,right,1,0.4157,,,,,,physical,7,6,7 | 6,1,0.05,0.065,incongruent,right,0,11,11,30,1,,,,,,,,,,,,,,,,,,,,,,,,,,,,,,,,,,,,,,,,,,,,,
,8251,CBA,11/12/2002,002,2023-04-11_18h37.50.511,OS3_Mult_verification,2022.2.4,MacIntel,60.0024001,,,,,,,,,,,,,,,,,,,,,,,,,,,,,,,,,,,,,,,,,,,,,,,,,,,,,,,,,,,,,,,,,,,,,,,,,,,,,,,,,,,,,,,,,,,,,,,,,,,,,,,,,,,,right,1,0.516,,,,,,physical,2,2,2 | 2,0,0.05,0.065,neutral,right,0,12,12,57,1,,,,,,,,,,,,,,,,,,,,,,,,,,,,,,,,,,,,,,,,,,,,,
,8251,CBA,11/12/2002,002,2023-04-11_18h37.50.511,OS3_Mult_verification,2022.2.4,MacIntel,60.0024001,,,,,,,,,,,,,,,,,,,,,,,,,,,,,,,,,,,,,,,,,,,,,,,,,,,,,,,,,,,,,,,,,,,,,,,,,,,,,,,,,,,,,,,,,,,,,,,,,,,,,,,,,,,,left,1,0.3987,,,,,,physical,4,9,4 | 9,5,0.065,0.05,incongruent,left,0,13,13,43,1,,,,,,,,,,,,,,,,,,,,,,,,,,,,,,,,,,,,,,,,,,,,,
,8251,CBA,11/12/2002,002,2023-04-11_18h37.50.511,OS3_Mult_verification,2022.2.4,MacIntel,60.0024001,,,,,,,,,,,,,,,,,,,,,,,,,,,,,,,,,,,,,,,,,,,,,,,,,,,,,,,,,,,,,,,,,,,,,,,,,,,,,,,,,,,,,,,,,,,,,,,,,,,,,,,,,,,,left,1,0.4466,,,,,,physical,1,3,1 | 3,2,0.065,0.05,incongruent,left,0,14,14,32,1,,,,,,,,,,,,,,,,,,,,,,,,,,,,,,,,,,,,,,,,,,,,,
,8251,CBA,11/12/2002,002,2023-04-11_18h37.50.511,OS3_Mult_verification,2022.2.4,MacIntel,60.0024001,,,,,,,,,,,,,,,,,,,,,,,,,,,,,,,,,,,,,,,,,,,,,,,,,,,,,,,,,,,,,,,,,,,,,,,,,,,,,,,,,,,,,,,,,,,,,,,,,,,,,,,,,,,,right,1,0.4153,,,,,,physical,4,9,4 | 9,5,0.05,0.065,congruent,right,0,15,15,19,1,,,,,,,,,,,,,,,,,,,,,,,,,,,,,,,,,,,,,,,,,,,,,
,8251,CBA,11/12/2002,002,2023-04-11_18h37.50.511,OS3_Mult_verification,2022.2.4,MacIntel,60.0024001,,,,,,,,,,,,,,,,,,,,,,,,,,,,,,,,,,,,,,,,,,,,,,,,,,,,,,,,,,,,,,,,,,,,,,,,,,,,,,,,,,,,,,,,,,,,,,,,,,,,,,,,,,,,right,1,0.4665,,,,,,physical,2,4,2 | 4,2,0.05,0.065,congruent,right,0,16,16,9,1,,,,,,,,,,,,,,,,,,,,,,,,,,,,,,,,,,,,,,,,,,,,,
,8251,CBA,11/12/2002,002,2023-04-11_18h37.50.511,OS3_Mult_verification,2022.2.4,MacIntel,60.0024001,,,,,,,,,,,,,,,,,,,,,,,,,,,,,,,,,,,,,,,,,,,,,,,,,,,,,,,,,,,,,,,,,,,,,,,,,,,,,,,,,,,,,,,,,,,,,,,,,,,,,,,,,,,,left,1,0.4147,,,,,,physical,6,8,6 | 8,2,0.065,0.05,incongruent,left,0,17,17,34,1,,,,,,,,,,,,,,,,,,,,,,,,,,,,,,,,,,,,,,,,,,,,,
,8251,CBA,11/12/2002,002,2023-04-11_18h37.50.511,OS3_Mult_verification,2022.2.4,MacIntel,60.0024001,,,,,,,,,,,,,,,,,,,,,,,,,,,,,,,,,,,,,,,,,,,,,,,,,,,,,,,,,,,,,,,,,,,,,,,,,,,,,,,,,,,,,,,,,,,,,,,,,,,,,,,,,,,,left,1,0.4474,,,,,,physical,2,1,2 | 1,1,0.065,0.05,congruent,left,0,18,18,4,1,,,,,,,,,,,,,,,,,,,,,,,,,,,,,,,,,,,,,,,,,,,,,
,8251,CBA,11/12/2002,002,2023-04-11_18h37.50.511,OS3_Mult_verification,2022.2.4,MacIntel,60.0024001,,,,,,,,,,,,,,,,,,,,,,,,,,,,,,,,,,,,,,,,,,,,,,,,,,,,,,,,,,,,,,,,,,,,,,,,,,,,,,,,,,,,,,,,,,,,,,,,,,,,,,,,,,,,right,1,0.4125,,,,,,physical,8,8,8 | 8,0,0.05,0.065,neutral,right,0,19,19,62,1,,,,,,,,,,,,,,,,,,,,,,,,,,,,,,,,,,,,,,,,,,,,,
,8251,CBA,11/12/2002,002,2023-04-11_18h37.50.511,OS3_Mult_verification,2022.2.4,MacIntel,60.0024001,,,,,,,,,,,,,,,,,,,,,,,,,,,,,,,,,,,,,,,,,,,,,,,,,,,,,,,,,,,,,,,,,,,,,,,,,,,,,,,,,,,,,,,,,,,,,,,,,,,,,,,,,,,,left,1,0.414,,,,,,physical,3,1,3 | 1,2,0.065,0.05,congruent,left,0,20,20,12,1,,,,,,,,,,,,,,,,,,,,,,,,,,,,,,,,,,,,,,,,,,,,,
,8251,CBA,11/12/2002,002,2023-04-11_18h37.50.511,OS3_Mult_verification,2022.2.4,MacIntel,60.0024001,,,,,,,,,,,,,,,,,,,,,,,,,,,,,,,,,,,,,,,,,,,,,,,,,,,,,,,,,,,,,,,,,,,,,,,,,,,,,,,,,,,,,,,,,,,,,,,,,,,,,,,,,,,,right,1,0.3828,,,,,,physical,9,4,9 | 4,5,0.05,0.065,incongruent,right,0,21,21,47,1,,,,,,,,,,,,,,,,,,,,,,,,,,,,,,,,,,,,,,,,,,,,,
,8251,CBA,11/12/2002,002,2023-04-11_18h37.50.511,OS3_Mult_verification,2022.2.4,MacIntel,60.0024001,,,,,,,,,,,,,,,,,,,,,,,,,,,,,,,,,,,,,,,,,,,,,,,,,,,,,,,,,,,,,,,,,,,,,,,,,,,,,,,,,,,,,,,,,,,,,,,,,,,,,,,,,,,,left,1,0.4477,,,,,,physical,3,3,3 | 3,0,0.065,0.05,neutral,left,0,22,22,66,1,,,,,,,,,,,,,,,,,,,,,,,,,,,,,,,,,,,,,,,,,,,,,
,8251,CBA,11/12/2002,002,2023-04-11_18h37.50.511,OS3_Mult_verification,2022.2.4,MacIntel,60.0024001,,,,,,,,,,,,,,,,,,,,,,,,,,,,,,,,,,,,,,,,,,,,,,,,,,,,,,,,,,,,,,,,,,,,,,,,,,,,,,,,,,,,,,,,,,,,,,,,,,,,,,,,,,,,right,1,0.4861,,,,,,physical,4,3,4 | 3,1,0.05,0.065,incongruent,right,0,23,23,29,1,,,,,,,,,,,,,,,,,,,,,,,,,,,,,,,,,,,,,,,,,,,,,
,8251,CBA,11/12/2002,002,2023-04-11_18h37.50.511,OS3_Mult_verification,2022.2.4,MacIntel,60.0024001,,,,,,,,,,,,,,,,,,,,,,,,,,,,,,,,,,,,,,,,,,,,,,,,,,,,,,,,,,,,,,,,,,,,,,,,,,,,,,,,,,,,,,,,,,,,,,,,,,,,,,,,,,,,left,1,0.3797,,,,,,physical,6,1,6 | 1,5,0.065,0.05,congruent,left,0,24,24,20,1,,,,,,,,,,,,,,,,,,,,,,,,,,,,,,,,,,,,,,,,,,,,,
,8251,CBA,11/12/2002,002,2023-04-11_18h37.50.511,OS3_Mult_verification,2022.2.4,MacIntel,60.0024001,,,,,,,,,,,,,,,,,,,,,,,,,,,,,,,,,,,,,,,,,,,,,,,,,,,,,,,,,,,,,,,,,,,,,,,,,,,,,,,,,,,,,,,,,,,,,,,,,,,,,,,,,,,,left,1,0.4334,,,,,,physical,6,7,6 | 7,1,0.065,0.05,incongruent,left,0,25,25,26,1,,,,,,,,,,,,,,,,,,,,,,,,,,,,,,,,,,,,,,,,,,,,,
,8251,CBA,11/12/2002,002,2023-04-11_18h37.50.511,OS3_Mult_verification,2022.2.4,MacIntel,60.0024001,,,,,,,,,,,,,,,,,,,,,,,,,,,,,,,,,,,,,,,,,,,,,,,,,,,,,,,,,,,,,,,,,,,,,,,,,,,,,,,,,,,,,,,,,,,,,,,,,,,,,,,,,,,,right,1,0.4314,,,,,,physical,1,6,1 | 6,5,0.05,0.065,congruent,right,0,26,26,16,1,,,,,,,,,,,,,,,,,,,,,,,,,,,,,,,,,,,,,,,,,,,,,
,8251,CBA,11/12/2002,002,2023-04-11_18h37.50.511,OS3_Mult_verification,2022.2.4,MacIntel,60.0024001,,,,,,,,,,,,,,,,,,,,,,,,,,,,,,,,,,,,,,,,,,,,,,,,,,,,,,,,,,,,,,,,,,,,,,,,,,,,,,,,,,,,,,,,,,,,,,,,,,,,,,,,,,,,right,1,0.4323,,,,,,physical,3,4,3 | 4,1,0.05,0.065,congruent,right,0,27,27,1,1,,,,,,,,,,,,,,,,,,,,,,,,,,,,,,,,,,,,,,,,,,,,,
,8251,CBA,11/12/2002,002,2023-04-11_18h37.50.511,OS3_Mult_verification,2022.2.4,MacIntel,60.0024001,,,,,,,,,,,,,,,,,,,,,,,,,,,,,,,,,,,,,,,,,,,,,,,,,,,,,,,,,,,,,,,,,,,,,,,,,,,,,,,,,,,,,,,,,,,,,,,,,,,,,,,,,,,,left,1,0.3975,,,,,,physical,8,3,8 | 3,5,0.065,0.05,congruent,left,0,28,28,22,1,,,,,,,,,,,,,,,,,,,,,,,,,,,,,,,,,,,,,,,,,,,,,
,8251,CBA,11/12/2002,002,2023-04-11_18h37.50.511,OS3_Mult_verification,2022.2.4,MacIntel,60.0024001,,,,,,,,,,,,,,,,,,,,,,,,,,,,,,,,,,,,,,,,,,,,,,,,,,,,,,,,,,,,,,,,,,,,,,,,,,,,,,,,,,,,,,,,,,,,,,,,,,,,,,,,,,,,left,1,0.4824,,,,,,physical,7,7,7 | 7,0,0.065,0.05,neutral,left,0,29,29,54,1,,,,,,,,,,,,,,,,,,,,,,,,,,,,,,,,,,,,,,,,,,,,,
,8251,CBA,11/12/2002,002,2023-04-11_18h37.50.511,OS3_Mult_verification,2022.2.4,MacIntel,60.0024001,,,,,,,,,,,,,,,,,,,,,,,,,,,,,,,,,,,,,,,,,,,,,,,,,,,,,,,,,,,,,,,,,,,,,,,,,,,,,,,,,,,,,,,,,,,,,,,,,,,,,,,,,,,,left,1,0.4986,,,,,,physical,1,1,1 | 1,0,0.065,0.05,neutral,left,0,30,30,48,1,,,,,,,,,,,,,,,,,,,,,,,,,,,,,,,,,,,,,,,,,,,,,
,8251,CBA,11/12/2002,002,2023-04-11_18h37.50.511,OS3_Mult_verification,2022.2.4,MacIntel,60.0024001,,,,,,,,,,,,,,,,,,,,,,,,,,,,,,,,,,,,,,,,,,,,,,,,,,,,,,,,,,,,,,,,,,,,,,,,,,,,,,,,,,,,,,,,,,,,,,,,,,,,,,,,,,,,right,1,0.4799,,,,,,physical,7,2,7 | 2,5,0.05,0.065,incongruent,right,0,31,31,45,1,,,,,,,,,,,,,,,,,,,,,,,,,,,,,,,,,,,,,,,,,,,,,
,8251,CBA,11/12/2002,002,2023-04-11_18h37.50.511,OS3_Mult_verification,2022.2.4,MacIntel,60.0024001,,,,,,,,,,,,,,,,,,,,,,,,,,,,,,,,,,,,,,,,,,,,,,,,,,,,,,,,,,,,,,,,,,,,,,,,,,,,,,,,,,,,,,,,,,,,,,,,,,,,,,,,,,,,left,0,0.3982,,,,,,physical,6,1,6 | 1,5,0.05,0.065,incongruent,right,0,32,32,44,1,,,,,,,,,,,,,,,,,,,,,,,,,,,,,,,,,,,,,,,,,,,,,
,8251,CBA,11/12/2002,002,2023-04-11_18h37.50.511,OS3_Mult_verification,2022.2.4,MacIntel,60.0024001,,,,,,,,,,,,,,,,,,,,,,,,,,,,,,,,,,,,,,,,,,,,,,,,,,,,,,,,,,,,,,,,,,,,,,,,,,,,,,,,,,,,,,,,,,,,,,,,,,,,,,,,,,,,left,0,0.4986,,,,,,physical,3,1,3 | 1,2,0.05,0.065,incongruent,right,0,33,33,36,1,,,,,,,,,,,,,,,,,,,,,,,,,,,,,,,,,,,,,,,,,,,,,
,8251,CBA,11/12/2002,002,2023-04-11_18h37.50.511,OS3_Mult_verification,2022.2.4,MacIntel,60.0024001,,,,,,,,,,,,,,,,,,,,,,,,,,,,,,,,,,,,,,,,,,,,,,,,,,,,,,,,,,,,,,,,,,,,,,,,,,,,,,,,,,,,,,,,,,,,,,,,,,,,,,,,,,,,right,1,0.5481,,,,,,physical,7,9,7 | 9,2,0.05,0.065,congruent,right,0,34,34,11,1,,,,,,,,,,,,,,,,,,,,,,,,,,,,,,,,,,,,,,,,,,,,,
,8251,CBA,11/12/2002,002,2023-04-11_18h37.50.511,OS3_Mult_verification,2022.2.4,MacIntel,60.0024001,,,,,,,,,,,,,,,,,,,,,,,,,,,,,,,,,,,,,,,,,,,,,,,,,,,,,,,,,,,,,,,,,,,,,,,,,,,,,,,,,,,,,,,,,,,,,,,,,,,,,,,,,,,,right,1,0.4498,,,,,,physical,9,9,9 | 9,0,0.05,0.065,neutral,right,0,35,35,63,1,,,,,,,,,,,,,,,,,,,,,,,,,,,,,,,,,,,,,,,,,,,,,
,8251,CBA,11/12/2002,002,2023-04-11_18h37.50.511,OS3_Mult_verification,2022.2.4,MacIntel,60.0024001,,,,,,,,,,,,,,,,,,,,,,,,,,,,,,,,,,,,,,,,,,,,,,,,,,,,,,,,,,,,,,,,,,,,,,,,,,,,,,,,,,,,,,,,,,,,,,,,,,,,,,,,,,,,left,1,0.4813,,,,,,physical,8,8,8 | 8,0,0.065,0.05,neutral,left,0,36,36,51,1,,,,,,,,,,,,,,,,,,,,,,,,,,,,,,,,,,,,,,,,,,,,,
,8251,CBA,11/12/2002,002,2023-04-11_18h37.50.511,OS3_Mult_verification,2022.2.4,MacIntel,60.0024001,,,,,,,,,,,,,,,,,,,,,,,,,,,,,,,,,,,,,,,,,,,,,,,,,,,,,,,,,,,,,,,,,,,,,,,,,,,,,,,,,,,,,,,,,,,,,,,,,,,,,,,,,,,,left,1,0.399,,,,,,physical,6,6,6 | 6,0,0.065,0.05,neutral,left,0,37,37,68,1,,,,,,,,,,,,,,,,,,,,,,,,,,,,,,,,,,,,,,,,,,,,,
,8251,CBA,11/12/2002,002,2023-04-11_18h37.50.511,OS3_Mult_verification,2022.2.4,MacIntel,60.0024001,,,,,,,,,,,,,,,,,,,,,,,,,,,,,,,,,,,,,,,,,,,,,,,,,,,,,,,,,,,,,,,,,,,,,,,,,,,,,,,,,,,,,,,,,,,,,,,,,,,,,,,,,,,,right,1,0.4319,,,,,,physical,2,2,2 | 2,0,0.05,0.065,neutral,right,0,38,38,65,1,,,,,,,,,,,,,,,,,,,,,,,,,,,,,,,,,,,,,,,,,,,,,
,8251,CBA,11/12/2002,002,2023-04-11_18h37.50.511,OS3_Mult_verification,2022.2.4,MacIntel,60.0024001,,,,,,,,,,,,,,,,,,,,,,,,,,,,,,,,,,,,,,,,,,,,,,,,,,,,,,,,,,,,,,,,,,,,,,,,,,,,,,,,,,,,,,,,,,,,,,,,,,,,,,,,,,,,right,1,0.4489,,,,,,physical,4,2,4 | 2,2,0.05,0.065,incongruent,right,0,39,39,37,1,,,,,,,,,,,,,,,,,,,,,,,,,,,,,,,,,,,,,,,,,,,,,
,8251,CBA,11/12/2002,002,2023-04-11_18h37.50.511,OS3_Mult_verification,2022.2.4,MacIntel,60.0024001,,,,,,,,,,,,,,,,,,,,,,,,,,,,,,,,,,,,,,,,,,,,,,,,,,,,,,,,,,,,,,,,,,,,,,,,,,,,,,,,,,,,,,,,,,,,,,,,,,,,,,,,,,,,left,1,0.4844,,,,,,physical,9,7,9 | 7,2,0.065,0.05,congruent,left,0,40,40,15,1,,,,,,,,,,,,,,,,,,,,,,,,,,,,,,,,,,,,,,,,,,,,,
,8251,CBA,11/12/2002,002,2023-04-11_18h37.50.511,OS3_Mult_verification,2022.2.4,MacIntel,60.0024001,,,,,,,,,,,,,,,,,,,,,,,,,,,,,,,,,,,,,,,,,,,,,,,,,,,,,,,,,,,,,,,,,,,,,,,,,,,,,,,,,,,,,,,,,,,,,,,,,,,,,,,,,,,,right,1,0.4476,,,,,,physical,9,7,9 | 7,2,0.05,0.065,incongruent,right,0,41,41,39,1,,,,,,,,,,,,,,,,,,,,,,,,,,,,,,,,,,,,,,,,,,,,,
,8251,CBA,11/12/2002,002,2023-04-11_18h37.50.511,OS3_Mult_verification,2022.2.4,MacIntel,60.0024001,,,,,,,,,,,,,,,,,,,,,,,,,,,,,,,,,,,,,,,,,,,,,,,,,,,,,,,,,,,,,,,,,,,,,,,,,,,,,,,,,,,,,,,,,,,,,,,,,,,,,,,,,,,,left,1,0.4435,,,,,,physical,3,3,3 | 3,0,0.065,0.05,neutral,left,0,42,42,49,1,,,,,,,,,,,,,,,,,,,,,,,,,,,,,,,,,,,,,,,,,,,,,
,8251,CBA,11/12/2002,002,2023-04-11_18h37.50.511,OS3_Mult_verification,2022.2.4,MacIntel,60.0024001,,,,,,,,,,,,,,,,,,,,,,,,,,,,,,,,,,,,,,,,,,,,,,,,,,,,,,,,,,,,,,,,,,,,,,,,,,,,,,,,,,,,,,,,,,,,,,,,,,,,,,,,,,,,left,1,0.5172,,,,,,physical,1,1,1 | 1,0,0.065,0.05,neutral,left,0,43,43,64,1,,,,,,,,,,,,,,,,,,,,,,,,,,,,,,,,,,,,,,,,,,,,,
,8251,CBA,11/12/2002,002,2023-04-11_18h37.50.511,OS3_Mult_verification,2022.2.4,MacIntel,60.0024001,,,,,,,,,,,,,,,,,,,,,,,,,,,,,,,,,,,,,,,,,,,,,,,,,,,,,,,,,,,,,,,,,,,,,,,,,,,,,,,,,,,,,,,,,,,,,,,,,,,,,,,,,,,,right,1,0.5141,,,,,,physical,2,1,2 | 1,1,0.05,0.065,incongruent,right,0,44,44,28,1,,,,,,,,,,,,,,,,,,,,,,,,,,,,,,,,,,,,,,,,,,,,,
,8251,CBA,11/12/2002,002,2023-04-11_18h37.50.511,OS3_Mult_verification,2022.2.4,MacIntel,60.0024001,,,,,,,,,,,,,,,,,,,,,,,,,,,,,,,,,,,,,,,,,,,,,,,,,,,,,,,,,,,,,,,,,,,,,,,,,,,,,,,,,,,,,,,,,,,,,,,,,,,,,,,,,,,,left,1,0.4677,,,,,,physical,4,4,4 | 4,0,0.065,0.05,neutral,left,0,45,45,53,1,,,,,,,,,,,,,,,,,,,,,,,,,,,,,,,,,,,,,,,,,,,,,
,8251,CBA,11/12/2002,002,2023-04-11_18h37.50.511,OS3_Mult_verification,2022.2.4,MacIntel,60.0024001,,,,,,,,,,,,,,,,,,,,,,,,,,,,,,,,,,,,,,,,,,,,,,,,,,,,,,,,,,,,,,,,,,,,,,,,,,,,,,,,,,,,,,,,,,,,,,,,,,,,,,,,,,,,left,1,0.4656,,,,,,physical,2,7,2 | 7,5,0.065,0.05,incongruent,left,0,46,46,41,1,,,,,,,,,,,,,,,,,,,,,,,,,,,,,,,,,,,,,,,,,,,,,
,8251,CBA,11/12/2002,002,2023-04-11_18h37.50.511,OS3_Mult_verification,2022.2.4,MacIntel,60.0024001,,,,,,,,,,,,,,,,,,,,,,,,,,,,,,,,,,,,,,,,,,,,,,,,,,,,,,,,,,,,,,,,,,,,,,,,,,,,,,,,,,,,,,,,,,,,,,,,,,,,,,,,,,,,right,1,0.4486,,,,,,physical,8,9,8 | 9,1,0.05,0.065,congruent,right,0,47,47,3,1,,,,,,,,,,,,,,,,,,,,,,,,,,,,,,,,,,,,,,,,,,,,,
,8251,CBA,11/12/2002,002,2023-04-11_18h37.50.511,OS3_Mult_verification,2022.2.4,MacIntel,60.0024001,,,,,,,,,,,,,,,,,,,,,,,,,,,,,,,,,,,,,,,,,,,,,,,,,,,,,,,,,,,,,,,,,,,,,,,,,,,,,,,,,,,,,,,,,,,,,,,,,,,,,,,,,,,,right,1,0.483,,,,,,physical,3,8,3 | 8,5,0.05,0.065,congruent,right,0,48,48,18,1,,,,,,,,,,,,,,,,,,,,,,,,,,,,,,,,,,,,,,,,,,,,,
,8251,CBA,11/12/2002,002,2023-04-11_18h37.50.511,OS3_Mult_verification,2022.2.4,MacIntel,60.0024001,,,,,,,,,,,,,,,,,,,,,,,,,,,,,,,,,,,,,,,,,,,,,,,,,,,,,,,,,,,,,,,,,,,,,,,,,,,,,,,,,,,,,,,,,,,,,,,,,,,,,,,,,,,,right,1,0.4479,,,,,,physical,4,4,4 | 4,0,0.05,0.065,neutral,right,0,49,49,61,1,,,,,,,,,,,,,,,,,,,,,,,,,,,,,,,,,,,,,,,,,,,,,
,8251,CBA,11/12/2002,002,2023-04-11_18h37.50.511,OS3_Mult_verification,2022.2.4,MacIntel,60.0024001,,,,,,,,,,,,,,,,,,,,,,,,,,,,,,,,,,,,,,,,,,,,,,,,,,,,,,,,,,,,,,,,,,,,,,,,,,,,,,,,,,,,,,,,,,,,,,,,,,,,,,,,,,,,left,1,0.4811,,,,,,physical,2,2,2 | 2,0,0.065,0.05,neutral,left,0,50,50,52,1,,,,,,,,,,,,,,,,,,,,,,,,,,,,,,,,,,,,,,,,,,,,,
,8251,CBA,11/12/2002,002,2023-04-11_18h37.50.511,OS3_Mult_verification,2022.2.4,MacIntel,60.0024001,,,,,,,,,,,,,,,,,,,,,,,,,,,,,,,,,,,,,,,,,,,,,,,,,,,,,,,,,,,,,,,,,,,,,,,,,,,,,,,,,,,,,,,,,,,,,,,,,,,,,,,,,,,,right,1,0.4475,,,,,,physical,3,3,3 | 3,0,0.05,0.065,neutral,right,0,51,51,60,1,,,,,,,,,,,,,,,,,,,,,,,,,,,,,,,,,,,,,,,,,,,,,
