windowSize,participant,group,DOB (DD/MM/YEAR),session,date,expName,psychopyVersion,OS,frameRate,typing_instr_resp.keys,typing_instr_resp.rt,typing_response,typing_rt,typing_score,typingSpeed_input_resp.keys,typingSpeed_input_resp.rt,typing_speed_trials.thisRepN,typing_speed_trials.thisTrialN,typing_speed_trials.thisN,typing_speed_trials.thisIndex,typing_speed_trials.ran,typing_speed_stim,typing_report_resp.keys,typing_report_resp.rt,vpt_trial_resp1.keys,vpt_trial_resp1.rt,typedResponse,fluency_rt,fluency_score,fluencyInputResp.keys,fluencyInputResp.rt,fluencyPracLoop.thisRepN,fluencyPracLoop.thisTrialN,fluencyPracLoop.thisN,fluencyPracLoop.thisIndex,fluencyPracLoop.ran,problem,answers,fluencyLoop.thisRepN,fluencyLoop.thisTrialN,fluencyLoop.thisN,fluencyLoop.thisIndex,fluencyLoop.ran,sampleAudio_resp.keys,sampleAudio_resp.rt,subjResponse,audio_rt,DS_score,inputResp.keys,inputResp.rt,audioPracticeLoop.thisRepN,audioPracticeLoop.thisTrialN,audioPracticeLoop.thisN,audioPracticeLoop.thisIndex,audioPracticeLoop.ran,digitSpan,digits_audioStim,soundsFile,typeDS,audioTrials_Loop.thisRepN,audioTrials_Loop.thisTrialN,audioTrials_Loop.thisN,audioTrials_Loop.thisIndex,audioTrials_Loop.ran,audioBlocks_loop.thisRepN,audioBlocks_loop.thisTrialN,audioBlocks_loop.thisN,audioBlocks_loop.thisIndex,audioBlocks_loop.ran,ConditionFile,digitSpanTask_loop.thisRepN,digitSpanTask_loop.thisTrialN,digitSpanTask_loop.thisN,digitSpanTask_loop.thisIndex,digitSpanTask_loop.ran,dsFile,TASK_C.thisRepN,TASK_C.thisTrialN,TASK_C.thisN,TASK_C.thisIndex,TASK_C.ran,controlTaskOrder.thisRepN,controlTaskOrder.thisTrialN,controlTaskOrder.thisN,controlTaskOrder.thisIndex,controlTaskOrder.ran,nRepsTask1,nRepsTask2,nRepsTask3,vptCorrect,vpt_rt,respMouse.x,respMouse.y,respMouse.leftButton,respMouse.midButton,respMouse.rightButton,vptPracticeLoop.thisRepN,vptPracticeLoop.thisTrialN,vptPracticeLoop.thisN,vptPracticeLoop.thisIndex,vptPracticeLoop.ran,trialType,tiles,rows,cols,vptTrialLoop.thisRepN,vptTrialLoop.thisTrialN,vptTrialLoop.thisN,vptTrialLoop.thisIndex,vptTrialLoop.ran,noOfBlocks,TASK_B.thisRepN,TASK_B.thisTrialN,TASK_B.thisN,TASK_B.thisIndex,TASK_B.ran,stroopResp.keys,stroopResp.corr,stroopResp.rt,stroopPracLoop.thisRepN,stroopPracLoop.thisTrialN,stroopPracLoop.thisN,stroopPracLoop.thisIndex,stroopPracLoop.ran,stroopCond,leftNo,rightNo,displayProblem,numDistance,leftNo_size,rightNo_size,Dims,keyAnswer,stroopLoop.thisRepN,stroopLoop.thisTrialN,stroopLoop.thisN,stroopLoop.thisIndex,stroopLoop.ran,stroopBlocks.thisRepN,stroopBlocks.thisTrialN,stroopBlocks.thisN,stroopBlocks.thisIndex,stroopBlocks.ran,stroop_condition,stroop_pracFile,ActionInst,instrImage,TASK_A.thisRepN,TASK_A.thisTrialN,TASK_A.thisN,TASK_A.thisIndex,TASK_A.ran,veriStim_resp.keys,veriStim_resp.corr,veriStim_resp.rt,verificationPracLoop.thisRepN,verificationPracLoop.thisTrialN,verificationPracLoop.thisN,verificationPracLoop.thisIndex,verificationPracLoop.ran,mult_problem,mult_answer,mult_type,error_distance,interferenceScore,problemType,interferenceLevel,problemSize,img_leftButton,img_rightButton,veriLoop.thisRepN,veriLoop.thisTrialN,veriLoop.thisN,veriLoop.thisIndex,veriLoop.ran,veriBlock.thisRepN,veriBlock.thisTrialN,veriBlock.thisN,veriBlock.thisIndex,veriBlock.ran,verificationFiles,end_resp.keys,end_resp.rt
"[1536,722]",134423588053,CBA,14/06/2002,001,2023-03-22_21h12.11.926,OS3_Mult_verification,2022.2.4,Win32,60.84945844,,,,,,,,,,,,,,,,,,,,,,,,,,,,,,,,,,,,,,,,,,,,,,,,,,,,,,,,,,,,,,,,,,,,,,,,,,,,,,,,,,,,,,,,,,,,,,,,,,,,,,,,,,,,,,,,,,,,,,,,,,,,,,,,,,,,,,,,,,,,,,,,,,,,,,,,,,,,,,,,,,,,,,,,,,,,,,
,134423588053,CBA,14/06/2002,001,2023-03-22_21h12.11.926,OS3_Mult_verification,2022.2.4,Win32,60.84945844,,,,,,,,,,,,,,,,,,,,,,,,,,,,,,,,,,,,,,,,,,,,,,,,,,,,,,,,,,,,,,,,,,,,,,,,,,,,,,,,,,,,,,,,,,,,,,,,,,,,,,,,,,,,,,,,,,,,,,,,,,,,,,,,,,,,,,,,,,,,,,,,,,,,,,,,,,,,,,,,,,,,,,,,,,,,,,
,134423588053,CBA,14/06/2002,001,2023-03-22_21h12.11.926,OS3_Mult_verification,2022.2.4,Win32,60.84945844,space,20.893,,,,,,,,,,,,,,,,,,,,,,,,,,,,,,,,,,,,,,,,,,,,,,,,,,,,,,,,,,,,,,,,,,,,,,,,,,,,,,,,,,,,,,,,,,,,,,,,,,,,,,,,,,,,,,,,,,,,,,,,,,,,,,,,,,,,,,,,,,,,,,,,,,,,,,,,,,,,,,,,,,,,,,,,,,,,
,134423588053,CBA,14/06/2002,001,2023-03-22_21h12.11.926,OS3_Mult_verification,2022.2.4,Win32,60.84945844,,,27,2.4636,1,"[""2"",""7"",""return""]","[1.5687999999821187,1.6549000000059522,2.4185999999940293]",0,0,0,14,1,27,,,,,,,,,,,,,,,,,,,,,,,,,,,,,,,,,,,,,,,,,,,,,,,,,,,,,,,,,,,,,,,,,,,,,,,,,,,,,,,,,,,,,,,,,,,,,,,,,,,,,,,,,,,,,,,,,,,,,,,,,,,,,,,,,,,,,,,,,,,,,,,,,,,,,,,,,,,,,,,,,
,134423588053,CBA,14/06/2002,001,2023-03-22_21h12.11.926,OS3_Mult_verification,2022.2.4,Win32,60.84945844,,,14,1.2319,1,"[""1"",""4"",""return""]","[0.7665999999940425,1.0653000000119164,1.191199999988072]",0,1,1,6,1,14,,,,,,,,,,,,,,,,,,,,,,,,,,,,,,,,,,,,,,,,,,,,,,,,,,,,,,,,,,,,,,,,,,,,,,,,,,,,,,,,,,,,,,,,,,,,,,,,,,,,,,,,,,,,,,,,,,,,,,,,,,,,,,,,,,,,,,,,,,,,,,,,,,,,,,,,,,,,,,,,,
,134423588053,CBA,14/06/2002,001,2023-03-22_21h12.11.926,OS3_Mult_verification,2022.2.4,Win32,60.84945844,,,8,1.0397,1,"[""8"",""return""]","[0.8759000000059558,1.0104000000059585]",0,2,2,2,1,8,,,,,,,,,,,,,,,,,,,,,,,,,,,,,,,,,,,,,,,,,,,,,,,,,,,,,,,,,,,,,,,,,,,,,,,,,,,,,,,,,,,,,,,,,,,,,,,,,,,,,,,,,,,,,,,,,,,,,,,,,,,,,,,,,,,,,,,,,,,,,,,,,,,,,,,,,,,,,,,,,
,134423588053,CBA,14/06/2002,001,2023-03-22_21h12.11.926,OS3_Mult_verification,2022.2.4,Win32,60.84945844,,,45,1.206,1,"[""4"",""5"",""return""]","[0.9904000000059483,1.0660999999940373,1.1659999999999968]",0,3,3,22,1,45,,,,,,,,,,,,,,,,,,,,,,,,,,,,,,,,,,,,,,,,,,,,,,,,,,,,,,,,,,,,,,,,,,,,,,,,,,,,,,,,,,,,,,,,,,,,,,,,,,,,,,,,,,,,,,,,,,,,,,,,,,,,,,,,,,,,,,,,,,,,,,,,,,,,,,,,,,,,,,,,,
,134423588053,CBA,14/06/2002,001,2023-03-22_21h12.11.926,OS3_Mult_verification,2022.2.4,Win32,60.84945844,,,64,1.388,1,"[""6"",""4"",""return""]","[0.8532999999821129,1.255299999982114,1.3381999999880776]",0,4,4,28,1,64,,,,,,,,,,,,,,,,,,,,,,,,,,,,,,,,,,,,,,,,,,,,,,,,,,,,,,,,,,,,,,,,,,,,,,,,,,,,,,,,,,,,,,,,,,,,,,,,,,,,,,,,,,,,,,,,,,,,,,,,,,,,,,,,,,,,,,,,,,,,,,,,,,,,,,,,,,,,,,,,,
,134423588053,CBA,14/06/2002,001,2023-03-22_21h12.11.926,OS3_Mult_verification,2022.2.4,Win32,60.84945844,,,20,1.056,1,"[""2"",""0"",""return""]","[0.8009999999999877,0.8994999999999891,1.0158000000119216]",0,5,5,10,1,20,,,,,,,,,,,,,,,,,,,,,,,,,,,,,,,,,,,,,,,,,,,,,,,,,,,,,,,,,,,,,,,,,,,,,,,,,,,,,,,,,,,,,,,,,,,,,,,,,,,,,,,,,,,,,,,,,,,,,,,,,,,,,,,,,,,,,,,,,,,,,,,,,,,,,,,,,,,,,,,,,
,134423588053,CBA,14/06/2002,001,2023-03-22_21h12.11.926,OS3_Mult_verification,2022.2.4,Win32,60.84945844,,,15,1.0315,1,"[""1"",""5"",""return""]","[0.605800000011925,0.9149000000059573,0.9981999999880742]",0,6,6,7,1,15,,,,,,,,,,,,,,,,,,,,,,,,,,,,,,,,,,,,,,,,,,,,,,,,,,,,,,,,,,,,,,,,,,,,,,,,,,,,,,,,,,,,,,,,,,,,,,,,,,,,,,,,,,,,,,,,,,,,,,,,,,,,,,,,,,,,,,,,,,,,,,,,,,,,,,,,,,,,,,,,,
,134423588053,CBA,14/06/2002,001,2023-03-22_21h12.11.926,OS3_Mult_verification,2022.2.4,Win32,60.84945844,,,36,1.3491,1,"[""3"",""6"",""return""]","[0.9260999999940367,1.149000000000001,1.3160000000000025]",0,7,7,19,1,36,,,,,,,,,,,,,,,,,,,,,,,,,,,,,,,,,,,,,,,,,,,,,,,,,,,,,,,,,,,,,,,,,,,,,,,,,,,,,,,,,,,,,,,,,,,,,,,,,,,,,,,,,,,,,,,,,,,,,,,,,,,,,,,,,,,,,,,,,,,,,,,,,,,,,,,,,,,,,,,,,
,134423588053,CBA,14/06/2002,001,2023-03-22_21h12.11.926,OS3_Mult_verification,2022.2.4,Win32,60.84945844,,,35,1.0557,1,"[""3"",""5"",""return""]","[0.7434999999999974,0.9502999999821213,1.0177999999821168]",0,8,8,18,1,35,,,,,,,,,,,,,,,,,,,,,,,,,,,,,,,,,,,,,,,,,,,,,,,,,,,,,,,,,,,,,,,,,,,,,,,,,,,,,,,,,,,,,,,,,,,,,,,,,,,,,,,,,,,,,,,,,,,,,,,,,,,,,,,,,,,,,,,,,,,,,,,,,,,,,,,,,,,,,,,,,
,134423588053,CBA,14/06/2002,001,2023-03-22_21h12.11.926,OS3_Mult_verification,2022.2.4,Win32,60.84945844,,,21,1.0056,1,"[""2"",""1"",""return""]","[0.7671999999880796,0.8670999999940392,0.9666999999880801]",0,9,9,11,1,21,,,,,,,,,,,,,,,,,,,,,,,,,,,,,,,,,,,,,,,,,,,,,,,,,,,,,,,,,,,,,,,,,,,,,,,,,,,,,,,,,,,,,,,,,,,,,,,,,,,,,,,,,,,,,,,,,,,,,,,,,,,,,,,,,,,,,,,,,,,,,,,,,,,,,,,,,,,,,,,,,
,134423588053,CBA,14/06/2002,001,2023-03-22_21h12.11.926,OS3_Mult_verification,2022.2.4,Win32,60.84945844,,,56,1.5655,1,"[""5"",""6"",""return""]","[0.9667999999821149,1.1331999999880793,1.521599999994038]",0,10,10,26,1,56,,,,,,,,,,,,,,,,,,,,,,,,,,,,,,,,,,,,,,,,,,,,,,,,,,,,,,,,,,,,,,,,,,,,,,,,,,,,,,,,,,,,,,,,,,,,,,,,,,,,,,,,,,,,,,,,,,,,,,,,,,,,,,,,,,,,,,,,,,,,,,,,,,,,,,,,,,,,,,,,,
,134423588053,CBA,14/06/2002,001,2023-03-22_21h12.11.926,OS3_Mult_verification,2022.2.4,Win32,60.84945844,,,24,1.0314,1,"[""2"",""4"",""return""]","[0.7990999999940414,0.9162999999821153,1.0003999999761533]",0,11,11,12,1,24,,,,,,,,,,,,,,,,,,,,,,,,,,,,,,,,,,,,,,,,,,,,,,,,,,,,,,,,,,,,,,,,,,,,,,,,,,,,,,,,,,,,,,,,,,,,,,,,,,,,,,,,,,,,,,,,,,,,,,,,,,,,,,,,,,,,,,,,,,,,,,,,,,,,,,,,,,,,,,,,,
,134423588053,CBA,14/06/2002,001,2023-03-22_21h12.11.926,OS3_Mult_verification,2022.2.4,Win32,60.84945844,,,81,1.3225,1,"[""8"",""1"",""return""]","[0.9325000000000045,1.0820999999940426,1.2658999999761562]",0,12,12,30,1,81,,,,,,,,,,,,,,,,,,,,,,,,,,,,,,,,,,,,,,,,,,,,,,,,,,,,,,,,,,,,,,,,,,,,,,,,,,,,,,,,,,,,,,,,,,,,,,,,,,,,,,,,,,,,,,,,,,,,,,,,,,,,,,,,,,,,,,,,,,,,,,,,,,,,,,,,,,,,,,,,,
,134423588053,CBA,14/06/2002,001,2023-03-22_21h12.11.926,OS3_Mult_verification,2022.2.4,Win32,60.84945844,,,28,1.5825,1,"[""2"",""8"",""return""]","[0.6772000000178764,1.3353000000119124,1.5352000000178805]",0,13,13,15,1,28,,,,,,,,,,,,,,,,,,,,,,,,,,,,,,,,,,,,,,,,,,,,,,,,,,,,,,,,,,,,,,,,,,,,,,,,,,,,,,,,,,,,,,,,,,,,,,,,,,,,,,,,,,,,,,,,,,,,,,,,,,,,,,,,,,,,,,,,,,,,,,,,,,,,,,,,,,,,,,,,,
,134423588053,CBA,14/06/2002,001,2023-03-22_21h12.11.926,OS3_Mult_verification,2022.2.4,Win32,60.84945844,,,16,1.0883,1,"[""1"",""6"",""return""]","[0.6004000000059619,0.9218000000119133,1.0499999999999972]",0,14,14,8,1,16,,,,,,,,,,,,,,,,,,,,,,,,,,,,,,,,,,,,,,,,,,,,,,,,,,,,,,,,,,,,,,,,,,,,,,,,,,,,,,,,,,,,,,,,,,,,,,,,,,,,,,,,,,,,,,,,,,,,,,,,,,,,,,,,,,,,,,,,,,,,,,,,,,,,,,,,,,,,,,,,,
,134423588053,CBA,14/06/2002,001,2023-03-22_21h12.11.926,OS3_Mult_verification,2022.2.4,Win32,60.84945844,,,40,1.4254,1,"[""4"",""0"",""return""]","[1.0662000000178864,1.216900000005964,1.388900000005961]",0,15,15,20,1,40,,,,,,,,,,,,,,,,,,,,,,,,,,,,,,,,,,,,,,,,,,,,,,,,,,,,,,,,,,,,,,,,,,,,,,,,,,,,,,,,,,,,,,,,,,,,,,,,,,,,,,,,,,,,,,,,,,,,,,,,,,,,,,,,,,,,,,,,,,,,,,,,,,,,,,,,,,,,,,,,,
,134423588053,CBA,14/06/2002,001,2023-03-22_21h12.11.926,OS3_Mult_verification,2022.2.4,Win32,60.84945844,,,32,0.9887,1,"[""3"",""2"",""return""]","[0.7333999999761573,0.8165000000000049,0.9490999999940328]",0,16,16,17,1,32,,,,,,,,,,,,,,,,,,,,,,,,,,,,,,,,,,,,,,,,,,,,,,,,,,,,,,,,,,,,,,,,,,,,,,,,,,,,,,,,,,,,,,,,,,,,,,,,,,,,,,,,,,,,,,,,,,,,,,,,,,,,,,,,,,,,,,,,,,,,,,,,,,,,,,,,,,,,,,,,,
,134423588053,CBA,14/06/2002,001,2023-03-22_21h12.11.926,OS3_Mult_verification,2022.2.4,Win32,60.84945844,,,63,1.5719,1,"[""6"",""3"",""return""]","[1.0008999999761556,1.383399999976163,1.533099999994036]",0,17,17,27,1,63,,,,,,,,,,,,,,,,,,,,,,,,,,,,,,,,,,,,,,,,,,,,,,,,,,,,,,,,,,,,,,,,,,,,,,,,,,,,,,,,,,,,,,,,,,,,,,,,,,,,,,,,,,,,,,,,,,,,,,,,,,,,,,,,,,,,,,,,,,,,,,,,,,,,,,,,,,,,,,,,,
,134423588053,CBA,14/06/2002,001,2023-03-22_21h12.11.926,OS3_Mult_verification,2022.2.4,Win32,60.84945844,,,12,0.9494,1,"[""1"",""2"",""return""]","[0.583400000005966,0.7501999999880837,0.902900000005971]",0,18,18,5,1,12,,,,,,,,,,,,,,,,,,,,,,,,,,,,,,,,,,,,,,,,,,,,,,,,,,,,,,,,,,,,,,,,,,,,,,,,,,,,,,,,,,,,,,,,,,,,,,,,,,,,,,,,,,,,,,,,,,,,,,,,,,,,,,,,,,,,,,,,,,,,,,,,,,,,,,,,,,,,,,,,,
,134423588053,CBA,14/06/2002,001,2023-03-22_21h12.11.926,OS3_Mult_verification,2022.2.4,Win32,60.84945844,,,10,0.9816,1,"[""1"",""0"",""return""]","[0.5005999999940514,0.8002999999821299,0.9395000000000095]",0,19,19,4,1,10,,,,,,,,,,,,,,,,,,,,,,,,,,,,,,,,,,,,,,,,,,,,,,,,,,,,,,,,,,,,,,,,,,,,,,,,,,,,,,,,,,,,,,,,,,,,,,,,,,,,,,,,,,,,,,,,,,,,,,,,,,,,,,,,,,,,,,,,,,,,,,,,,,,,,,,,,,,,,,,,,
,134423588053,CBA,14/06/2002,001,2023-03-22_21h12.11.926,OS3_Mult_verification,2022.2.4,Win32,60.84945844,,,42,1.2818,1,"[""4"",""2"",""return""]","[0.9497000000178843,1.133600000023847,1.2496000000238467]",0,20,20,21,1,42,,,,,,,,,,,,,,,,,,,,,,,,,,,,,,,,,,,,,,,,,,,,,,,,,,,,,,,,,,,,,,,,,,,,,,,,,,,,,,,,,,,,,,,,,,,,,,,,,,,,,,,,,,,,,,,,,,,,,,,,,,,,,,,,,,,,,,,,,,,,,,,,,,,,,,,,,,,,,,,,,
,134423588053,CBA,14/06/2002,001,2023-03-22_21h12.11.926,OS3_Mult_verification,2022.2.4,Win32,60.84945844,,,54,1.1329,1,"[""5"",""4"",""return""]","[0.8425999999940501,0.9510000000000076,1.1025000000000063]",0,21,21,25,1,54,,,,,,,,,,,,,,,,,,,,,,,,,,,,,,,,,,,,,,,,,,,,,,,,,,,,,,,,,,,,,,,,,,,,,,,,,,,,,,,,,,,,,,,,,,,,,,,,,,,,,,,,,,,,,,,,,,,,,,,,,,,,,,,,,,,,,,,,,,,,,,,,,,,,,,,,,,,,,,,,,
,134423588053,CBA,14/06/2002,001,2023-03-22_21h12.11.926,OS3_Mult_verification,2022.2.4,Win32,60.84945844,,,9,0.9986,1,"[""9"",""return""]","[0.8010999999940367,0.9668000000119292]",0,22,22,3,1,9,,,,,,,,,,,,,,,,,,,,,,,,,,,,,,,,,,,,,,,,,,,,,,,,,,,,,,,,,,,,,,,,,,,,,,,,,,,,,,,,,,,,,,,,,,,,,,,,,,,,,,,,,,,,,,,,,,,,,,,,,,,,,,,,,,,,,,,,,,,,,,,,,,,,,,,,,,,,,,,,,
,134423588053,CBA,14/06/2002,001,2023-03-22_21h12.11.926,OS3_Mult_verification,2022.2.4,Win32,60.84945844,,,4,1.1224,1,"[""4"",""return""]","[0.9333000000119398,1.0832000000178823]",0,23,23,0,1,4,,,,,,,,,,,,,,,,,,,,,,,,,,,,,,,,,,,,,,,,,,,,,,,,,,,,,,,,,,,,,,,,,,,,,,,,,,,,,,,,,,,,,,,,,,,,,,,,,,,,,,,,,,,,,,,,,,,,,,,,,,,,,,,,,,,,,,,,,,,,,,,,,,,,,,,,,,,,,,,,,
,134423588053,CBA,14/06/2002,001,2023-03-22_21h12.11.926,OS3_Mult_verification,2022.2.4,Win32,60.84945844,,,6,1.0716,1,"[""6"",""return""]","[0.9030999999940263,1.033199999988085]",0,24,24,1,1,6,,,,,,,,,,,,,,,,,,,,,,,,,,,,,,,,,,,,,,,,,,,,,,,,,,,,,,,,,,,,,,,,,,,,,,,,,,,,,,,,,,,,,,,,,,,,,,,,,,,,,,,,,,,,,,,,,,,,,,,,,,,,,,,,,,,,,,,,,,,,,,,,,,,,,,,,,,,,,,,,,
,134423588053,CBA,14/06/2002,001,2023-03-22_21h12.11.926,OS3_Mult_verification,2022.2.4,Win32,60.84945844,,,30,1.2724,1,"[""3"",""0"",""return""]","[1.032999999999987,1.1162999999821182,1.2325999999940507]",0,25,25,16,1,30,,,,,,,,,,,,,,,,,,,,,,,,,,,,,,,,,,,,,,,,,,,,,,,,,,,,,,,,,,,,,,,,,,,,,,,,,,,,,,,,,,,,,,,,,,,,,,,,,,,,,,,,,,,,,,,,,,,,,,,,,,,,,,,,,,,,,,,,,,,,,,,,,,,,,,,,,,,,,,,,,
,134423588053,CBA,14/06/2002,001,2023-03-22_21h12.11.926,OS3_Mult_verification,2022.2.4,Win32,60.84945844,,,72,1.3714,1,"[""7"",""2"",""return""]","[0.9232000000178715,1.2162000000178779,1.3330999999940474]",0,26,26,29,1,72,,,,,,,,,,,,,,,,,,,,,,,,,,,,,,,,,,,,,,,,,,,,,,,,,,,,,,,,,,,,,,,,,,,,,,,,,,,,,,,,,,,,,,,,,,,,,,,,,,,,,,,,,,,,,,,,,,,,,,,,,,,,,,,,,,,,,,,,,,,,,,,,,,,,,,,,,,,,,,,,,
,134423588053,CBA,14/06/2002,001,2023-03-22_21h12.11.926,OS3_Mult_verification,2022.2.4,Win32,60.84945844,,,48,1.4485,1,"[""4"",""8"",""return""]","[0.8497000000178616,1.2997000000178787,1.399000000000001]",0,27,27,23,1,48,,,,,,,,,,,,,,,,,,,,,,,,,,,,,,,,,,,,,,,,,,,,,,,,,,,,,,,,,,,,,,,,,,,,,,,,,,,,,,,,,,,,,,,,,,,,,,,,,,,,,,,,,,,,,,,,,,,,,,,,,,,,,,,,,,,,,,,,,,,,,,,,,,,,,,,,,,,,,,,,,
,134423588053,CBA,14/06/2002,001,2023-03-22_21h12.11.926,OS3_Mult_verification,2022.2.4,Win32,60.84945844,,,49,1.7315,1,"[""4"",""9"",""return""]","[1.3249000000059539,1.449800000011919,1.6828000000118948]",0,28,28,24,1,49,,,,,,,,,,,,,,,,,,,,,,,,,,,,,,,,,,,,,,,,,,,,,,,,,,,,,,,,,,,,,,,,,,,,,,,,,,,,,,,,,,,,,,,,,,,,,,,,,,,,,,,,,,,,,,,,,,,,,,,,,,,,,,,,,,,,,,,,,,,,,,,,,,,,,,,,,,,,,,,,,
,134423588053,CBA,14/06/2002,001,2023-03-22_21h12.11.926,OS3_Mult_verification,2022.2.4,Win32,60.84945844,,,25,1.1174,1,"[""2"",""5"",""return""]","[0.6684000000059598,0.9834999999999923,1.0840000000000032]",0,29,29,13,1,25,,,,,,,,,,,,,,,,,,,,,,,,,,,,,,,,,,,,,,,,,,,,,,,,,,,,,,,,,,,,,,,,,,,,,,,,,,,,,,,,,,,,,,,,,,,,,,,,,,,,,,,,,,,,,,,,,,,,,,,,,,,,,,,,,,,,,,,,,,,,,,,,,,,,,,,,,,,,,,,,,
,134423588053,CBA,14/06/2002,001,2023-03-22_21h12.11.926,OS3_Mult_verification,2022.2.4,Win32,60.84945844,,,18,1.2478,1,"[""1"",""8"",""return""]","[0.6004000000059477,1.0414000000059502,1.2162000000178637]",0,30,30,9,1,18,,,,,,,,,,,,,,,,,,,,,,,,,,,,,,,,,,,,,,,,,,,,,,,,,,,,,,,,,,,,,,,,,,,,,,,,,,,,,,,,,,,,,,,,,,,,,,,,,,,,,,,,,,,,,,,,,,,,,,,,,,,,,,,,,,,,,,,,,,,,,,,,,,,,,,,,,,,,,,,,,
,134423588053,CBA,14/06/2002,001,2023-03-22_21h12.11.926,OS3_Mult_verification,2022.2.4,Win32,60.84945844,,,16,1.1324,1,"[""1"",""6"",""return""]","[0.6004000000059477,0.9970999999940489,1.0907999999821243]",1,0,31,8,1,16,,,,,,,,,,,,,,,,,,,,,,,,,,,,,,,,,,,,,,,,,,,,,,,,,,,,,,,,,,,,,,,,,,,,,,,,,,,,,,,,,,,,,,,,,,,,,,,,,,,,,,,,,,,,,,,,,,,,,,,,,,,,,,,,,,,,,,,,,,,,,,,,,,,,,,,,,,,,,,,,,
,134423588053,CBA,14/06/2002,001,2023-03-22_21h12.11.926,OS3_Mult_verification,2022.2.4,Win32,60.84945844,,,49,1.6162,1,"[""4"",""9"",""return""]","[1.0839000000059684,1.466099999994043,1.5832999999821311]",1,1,32,24,1,49,,,,,,,,,,,,,,,,,,,,,,,,,,,,,,,,,,,,,,,,,,,,,,,,,,,,,,,,,,,,,,,,,,,,,,,,,,,,,,,,,,,,,,,,,,,,,,,,,,,,,,,,,,,,,,,,,,,,,,,,,,,,,,,,,,,,,,,,,,,,,,,,,,,,,,,,,,,,,,,,,
,134423588053,CBA,14/06/2002,001,2023-03-22_21h12.11.926,OS3_Mult_verification,2022.2.4,Win32,60.84945844,,,30,1.2049,1,"[""3"",""0"",""return""]","[0.9334999999999809,1.0671999999880768,1.166699999988083]",1,2,33,16,1,30,,,,,,,,,,,,,,,,,,,,,,,,,,,,,,,,,,,,,,,,,,,,,,,,,,,,,,,,,,,,,,,,,,,,,,,,,,,,,,,,,,,,,,,,,,,,,,,,,,,,,,,,,,,,,,,,,,,,,,,,,,,,,,,,,,,,,,,,,,,,,,,,,,,,,,,,,,,,,,,,,
,134423588053,CBA,14/06/2002,001,2023-03-22_21h12.11.926,OS3_Mult_verification,2022.2.4,Win32,60.84945844,,,4,0.8328,1,"[""4"",""return""]","[0.6997999999821332,0.8007999999821322]",1,3,34,0,1,4,,,,,,,,,,,,,,,,,,,,,,,,,,,,,,,,,,,,,,,,,,,,,,,,,,,,,,,,,,,,,,,,,,,,,,,,,,,,,,,,,,,,,,,,,,,,,,,,,,,,,,,,,,,,,,,,,,,,,,,,,,,,,,,,,,,,,,,,,,,,,,,,,,,,,,,,,,,,,,,,,
,134423588053,CBA,14/06/2002,001,2023-03-22_21h12.11.926,OS3_Mult_verification,2022.2.4,Win32,60.84945844,,,45,0.9554,1,"[""4"",""5"",""return""]","[0.755500000000012,0.8670000000000186,0.9163000000119155]",1,4,35,22,1,45,,,,,,,,,,,,,,,,,,,,,,,,,,,,,,,,,,,,,,,,,,,,,,,,,,,,,,,,,,,,,,,,,,,,,,,,,,,,,,,,,,,,,,,,,,,,,,,,,,,,,,,,,,,,,,,,,,,,,,,,,,,,,,,,,,,,,,,,,,,,,,,,,,,,,,,,,,,,,,,,,
,134423588053,CBA,14/06/2002,001,2023-03-22_21h12.11.926,OS3_Mult_verification,2022.2.4,Win32,60.84945844,,,15,0.9491,1,"[""1"",""5"",""return""]","[0.5566000000238205,0.8664000000059389,0.9192000000178666]",1,5,36,7,1,15,,,,,,,,,,,,,,,,,,,,,,,,,,,,,,,,,,,,,,,,,,,,,,,,,,,,,,,,,,,,,,,,,,,,,,,,,,,,,,,,,,,,,,,,,,,,,,,,,,,,,,,,,,,,,,,,,,,,,,,,,,,,,,,,,,,,,,,,,,,,,,,,,,,,,,,,,,,,,,,,,
,134423588053,CBA,14/06/2002,001,2023-03-22_21h12.11.926,OS3_Mult_verification,2022.2.4,Win32,60.84945844,,,56,1.4543,1,"[""5"",""6"",""return""]","[1.07559999999404,1.289300000011906,1.3993000000119196]",1,6,37,26,1,56,,,,,,,,,,,,,,,,,,,,,,,,,,,,,,,,,,,,,,,,,,,,,,,,,,,,,,,,,,,,,,,,,,,,,,,,,,,,,,,,,,,,,,,,,,,,,,,,,,,,,,,,,,,,,,,,,,,,,,,,,,,,,,,,,,,,,,,,,,,,,,,,,,,,,,,,,,,,,,,,,
,134423588053,CBA,14/06/2002,001,2023-03-22_21h12.11.926,OS3_Mult_verification,2022.2.4,Win32,60.84945844,,,42,1.0877,1,"[""4"",""2"",""return""]","[0.7383000000119182,0.8499999999999943,1.0498000000119134]",1,7,38,21,1,42,,,,,,,,,,,,,,,,,,,,,,,,,,,,,,,,,,,,,,,,,,,,,,,,,,,,,,,,,,,,,,,,,,,,,,,,,,,,,,,,,,,,,,,,,,,,,,,,,,,,,,,,,,,,,,,,,,,,,,,,,,,,,,,,,,,,,,,,,,,,,,,,,,,,,,,,,,,,,,,,,
,134423588053,CBA,14/06/2002,001,2023-03-22_21h12.11.926,OS3_Mult_verification,2022.2.4,Win32,60.84945844,,,81,1.438,1,"[""8"",""1"",""return""]","[1.0172000000178798,1.1833000000119398,1.3994000000059827]",1,8,39,30,1,81,,,,,,,,,,,,,,,,,,,,,,,,,,,,,,,,,,,,,,,,,,,,,,,,,,,,,,,,,,,,,,,,,,,,,,,,,,,,,,,,,,,,,,,,,,,,,,,,,,,,,,,,,,,,,,,,,,,,,,,,,,,,,,,,,,,,,,,,,,,,,,,,,,,,,,,,,,,,,,,,,
,134423588053,CBA,14/06/2002,001,2023-03-22_21h12.11.926,OS3_Mult_verification,2022.2.4,Win32,60.84945844,,,20,0.9833,1,"[""2"",""0"",""return""]","[0.6728999999761527,0.7849999999999966,0.9505000000000052]",1,9,40,10,1,20,,,,,,,,,,,,,,,,,,,,,,,,,,,,,,,,,,,,,,,,,,,,,,,,,,,,,,,,,,,,,,,,,,,,,,,,,,,,,,,,,,,,,,,,,,,,,,,,,,,,,,,,,,,,,,,,,,,,,,,,,,,,,,,,,,,,,,,,,,,,,,,,,,,,,,,,,,,,,,,,,
,134423588053,CBA,14/06/2002,001,2023-03-22_21h12.11.926,OS3_Mult_verification,2022.2.4,Win32,60.84945844,,,18,1.1559,1,"[""1"",""8"",""return""]","[0.5667000000178746,0.983200000017888,1.1160000000000139]",1,10,41,9,1,18,,,,,,,,,,,,,,,,,,,,,,,,,,,,,,,,,,,,,,,,,,,,,,,,,,,,,,,,,,,,,,,,,,,,,,,,,,,,,,,,,,,,,,,,,,,,,,,,,,,,,,,,,,,,,,,,,,,,,,,,,,,,,,,,,,,,,,,,,,,,,,,,,,,,,,,,,,,,,,,,,
,134423588053,CBA,14/06/2002,001,2023-03-22_21h12.11.926,OS3_Mult_verification,2022.2.4,Win32,60.84945844,,,6,1.0562,1,"[""6"",""return""]","[0.9171999999880711,1.016999999999996]",1,11,42,1,1,6,,,,,,,,,,,,,,,,,,,,,,,,,,,,,,,,,,,,,,,,,,,,,,,,,,,,,,,,,,,,,,,,,,,,,,,,,,,,,,,,,,,,,,,,,,,,,,,,,,,,,,,,,,,,,,,,,,,,,,,,,,,,,,,,,,,,,,,,,,,,,,,,,,,,,,,,,,,,,,,,,
,134423588053,CBA,14/06/2002,001,2023-03-22_21h12.11.926,OS3_Mult_verification,2022.2.4,Win32,60.84945844,,,12,0.8889,1,"[""1"",""2"",""return""]","[0.5668999999761581,0.7665000000000077,0.8430999999940525]",1,12,43,5,1,12,,,,,,,,,,,,,,,,,,,,,,,,,,,,,,,,,,,,,,,,,,,,,,,,,,,,,,,,,,,,,,,,,,,,,,,,,,,,,,,,,,,,,,,,,,,,,,,,,,,,,,,,,,,,,,,,,,,,,,,,,,,,,,,,,,,,,,,,,,,,,,,,,,,,,,,,,,,,,,,,,
,134423588053,CBA,14/06/2002,001,2023-03-22_21h12.11.926,OS3_Mult_verification,2022.2.4,Win32,60.84945844,,,8,0.9825,1,"[""8"",""return""]","[0.8341999999880727,0.9405999999940491]",1,13,44,2,1,8,,,,,,,,,,,,,,,,,,,,,,,,,,,,,,,,,,,,,,,,,,,,,,,,,,,,,,,,,,,,,,,,,,,,,,,,,,,,,,,,,,,,,,,,,,,,,,,,,,,,,,,,,,,,,,,,,,,,,,,,,,,,,,,,,,,,,,,,,,,,,,,,,,,,,,,,,,,,,,,,,
,134423588053,CBA,14/06/2002,001,2023-03-22_21h12.11.926,OS3_Mult_verification,2022.2.4,Win32,60.84945844,,,21,1.0663,1,"[""2"",""1"",""return""]","[0.6592999999821245,0.7660999999940543,1.018400000005954]",1,14,45,11,1,21,,,,,,,,,,,,,,,,,,,,,,,,,,,,,,,,,,,,,,,,,,,,,,,,,,,,,,,,,,,,,,,,,,,,,,,,,,,,,,,,,,,,,,,,,,,,,,,,,,,,,,,,,,,,,,,,,,,,,,,,,,,,,,,,,,,,,,,,,,,,,,,,,,,,,,,,,,,,,,,,,
,134423588053,CBA,14/06/2002,001,2023-03-22_21h12.11.926,OS3_Mult_verification,2022.2.4,Win32,60.84945844,,,14,1.0936,1,"[""1"",""4"",""return""]","[0.4841999999880784,0.88900000000001,1.054000000000002]",1,15,46,6,1,14,,,,,,,,,,,,,,,,,,,,,,,,,,,,,,,,,,,,,,,,,,,,,,,,,,,,,,,,,,,,,,,,,,,,,,,,,,,,,,,,,,,,,,,,,,,,,,,,,,,,,,,,,,,,,,,,,,,,,,,,,,,,,,,,,,,,,,,,,,,,,,,,,,,,,,,,,,,,,,,,,
,134423588053,CBA,14/06/2002,001,2023-03-22_21h12.11.926,OS3_Mult_verification,2022.2.4,Win32,60.84945844,,,24,1.1234,1,"[""2"",""4"",""return""]","[0.6831999999880907,0.9337999999821136,1.0831999999880964]",1,16,47,12,1,24,,,,,,,,,,,,,,,,,,,,,,,,,,,,,,,,,,,,,,,,,,,,,,,,,,,,,,,,,,,,,,,,,,,,,,,,,,,,,,,,,,,,,,,,,,,,,,,,,,,,,,,,,,,,,,,,,,,,,,,,,,,,,,,,,,,,,,,,,,,,,,,,,,,,,,,,,,,,,,,,,
,134423588053,CBA,14/06/2002,001,2023-03-22_21h12.11.926,OS3_Mult_verification,2022.2.4,Win32,60.84945844,,,435,1.9222,0,"[""4"",""3"",""5"",""return""]","[0.9327000000178884,1.5334000000059689,1.7674000000059777,1.882200000017889]",1,17,48,18,1,35,,,,,,,,,,,,,,,,,,,,,,,,,,,,,,,,,,,,,,,,,,,,,,,,,,,,,,,,,,,,,,,,,,,,,,,,,,,,,,,,,,,,,,,,,,,,,,,,,,,,,,,,,,,,,,,,,,,,,,,,,,,,,,,,,,,,,,,,,,,,,,,,,,,,,,,,,,,,,,,,,
,134423588053,CBA,14/06/2002,001,2023-03-22_21h12.11.926,OS3_Mult_verification,2022.2.4,Win32,60.84945844,,,32,1.2221,1,"[""3"",""2"",""return""]","[0.9224000000059505,1.016099999994026,1.1836999999880788]",1,18,49,17,1,32,,,,,,,,,,,,,,,,,,,,,,,,,,,,,,,,,,,,,,,,,,,,,,,,,,,,,,,,,,,,,,,,,,,,,,,,,,,,,,,,,,,,,,,,,,,,,,,,,,,,,,,,,,,,,,,,,,,,,,,,,,,,,,,,,,,,,,,,,,,,,,,,,,,,,,,,,,,,,,,,,
,134423588053,CBA,14/06/2002,001,2023-03-22_21h12.11.926,OS3_Mult_verification,2022.2.4,Win32,60.84945844,,,54,1.3165,1,"[""5"",""4"",""return""]","[0.9333999999761602,1.1500999999940404,1.2824999999999989]",1,19,50,25,1,54,,,,,,,,,,,,,,,,,,,,,,,,,,,,,,,,,,,,,,,,,,,,,,,,,,,,,,,,,,,,,,,,,,,,,,,,,,,,,,,,,,,,,,,,,,,,,,,,,,,,,,,,,,,,,,,,,,,,,,,,,,,,,,,,,,,,,,,,,,,,,,,,,,,,,,,,,,,,,,,,,
,134423588053,CBA,14/06/2002,001,2023-03-22_21h12.11.926,OS3_Mult_verification,2022.2.4,Win32,60.84945844,,,40,1.289,1,"[""4"",""0"",""return""]","[0.9158999999761761,1.0496999999880927,1.2467999999821302]",1,20,51,20,1,40,,,,,,,,,,,,,,,,,,,,,,,,,,,,,,,,,,,,,,,,,,,,,,,,,,,,,,,,,,,,,,,,,,,,,,,,,,,,,,,,,,,,,,,,,,,,,,,,,,,,,,,,,,,,,,,,,,,,,,,,,,,,,,,,,,,,,,,,,,,,,,,,,,,,,,,,,,,,,,,,,
,134423588053,CBA,14/06/2002,001,2023-03-22_21h12.11.926,OS3_Mult_verification,2022.2.4,Win32,60.84945844,,,63,2.9039,1,"[""6"",""3"",""return""]","[1.2660999999940543,1.582599999994045,2.865200000017893]",1,21,52,27,1,63,,,,,,,,,,,,,,,,,,,,,,,,,,,,,,,,,,,,,,,,,,,,,,,,,,,,,,,,,,,,,,,,,,,,,,,,,,,,,,,,,,,,,,,,,,,,,,,,,,,,,,,,,,,,,,,,,,,,,,,,,,,,,,,,,,,,,,,,,,,,,,,,,,,,,,,,,,,,,,,,,
,134423588053,CBA,14/06/2002,001,2023-03-22_21h12.11.926,OS3_Mult_verification,2022.2.4,Win32,60.84945844,,,48,1.6381,1,"[""4"",""8"",""return""]","[0.9077000000178828,1.407400000005964,1.5825000000000102]",1,22,53,23,1,48,,,,,,,,,,,,,,,,,,,,,,,,,,,,,,,,,,,,,,,,,,,,,,,,,,,,,,,,,,,,,,,,,,,,,,,,,,,,,,,,,,,,,,,,,,,,,,,,,,,,,,,,,,,,,,,,,,,,,,,,,,,,,,,,,,,,,,,,,,,,,,,,,,,,,,,,,,,,,,,,,
,134423588053,CBA,14/06/2002,001,2023-03-22_21h12.11.926,OS3_Mult_verification,2022.2.4,Win32,60.84945844,,,9,1.1385,1,"[""9"",""return""]","[0.9534000000059564,1.1004999999999825]",1,23,54,3,1,9,,,,,,,,,,,,,,,,,,,,,,,,,,,,,,,,,,,,,,,,,,,,,,,,,,,,,,,,,,,,,,,,,,,,,,,,,,,,,,,,,,,,,,,,,,,,,,,,,,,,,,,,,,,,,,,,,,,,,,,,,,,,,,,,,,,,,,,,,,,,,,,,,,,,,,,,,,,,,,,,,
,134423588053,CBA,14/06/2002,001,2023-03-22_21h12.11.926,OS3_Mult_verification,2022.2.4,Win32,60.84945844,,,28,1.3741,1,"[""2"",""8"",""return""]","[0.6670999999940364,1.2154999999999916,1.332599999994045]",1,24,55,15,1,28,,,,,,,,,,,,,,,,,,,,,,,,,,,,,,,,,,,,,,,,,,,,,,,,,,,,,,,,,,,,,,,,,,,,,,,,,,,,,,,,,,,,,,,,,,,,,,,,,,,,,,,,,,,,,,,,,,,,,,,,,,,,,,,,,,,,,,,,,,,,,,,,,,,,,,,,,,,,,,,,,
,134423588053,CBA,14/06/2002,001,2023-03-22_21h12.11.926,OS3_Mult_verification,2022.2.4,Win32,60.84945844,,,25,1.1143,1,"[""2"",""5"",""return""]","[0.6842000000178814,0.9499999999999886,1.0829000000059636]",1,25,56,13,1,25,,,,,,,,,,,,,,,,,,,,,,,,,,,,,,,,,,,,,,,,,,,,,,,,,,,,,,,,,,,,,,,,,,,,,,,,,,,,,,,,,,,,,,,,,,,,,,,,,,,,,,,,,,,,,,,,,,,,,,,,,,,,,,,,,,,,,,,,,,,,,,,,,,,,,,,,,,,,,,,,,
,134423588053,CBA,14/06/2002,001,2023-03-22_21h12.11.926,OS3_Mult_verification,2022.2.4,Win32,60.84945844,,,10,1.1714,1,"[""1"",""0"",""return""]","[0.6139000000059696,1.0337000000178875,1.1219000000059793]",1,26,57,4,1,10,,,,,,,,,,,,,,,,,,,,,,,,,,,,,,,,,,,,,,,,,,,,,,,,,,,,,,,,,,,,,,,,,,,,,,,,,,,,,,,,,,,,,,,,,,,,,,,,,,,,,,,,,,,,,,,,,,,,,,,,,,,,,,,,,,,,,,,,,,,,,,,,,,,,,,,,,,,,,,,,,
,134423588053,CBA,14/06/2002,001,2023-03-22_21h12.11.926,OS3_Mult_verification,2022.2.4,Win32,60.84945844,,,72,1.4083,1,"[""7"",""2"",""return""]","[0.8169999999999789,1.249800000011902,1.3666000000238228]",1,27,58,29,1,72,,,,,,,,,,,,,,,,,,,,,,,,,,,,,,,,,,,,,,,,,,,,,,,,,,,,,,,,,,,,,,,,,,,,,,,,,,,,,,,,,,,,,,,,,,,,,,,,,,,,,,,,,,,,,,,,,,,,,,,,,,,,,,,,,,,,,,,,,,,,,,,,,,,,,,,,,,,,,,,,,
,134423588053,CBA,14/06/2002,001,2023-03-22_21h12.11.926,OS3_Mult_verification,2022.2.4,Win32,60.84945844,,,64,1.2717,1,"[""6"",""4"",""return""]","[0.765500000000003,1.1204999999999927,1.2321999999880688]",1,28,59,28,1,64,,,,,,,,,,,,,,,,,,,,,,,,,,,,,,,,,,,,,,,,,,,,,,,,,,,,,,,,,,,,,,,,,,,,,,,,,,,,,,,,,,,,,,,,,,,,,,,,,,,,,,,,,,,,,,,,,,,,,,,,,,,,,,,,,,,,,,,,,,,,,,,,,,,,,,,,,,,,,,,,,
,134423588053,CBA,14/06/2002,001,2023-03-22_21h12.11.926,OS3_Mult_verification,2022.2.4,Win32,60.84945844,,,27,1.199,1,"[""2"",""7"",""return""]","[0.7171999999880825,1.083500000000015,1.166699999988083]",1,29,60,14,1,27,,,,,,,,,,,,,,,,,,,,,,,,,,,,,,,,,,,,,,,,,,,,,,,,,,,,,,,,,,,,,,,,,,,,,,,,,,,,,,,,,,,,,,,,,,,,,,,,,,,,,,,,,,,,,,,,,,,,,,,,,,,,,,,,,,,,,,,,,,,,,,,,,,,,,,,,,,,,,,,,,
,134423588053,CBA,14/06/2002,001,2023-03-22_21h12.11.926,OS3_Mult_verification,2022.2.4,Win32,60.84945844,,,36,2.6577,1,"[""4"",""backspace"",""3"",""6"",""return""]","[1.4167999999821177,1.9339999999999975,2.1490999999940357,2.455299999982117,2.6151999999880786]",1,30,61,19,1,36,,,,,,,,,,,,,,,,,,,,,,,,,,,,,,,,,,,,,,,,,,,,,,,,,,,,,,,,,,,,,,,,,,,,,,,,,,,,,,,,,,,,,,,,,,,,,,,,,,,,,,,,,,,,,,,,,,,,,,,,,,,,,,,,,,,,,,,,,,,,,,,,,,,,,,,,,,,,,,,,,
,134423588053,CBA,14/06/2002,001,2023-03-22_21h12.11.926,OS3_Mult_verification,2022.2.4,Win32,60.84945844,,,,,,,,,,,,,,space,2.602,,,,,,,,,,,,,,,,,,,,,,,,,,,,,,,,,,,,,,,,,,,,,,,,,,,,,,,,,,,,,,,,,,,,,,,,,,,,,,,,,,,,,,,,,,,,,,,,,,,,,,,,,,,,,,,,,,,,,,,,,,,,,,,,,,,,,,,,,,,,,,,,,,,,,,,,,,,,,,,
,134423588053,CBA,14/06/2002,001,2023-03-22_21h12.11.926,OS3_Mult_verification,2022.2.4,Win32,60.84945844,,,,,,,,,,,,,,,,,,,,,,,,,,,,,,,,,,,,,,,,,,,,,,,,,,,,,,,,,,,,,,,,,,,,,,,,,,,,,,,,,,,,,,,,,,,,,,,,,,,,,,,,,,,,,,,,,,,,,,,,,,,,,,,,,,,,,,,,,,,,,,,,,,,,,,,,,,,,,,,,,,,,,,,,,,,,,,
,134423588053,CBA,14/06/2002,001,2023-03-22_21h12.11.926,OS3_Mult_verification,2022.2.4,Win32,60.84945844,,,,,,,,,,,,,,,,space,3.6214,,,,,,,,,,,,,,,,,,,,,,,,,,,,,,,,,,,,,,,,,,,,,,,,,,,,,,,,,,,,,,,,,,,,,,,,,,,,,,,,,,,,,,,,,,,,,,,,,,,,,,,,,,,,,,,,,,,,,,,,,,,,,,,,,,,,,,,,,,,,,,,,,,,,,,,,,,,,,
,134423588053,CBA,14/06/2002,001,2023-03-22_21h12.11.926,OS3_Mult_verification,2022.2.4,Win32,60.84945844,,,,,,,,,,,,,,,,,,22,1.6871,1,"[""2"",""2"",""return""]","[1.1443000000119241,1.2475000000000023,1.3919000000059611]",0,0,0,2,1,2 × 11 =,22,,,,,,,,,,,,,,,,,,,,,,,,,,,,,,,,,,,,,,,,,,,,,,,,,,,,,,,,,,,,,,,,,,,,,,,,,,,,,,,,,,,,,,,,,,,,,,,,,,,,,,,,,,,,,,,,,,,,,,,,,,,,,,,,,,,,,,,,,,,,,,,,,
,134423588053,CBA,14/06/2002,001,2023-03-22_21h12.11.926,OS3_Mult_verification,2022.2.4,Win32,60.84945844,,,,,,,,,,,,,,,,,,2,1.5934,0,"[""2"",""return""]","[0.9327999999821088,1.2865999999940243]",0,1,1,1,1,2 × 10 =,20,,,,,,,,,,,,,,,,,,,,,,,,,,,,,,,,,,,,,,,,,,,,,,,,,,,,,,,,,,,,,,,,,,,,,,,,,,,,,,,,,,,,,,,,,,,,,,,,,,,,,,,,,,,,,,,,,,,,,,,,,,,,,,,,,,,,,,,,,,,,,,,,,
,134423588053,CBA,14/06/2002,001,2023-03-22_21h12.11.926,OS3_Mult_verification,2022.2.4,Win32,60.84945844,,,,,,,,,,,,,,,,,,7,1.4388,1,"[""7"",""return""]","[0.966099999994043,1.1325000000000216]",0,2,2,0,1,1 × 7 =,7,,,,,,,,,,,,,,,,,,,,,,,,,,,,,,,,,,,,,,,,,,,,,,,,,,,,,,,,,,,,,,,,,,,,,,,,,,,,,,,,,,,,,,,,,,,,,,,,,,,,,,,,,,,,,,,,,,,,,,,,,,,,,,,,,,,,,,,,,,,,,,,,,
,134423588053,CBA,14/06/2002,001,2023-03-22_21h12.11.926,OS3_Mult_verification,2022.2.4,Win32,60.84945844,,,,,,,,,,,,,,,,,,,,,,,,,,,,,,,,,,,,,,,,,,,,,,,,,,,,,,,,,,,,,,,,,,,,,,,,,,,,,,,,,,,,,,,,,,,,,,,,,,,,,,,,,,,,,,,,,,,,,,,,,,,,,,,,,,,,,,,,,,,,,,,,,,,,,,,,,,,,,,,,,,,,,,,,,,,,,,
,134423588053,CBA,14/06/2002,001,2023-03-22_21h12.11.926,OS3_Mult_verification,2022.2.4,Win32,60.84945844,,,,,,,,,,,,,,,,,,,,,,,,,,,,,,,,,,,,,,,,,,,,,,,,,,,,,,,,,,,,,,,,,,,,,,,,,,,,,,,,,,,,,,,,,,,,,,,,,,,,,,,,,,,,,,,,,,,,,,,,,,,,,,,,,,,,,,,,,,,,,,,,,,,,,,,,,,,,,,,,,,,,,,,,,,,,,,
,134423588053,CBA,14/06/2002,001,2023-03-22_21h12.11.926,OS3_Mult_verification,2022.2.4,Win32,60.84945844,,,,,,,,,,,,,,,,,,6,2.7505,1,"[""6"",""return""]","[2.302500000000009,2.466000000000008]",,,,,,2 × 3 =,6,0,0,0,0,1,,,,,,,,,,,,,,,,,,,,,,,,,,,,,,,,,,,,,,,,,,,,,,,,,,,,,,,,,,,,,,,,,,,,,,,,,,,,,,,,,,,,,,,,,,,,,,,,,,,,,,,,,,,,,,,,,,,,,,,,,,,,,,,,,,,,,,,,,,,,
,134423588053,CBA,14/06/2002,001,2023-03-22_21h12.11.926,OS3_Mult_verification,2022.2.4,Win32,60.84945844,,,,,,,,,,,,,,,,,,40,3.1478,1,"[""4"",""0"",""return""]","[2.448999999999984,2.5985000000000014,2.864699999988062]",,,,,,5 × 8 =,40,0,1,1,1,1,,,,,,,,,,,,,,,,,,,,,,,,,,,,,,,,,,,,,,,,,,,,,,,,,,,,,,,,,,,,,,,,,,,,,,,,,,,,,,,,,,,,,,,,,,,,,,,,,,,,,,,,,,,,,,,,,,,,,,,,,,,,,,,,,,,,,,,,,,,,
,134423588053,CBA,14/06/2002,001,2023-03-22_21h12.11.926,OS3_Mult_verification,2022.2.4,Win32,60.84945844,,,,,,,,,,,,,,,,,,12,1.5166,1,"[""1"",""2"",""return""]","[0.8999000000059709,1.0332999999821197,1.2171999999880825]",,,,,,3 × 4 =,12,0,2,2,2,1,,,,,,,,,,,,,,,,,,,,,,,,,,,,,,,,,,,,,,,,,,,,,,,,,,,,,,,,,,,,,,,,,,,,,,,,,,,,,,,,,,,,,,,,,,,,,,,,,,,,,,,,,,,,,,,,,,,,,,,,,,,,,,,,,,,,,,,,,,,,
,134423588053,CBA,14/06/2002,001,2023-03-22_21h12.11.926,OS3_Mult_verification,2022.2.4,Win32,60.84945844,,,,,,,,,,,,,,,,,,15,1.5383,1,"[""1"",""5"",""return""]","[0.7993000000119252,1.133499999999998,1.240000000000009]",,,,,,5 × 3 =,15,0,3,3,3,1,,,,,,,,,,,,,,,,,,,,,,,,,,,,,,,,,,,,,,,,,,,,,,,,,,,,,,,,,,,,,,,,,,,,,,,,,,,,,,,,,,,,,,,,,,,,,,,,,,,,,,,,,,,,,,,,,,,,,,,,,,,,,,,,,,,,,,,,,,,,
,134423588053,CBA,14/06/2002,001,2023-03-22_21h12.11.926,OS3_Mult_verification,2022.2.4,Win32,60.84945844,,,,,,,,,,,,,,,,,,8,1.5141,1,"[""8"",""return""]","[1.066900000005944,1.2077000000178657]",,,,,,2 × 4 =,8,0,4,4,4,1,,,,,,,,,,,,,,,,,,,,,,,,,,,,,,,,,,,,,,,,,,,,,,,,,,,,,,,,,,,,,,,,,,,,,,,,,,,,,,,,,,,,,,,,,,,,,,,,,,,,,,,,,,,,,,,,,,,,,,,,,,,,,,,,,,,,,,,,,,,,
,134423588053,CBA,14/06/2002,001,2023-03-22_21h12.11.926,OS3_Mult_verification,2022.2.4,Win32,60.84945844,,,,,,,,,,,,,,,,,,4,1.3214,1,"[""4"",""return""]","[0.7995000000000232,1.016400000005973]",,,,,,2 × 2 =,4,0,5,5,5,1,,,,,,,,,,,,,,,,,,,,,,,,,,,,,,,,,,,,,,,,,,,,,,,,,,,,,,,,,,,,,,,,,,,,,,,,,,,,,,,,,,,,,,,,,,,,,,,,,,,,,,,,,,,,,,,,,,,,,,,,,,,,,,,,,,,,,,,,,,,,
,134423588053,CBA,14/06/2002,001,2023-03-22_21h12.11.926,OS3_Mult_verification,2022.2.4,Win32,60.84945844,,,,,,,,,,,,,,,,,,20,1.8812,1,"[""2"",""0"",""return""]","[1.1158999999761647,1.4493999999761513,1.5827999999821145]",,,,,,4 × 5 =,20,0,6,6,6,1,,,,,,,,,,,,,,,,,,,,,,,,,,,,,,,,,,,,,,,,,,,,,,,,,,,,,,,,,,,,,,,,,,,,,,,,,,,,,,,,,,,,,,,,,,,,,,,,,,,,,,,,,,,,,,,,,,,,,,,,,,,,,,,,,,,,,,,,,,,,
,134423588053,CBA,14/06/2002,001,2023-03-22_21h12.11.926,OS3_Mult_verification,2022.2.4,Win32,60.84945844,,,,,,,,,,,,,,,,,,9,1.3648,1,"[""9"",""return""]","[0.9438000000119189,1.0668000000119093]",,,,,,3 × 3 =,9,0,7,7,7,1,,,,,,,,,,,,,,,,,,,,,,,,,,,,,,,,,,,,,,,,,,,,,,,,,,,,,,,,,,,,,,,,,,,,,,,,,,,,,,,,,,,,,,,,,,,,,,,,,,,,,,,,,,,,,,,,,,,,,,,,,,,,,,,,,,,,,,,,,,,,
,134423588053,CBA,14/06/2002,001,2023-03-22_21h12.11.926,OS3_Mult_verification,2022.2.4,Win32,60.84945844,,,,,,,,,,,,,,,,,,10,1.5245,1,"[""1"",""0"",""return""]","[0.7006000000238544,1.1103000000119323,1.217000000000013]",,,,,,5 × 2 =,10,0,8,8,8,1,,,,,,,,,,,,,,,,,,,,,,,,,,,,,,,,,,,,,,,,,,,,,,,,,,,,,,,,,,,,,,,,,,,,,,,,,,,,,,,,,,,,,,,,,,,,,,,,,,,,,,,,,,,,,,,,,,,,,,,,,,,,,,,,,,,,,,,,,,,,
,134423588053,CBA,14/06/2002,001,2023-03-22_21h12.11.926,OS3_Mult_verification,2022.2.4,Win32,60.84945844,,,,,,,,,,,,,,,,,,16,1.7807,1,"[""1"",""6"",""return""]","[1.025400000005959,1.3837000000178818,1.4661000000238573]",,,,,,4 × 4 =,16,0,9,9,9,1,,,,,,,,,,,,,,,,,,,,,,,,,,,,,,,,,,,,,,,,,,,,,,,,,,,,,,,,,,,,,,,,,,,,,,,,,,,,,,,,,,,,,,,,,,,,,,,,,,,,,,,,,,,,,,,,,,,,,,,,,,,,,,,,,,,,,,,,,,,,
,134423588053,CBA,14/06/2002,001,2023-03-22_21h12.11.926,OS3_Mult_verification,2022.2.4,Win32,60.84945844,,,,,,,,,,,,,,,,,,24,1.7039,1,"[""2"",""4"",""return""]","[1.0332999999821197,1.2655999999940377,1.3992999999821052]",,,,,,8 × 3 =,24,0,10,10,10,1,,,,,,,,,,,,,,,,,,,,,,,,,,,,,,,,,,,,,,,,,,,,,,,,,,,,,,,,,,,,,,,,,,,,,,,,,,,,,,,,,,,,,,,,,,,,,,,,,,,,,,,,,,,,,,,,,,,,,,,,,,,,,,,,,,,,,,,,,,,,
,134423588053,CBA,14/06/2002,001,2023-03-22_21h12.11.926,OS3_Mult_verification,2022.2.4,Win32,60.84945844,,,,,,,,,,,,,,,,,,30,1.8976,1,"[""3"",""0"",""return""]","[1.133499999999998,1.482900000005941,1.5990999999940243]",,,,,,6 × 5 =,30,0,11,11,11,1,,,,,,,,,,,,,,,,,,,,,,,,,,,,,,,,,,,,,,,,,,,,,,,,,,,,,,,,,,,,,,,,,,,,,,,,,,,,,,,,,,,,,,,,,,,,,,,,,,,,,,,,,,,,,,,,,,,,,,,,,,,,,,,,,,,,,,,,,,,,
,134423588053,CBA,14/06/2002,001,2023-03-22_21h12.11.926,OS3_Mult_verification,2022.2.4,Win32,60.84945844,,,,,,,,,,,,,,,,,,14,1.3812,1,"[""1"",""4"",""return""]","[0.6791999999880716,0.9891999999880738,1.0830999999940332]",,,,,,7 × 2 =,14,0,12,12,12,1,,,,,,,,,,,,,,,,,,,,,,,,,,,,,,,,,,,,,,,,,,,,,,,,,,,,,,,,,,,,,,,,,,,,,,,,,,,,,,,,,,,,,,,,,,,,,,,,,,,,,,,,,,,,,,,,,,,,,,,,,,,,,,,,,,,,,,,,,,,,
,134423588053,CBA,14/06/2002,001,2023-03-22_21h12.11.926,OS3_Mult_verification,2022.2.4,Win32,60.84945844,,,,,,,,,,,,,,,,,,27,1.865,1,"[""2"",""7"",""return""]","[0.9931999999880929,1.400999999999982,1.566199999988072]",,,,,,3 × 9 =,27,0,13,13,13,1,,,,,,,,,,,,,,,,,,,,,,,,,,,,,,,,,,,,,,,,,,,,,,,,,,,,,,,,,,,,,,,,,,,,,,,,,,,,,,,,,,,,,,,,,,,,,,,,,,,,,,,,,,,,,,,,,,,,,,,,,,,,,,,,,,,,,,,,,,,,
,134423588053,CBA,14/06/2002,001,2023-03-22_21h12.11.926,OS3_Mult_verification,2022.2.4,Win32,60.84945844,,,,,,,,,,,,,,,,,,16,1.6469,1,"[""1"",""6"",""return""]","[0.750399999976139,1.216299999982141,1.3495000000000346]",,,,,,2 × 8 =,16,0,14,14,14,1,,,,,,,,,,,,,,,,,,,,,,,,,,,,,,,,,,,,,,,,,,,,,,,,,,,,,,,,,,,,,,,,,,,,,,,,,,,,,,,,,,,,,,,,,,,,,,,,,,,,,,,,,,,,,,,,,,,,,,,,,,,,,,,,,,,,,,,,,,,,
,134423588053,CBA,14/06/2002,001,2023-03-22_21h12.11.926,OS3_Mult_verification,2022.2.4,Win32,60.84945844,,,,,,,,,,,,,,,,,,24,1.4642,1,"[""2"",""4"",""return""]","[0.784099999994055,1.0219000000059282,1.1659999999999968]",,,,,,4 × 6 =,24,0,15,15,15,1,,,,,,,,,,,,,,,,,,,,,,,,,,,,,,,,,,,,,,,,,,,,,,,,,,,,,,,,,,,,,,,,,,,,,,,,,,,,,,,,,,,,,,,,,,,,,,,,,,,,,,,,,,,,,,,,,,,,,,,,,,,,,,,,,,,,,,,,,,,,
,134423588053,CBA,14/06/2002,001,2023-03-22_21h12.11.926,OS3_Mult_verification,2022.2.4,Win32,60.84945844,,,,,,,,,,,,,,,,,,21,1.5983,1,"[""2"",""1"",""return""]","[0.8825999999940564,1.1324000000059868,1.30030000001193]",,,,,,7 × 3 =,21,0,16,16,16,1,,,,,,,,,,,,,,,,,,,,,,,,,,,,,,,,,,,,,,,,,,,,,,,,,,,,,,,,,,,,,,,,,,,,,,,,,,,,,,,,,,,,,,,,,,,,,,,,,,,,,,,,,,,,,,,,,,,,,,,,,,,,,,,,,,,,,,,,,,,,
,134423588053,CBA,14/06/2002,001,2023-03-22_21h12.11.926,OS3_Mult_verification,2022.2.4,Win32,60.84945844,,,,,,,,,,,,,,,,,,27,3.2721,1,"[""2"",""backspace"",""2"",""7"",""return""]","[0.7699999999999818,1.882799999982069,2.5155999999940377,2.8982999999821004,2.9694999999999823]",,,,,,9 × 3 =,27,0,17,17,17,1,,,,,,,,,,,,,,,,,,,,,,,,,,,,,,,,,,,,,,,,,,,,,,,,,,,,,,,,,,,,,,,,,,,,,,,,,,,,,,,,,,,,,,,,,,,,,,,,,,,,,,,,,,,,,,,,,,,,,,,,,,,,,,,,,,,,,,,,,,,,
,134423588053,CBA,14/06/2002,001,2023-03-22_21h12.11.926,OS3_Mult_verification,2022.2.4,Win32,60.84945844,,,,,,,,,,,,,,,,,,28,1.9501,1,"[""2"",""8"",""return""]","[0.96550000000002,1.517099999994059,1.6374000000059823]",,,,,,4 × 7 =,28,0,18,18,18,1,,,,,,,,,,,,,,,,,,,,,,,,,,,,,,,,,,,,,,,,,,,,,,,,,,,,,,,,,,,,,,,,,,,,,,,,,,,,,,,,,,,,,,,,,,,,,,,,,,,,,,,,,,,,,,,,,,,,,,,,,,,,,,,,,,,,,,,,,,,,
,134423588053,CBA,14/06/2002,001,2023-03-22_21h12.11.926,OS3_Mult_verification,2022.2.4,Win32,60.84945844,,,,,,,,,,,,,,,,,,18,1.8969,1,"[""1"",""8"",""return""]","[0.7331999999880736,1.4661999999880777,1.5989000000059832]",,,,,,2 × 9 =,18,0,19,19,19,1,,,,,,,,,,,,,,,,,,,,,,,,,,,,,,,,,,,,,,,,,,,,,,,,,,,,,,,,,,,,,,,,,,,,,,,,,,,,,,,,,,,,,,,,,,,,,,,,,,,,,,,,,,,,,,,,,,,,,,,,,,,,,,,,,,,,,,,,,,,,
,134423588053,CBA,14/06/2002,001,2023-03-22_21h12.11.926,OS3_Mult_verification,2022.2.4,Win32,60.84945844,,,,,,,,,,,,,,,,,,72,2.5808,1,"[""7"",""2"",""return""]","[1.699300000011874,2.1484000000059496,2.2819999999999823]",,,,,,9 × 8 =,72,0,20,20,20,1,,,,,,,,,,,,,,,,,,,,,,,,,,,,,,,,,,,,,,,,,,,,,,,,,,,,,,,,,,,,,,,,,,,,,,,,,,,,,,,,,,,,,,,,,,,,,,,,,,,,,,,,,,,,,,,,,,,,,,,,,,,,,,,,,,,,,,,,,,,,
,134423588053,CBA,14/06/2002,001,2023-03-22_21h12.11.926,OS3_Mult_verification,2022.2.4,Win32,60.84945844,,,,,,,,,,,,,,,,,,42,2.4132,1,"[""4"",""2"",""return""]","[1.6656999999880782,1.9655999999940263,2.115000000000009]",,,,,,7 × 6 =,42,0,21,21,21,1,,,,,,,,,,,,,,,,,,,,,,,,,,,,,,,,,,,,,,,,,,,,,,,,,,,,,,,,,,,,,,,,,,,,,,,,,,,,,,,,,,,,,,,,,,,,,,,,,,,,,,,,,,,,,,,,,,,,,,,,,,,,,,,,,,,,,,,,,,,,
,134423588053,CBA,14/06/2002,001,2023-03-22_21h12.11.926,OS3_Mult_verification,2022.2.4,Win32,60.84945844,,,,,,,,,,,,,,,,,,54,2.4642,1,"[""5"",""4"",""return""]","[1.84880000001192,2.0662000000178864,2.165700000017864]",,,,,,6 × 9 =,54,0,22,22,22,1,,,,,,,,,,,,,,,,,,,,,,,,,,,,,,,,,,,,,,,,,,,,,,,,,,,,,,,,,,,,,,,,,,,,,,,,,,,,,,,,,,,,,,,,,,,,,,,,,,,,,,,,,,,,,,,,,,,,,,,,,,,,,,,,,,,,,,,,,,,,
,134423588053,CBA,14/06/2002,001,2023-03-22_21h12.11.926,OS3_Mult_verification,2022.2.4,Win32,60.84945844,,,,,,,,,,,,,,,,,,45,1.669,1,"[""4"",""5"",""return""]","[0.9875999999940746,1.2192999999821268,1.3779000000059796]",,,,,,9 × 5 =,45,0,23,23,23,1,,,,,,,,,,,,,,,,,,,,,,,,,,,,,,,,,,,,,,,,,,,,,,,,,,,,,,,,,,,,,,,,,,,,,,,,,,,,,,,,,,,,,,,,,,,,,,,,,,,,,,,,,,,,,,,,,,,,,,,,,,,,,,,,,,,,,,,,,,,,
,134423588053,CBA,14/06/2002,001,2023-03-22_21h12.11.926,OS3_Mult_verification,2022.2.4,Win32,60.84945844,,,,,,,,,,,,,,,,,,56,1.8978,1,"[""5"",""6"",""return""]","[1.2104000000059614,1.4506999999880463,1.5931999999880873]",,,,,,8 × 7 =,56,0,24,24,24,1,,,,,,,,,,,,,,,,,,,,,,,,,,,,,,,,,,,,,,,,,,,,,,,,,,,,,,,,,,,,,,,,,,,,,,,,,,,,,,,,,,,,,,,,,,,,,,,,,,,,,,,,,,,,,,,,,,,,,,,,,,,,,,,,,,,,,,,,,,,,
,134423588053,CBA,14/06/2002,001,2023-03-22_21h12.11.926,OS3_Mult_verification,2022.2.4,Win32,60.84945844,,,,,,,,,,,,,,,,,,36,1.6982,1,"[""3"",""6"",""return""]","[0.9535000000000196,1.2945000000000277,1.3948000000119123]",,,,,,6 × 6 =,36,0,25,25,25,1,,,,,,,,,,,,,,,,,,,,,,,,,,,,,,,,,,,,,,,,,,,,,,,,,,,,,,,,,,,,,,,,,,,,,,,,,,,,,,,,,,,,,,,,,,,,,,,,,,,,,,,,,,,,,,,,,,,,,,,,,,,,,,,,,,,,,,,,,,,,
,134423588053,CBA,14/06/2002,001,2023-03-22_21h12.11.926,OS3_Mult_verification,2022.2.4,Win32,60.84945844,,,,,,,,,,,,,,,,,,35,1.6801,1,"[""3"",""5"",""return""]","[0.9724999999999682,1.2706000000238191,1.3834000000059632]",,,,,,5 × 7 =,35,0,26,26,26,1,,,,,,,,,,,,,,,,,,,,,,,,,,,,,,,,,,,,,,,,,,,,,,,,,,,,,,,,,,,,,,,,,,,,,,,,,,,,,,,,,,,,,,,,,,,,,,,,,,,,,,,,,,,,,,,,,,,,,,,,,,,,,,,,,,,,,,,,,,,,
,134423588053,CBA,14/06/2002,001,2023-03-22_21h12.11.926,OS3_Mult_verification,2022.2.4,Win32,60.84945844,,,,,,,,,,,,,,,,,,36,4.1458,1,"[""3"",""6"",""return""]","[3.392900000005966,3.7116999999880704,3.844799999982115]",,,,,,4 × 9 =,36,0,27,27,27,1,,,,,,,,,,,,,,,,,,,,,,,,,,,,,,,,,,,,,,,,,,,,,,,,,,,,,,,,,,,,,,,,,,,,,,,,,,,,,,,,,,,,,,,,,,,,,,,,,,,,,,,,,,,,,,,,,,,,,,,,,,,,,,,,,,,,,,,,,,,,
,134423588053,CBA,14/06/2002,001,2023-03-22_21h12.11.926,OS3_Mult_verification,2022.2.4,Win32,60.84945844,,,,,,,,,,,,,,,,,,48,1.6839,1,"[""4"",""8"",""return""]","[0.96630000001187,1.29940000000596,1.3999999999999773]",,,,,,8 × 6 =,48,0,28,28,28,1,,,,,,,,,,,,,,,,,,,,,,,,,,,,,,,,,,,,,,,,,,,,,,,,,,,,,,,,,,,,,,,,,,,,,,,,,,,,,,,,,,,,,,,,,,,,,,,,,,,,,,,,,,,,,,,,,,,,,,,,,,,,,,,,,,,,,,,,,,,,
,134423588053,CBA,14/06/2002,001,2023-03-22_21h12.11.926,OS3_Mult_verification,2022.2.4,Win32,60.84945844,,,,,,,,,,,,,,,,,,63,2.6958,1,"[""6"",""3"",""return""]","[1.5425999999940245,2.2654000000059114,2.398700000017868]",,,,,,9 × 7 =,63,0,29,29,29,1,,,,,,,,,,,,,,,,,,,,,,,,,,,,,,,,,,,,,,,,,,,,,,,,,,,,,,,,,,,,,,,,,,,,,,,,,,,,,,,,,,,,,,,,,,,,,,,,,,,,,,,,,,,,,,,,,,,,,,,,,,,,,,,,,,,,,,,,,,,,
,134423588053,CBA,14/06/2002,001,2023-03-22_21h12.11.926,OS3_Mult_verification,2022.2.4,Win32,60.84945844,,,,,,,,,,,,,,,,,,12,1.3482,1,"[""1"",""2"",""return""]","[0.6504000000059591,0.86579999998213,1.0332999999820913]",,,,,,4 × 3 =,12,0,30,30,30,1,,,,,,,,,,,,,,,,,,,,,,,,,,,,,,,,,,,,,,,,,,,,,,,,,,,,,,,,,,,,,,,,,,,,,,,,,,,,,,,,,,,,,,,,,,,,,,,,,,,,,,,,,,,,,,,,,,,,,,,,,,,,,,,,,,,,,,,,,,,,
,134423588053,CBA,14/06/2002,001,2023-03-22_21h12.11.926,OS3_Mult_verification,2022.2.4,Win32,60.84945844,,,,,,,,,,,,,,,,,,25,1.5144,1,"[""2"",""5"",""return""]","[0.7890000000000441,1.0925000000000296,1.2159000000060018]",,,,,,5 × 5 =,25,0,31,31,31,1,,,,,,,,,,,,,,,,,,,,,,,,,,,,,,,,,,,,,,,,,,,,,,,,,,,,,,,,,,,,,,,,,,,,,,,,,,,,,,,,,,,,,,,,,,,,,,,,,,,,,,,,,,,,,,,,,,,,,,,,,,,,,,,,,,,,,,,,,,,,
,134423588053,CBA,14/06/2002,001,2023-03-22_21h12.11.926,OS3_Mult_verification,2022.2.4,Win32,60.84945844,,,,,,,,,,,,,,,,,,6,1.6589,1,"[""6"",""return""]","[1.1835999999939872,1.3511999999880686]",,,,,,3 × 2 =,6,0,32,32,32,1,,,,,,,,,,,,,,,,,,,,,,,,,,,,,,,,,,,,,,,,,,,,,,,,,,,,,,,,,,,,,,,,,,,,,,,,,,,,,,,,,,,,,,,,,,,,,,,,,,,,,,,,,,,,,,,,,,,,,,,,,,,,,,,,,,,,,,,,,,,,
,134423588053,CBA,14/06/2002,001,2023-03-22_21h12.11.926,OS3_Mult_verification,2022.2.4,Win32,60.84945844,,,,,,,,,,,,,,,,,,20,1.8367,1,"[""2"",""0"",""return""]","[0.7988000000119087,1.183099999994056,1.5489999999999782]",,,,,,5 × 4 =,20,0,33,33,33,1,,,,,,,,,,,,,,,,,,,,,,,,,,,,,,,,,,,,,,,,,,,,,,,,,,,,,,,,,,,,,,,,,,,,,,,,,,,,,,,,,,,,,,,,,,,,,,,,,,,,,,,,,,,,,,,,,,,,,,,,,,,,,,,,,,,,,,,,,,,,
,134423588053,CBA,14/06/2002,001,2023-03-22_21h12.11.926,OS3_Mult_verification,2022.2.4,Win32,60.84945844,,,,,,,,,,,,,,,,,,8,1.4807,1,"[""8"",""return""]","[1.0493000000119537,1.1825999999940677]",,,,,,4 × 2 =,8,0,34,34,34,1,,,,,,,,,,,,,,,,,,,,,,,,,,,,,,,,,,,,,,,,,,,,,,,,,,,,,,,,,,,,,,,,,,,,,,,,,,,,,,,,,,,,,,,,,,,,,,,,,,,,,,,,,,,,,,,,,,,,,,,,,,,,,,,,,,,,,,,,,,,,
,134423588053,CBA,14/06/2002,001,2023-03-22_21h12.11.926,OS3_Mult_verification,2022.2.4,Win32,60.84945844,,,,,,,,,,,,,,,,,,12,1.332,1,"[""1"",""2"",""return""]","[0.7055999999940354,0.8835999999940327,1.0332999999821482]",,,,,,2 × 6 =,12,0,35,35,35,1,,,,,,,,,,,,,,,,,,,,,,,,,,,,,,,,,,,,,,,,,,,,,,,,,,,,,,,,,,,,,,,,,,,,,,,,,,,,,,,,,,,,,,,,,,,,,,,,,,,,,,,,,,,,,,,,,,,,,,,,,,,,,,,,,,,,,,,,,,,,
,134423588053,CBA,14/06/2002,001,2023-03-22_21h12.11.926,OS3_Mult_verification,2022.2.4,Win32,60.84945844,,,,,,,,,,,,,,,,,,15,1.5799,1,"[""1"",""5"",""return""]","[0.7513999999761722,1.1340000000000146,1.2828999999761663]",,,,,,3 × 5 =,15,0,36,36,36,1,,,,,,,,,,,,,,,,,,,,,,,,,,,,,,,,,,,,,,,,,,,,,,,,,,,,,,,,,,,,,,,,,,,,,,,,,,,,,,,,,,,,,,,,,,,,,,,,,,,,,,,,,,,,,,,,,,,,,,,,,,,,,,,,,,,,,,,,,,,,
,134423588053,CBA,14/06/2002,001,2023-03-22_21h12.11.926,OS3_Mult_verification,2022.2.4,Win32,60.84945844,,,,,,,,,,,,,,,,,,18,1.5646,1,"[""1"",""8"",""return""]","[0.733799999982125,1.1667999999821177,1.266599999994014]",,,,,,6 × 3 =,18,0,37,37,37,1,,,,,,,,,,,,,,,,,,,,,,,,,,,,,,,,,,,,,,,,,,,,,,,,,,,,,,,,,,,,,,,,,,,,,,,,,,,,,,,,,,,,,,,,,,,,,,,,,,,,,,,,,,,,,,,,,,,,,,,,,,,,,,,,,,,,,,,,,,,,
,134423588053,CBA,14/06/2002,001,2023-03-22_21h12.11.926,OS3_Mult_verification,2022.2.4,Win32,60.84945844,,,,,,,,,,,,,,,,,,19,1.5248,0,"[""1"",""9"",""return""]","[0.633699999988039,1.0504999999999995,1.2221999999880495]",,,,,,2 × 5 =,10,0,38,38,38,1,,,,,,,,,,,,,,,,,,,,,,,,,,,,,,,,,,,,,,,,,,,,,,,,,,,,,,,,,,,,,,,,,,,,,,,,,,,,,,,,,,,,,,,,,,,,,,,,,,,,,,,,,,,,,,,,,,,,,,,,,,,,,,,,,,,,,,,,,,,,
,134423588053,CBA,14/06/2002,001,2023-03-22_21h12.11.926,OS3_Mult_verification,2022.2.4,Win32,60.84945844,,,,,,,,,,,,,,,,,,32,2.8038,1,"[""3"",""2"",""return""]","[2.0663000000118927,2.2663000000118814,2.4989000000059605]",,,,,,4 × 8 =,32,0,39,39,39,1,,,,,,,,,,,,,,,,,,,,,,,,,,,,,,,,,,,,,,,,,,,,,,,,,,,,,,,,,,,,,,,,,,,,,,,,,,,,,,,,,,,,,,,,,,,,,,,,,,,,,,,,,,,,,,,,,,,,,,,,,,,,,,,,,,,,,,,,,,,,
,134423588053,CBA,14/06/2002,001,2023-03-22_21h12.11.926,OS3_Mult_verification,2022.2.4,Win32,60.84945844,,,,,,,,,,,,,,,,,,24,1.7533,1,"[""2"",""4"",""return""]","[0.9791000000238341,1.280200000017885,1.4691000000238432]",,,,,,3 × 8 =,24,0,40,40,40,1,,,,,,,,,,,,,,,,,,,,,,,,,,,,,,,,,,,,,,,,,,,,,,,,,,,,,,,,,,,,,,,,,,,,,,,,,,,,,,,,,,,,,,,,,,,,,,,,,,,,,,,,,,,,,,,,,,,,,,,,,,,,,,,,,,,,,,,,,,,,
,134423588053,CBA,14/06/2002,001,2023-03-22_21h12.11.926,OS3_Mult_verification,2022.2.4,Win32,60.84945844,,,,,,,,,,,,,,,,,,30,1.7471,1,"[""3"",""0"",""return""]","[0.9119000000059714,1.330900000005954,1.4532000000178869]",,,,,,5 × 6 =,30,0,41,41,41,1,,,,,,,,,,,,,,,,,,,,,,,,,,,,,,,,,,,,,,,,,,,,,,,,,,,,,,,,,,,,,,,,,,,,,,,,,,,,,,,,,,,,,,,,,,,,,,,,,,,,,,,,,,,,,,,,,,,,,,,,,,,,,,,,,,,,,,,,,,,,
,134423588053,CBA,14/06/2002,001,2023-03-22_21h12.11.926,OS3_Mult_verification,2022.2.4,Win32,60.84945844,,,,,,,,,,,,,,,,,,14,1.8639,1,"[""1"",""4"",""return""]","[0.8304000000059659,1.4798000000119487,1.5636000000238255]",,,,,,2 × 7 =,14,0,42,42,42,1,,,,,,,,,,,,,,,,,,,,,,,,,,,,,,,,,,,,,,,,,,,,,,,,,,,,,,,,,,,,,,,,,,,,,,,,,,,,,,,,,,,,,,,,,,,,,,,,,,,,,,,,,,,,,,,,,,,,,,,,,,,,,,,,,,,,,,,,,,,,
,134423588053,CBA,14/06/2002,001,2023-03-22_21h12.11.926,OS3_Mult_verification,2022.2.4,Win32,60.84945844,,,,,,,,,,,,,,,,,,24,1.5973,1,"[""2"",""4"",""return""]","[0.8790999999940254,1.1801999999880763,1.2983999999761409]",,,,,,6 × 4 =,24,0,43,43,43,1,,,,,,,,,,,,,,,,,,,,,,,,,,,,,,,,,,,,,,,,,,,,,,,,,,,,,,,,,,,,,,,,,,,,,,,,,,,,,,,,,,,,,,,,,,,,,,,,,,,,,,,,,,,,,,,,,,,,,,,,,,,,,,,,,,,,,,,,,,,,
,134423588053,CBA,14/06/2002,001,2023-03-22_21h12.11.926,OS3_Mult_verification,2022.2.4,Win32,60.84945844,,,,,,,,,,,,,,,,,,21,1.6643,1,"[""2"",""1"",""return""]","[0.8883000000118955,1.1173000000119373,1.3654999999999973]",,,,,,3 × 7 =,21,0,44,44,44,1,,,,,,,,,,,,,,,,,,,,,,,,,,,,,,,,,,,,,,,,,,,,,,,,,,,,,,,,,,,,,,,,,,,,,,,,,,,,,,,,,,,,,,,,,,,,,,,,,,,,,,,,,,,,,,,,,,,,,,,,,,,,,,,,,,,,,,,,,,,,
,134423588053,CBA,14/06/2002,001,2023-03-22_21h12.11.926,OS3_Mult_verification,2022.2.4,Win32,60.84945844,,,,,,,,,,,,,,,,,,81,2.1973,1,"[""8"",""1"",""return""]","[1.277499999999975,1.7294000000059668,1.894599999994]",,,,,,9 × 9 =,81,0,45,45,45,1,,,,,,,,,,,,,,,,,,,,,,,,,,,,,,,,,,,,,,,,,,,,,,,,,,,,,,,,,,,,,,,,,,,,,,,,,,,,,,,,,,,,,,,,,,,,,,,,,,,,,,,,,,,,,,,,,,,,,,,,,,,,,,,,,,,,,,,,,,,,
,134423588053,CBA,14/06/2002,001,2023-03-22_21h12.11.926,OS3_Mult_verification,2022.2.4,Win32,60.84945844,,,,,,,,,,,,,,,,,,16,1.6309,1,"[""1"",""6"",""return""]","[0.701100000023871,1.2279000000059455,1.3273000000119168]",,,,,,8 × 2 =,16,0,46,46,46,1,,,,,,,,,,,,,,,,,,,,,,,,,,,,,,,,,,,,,,,,,,,,,,,,,,,,,,,,,,,,,,,,,,,,,,,,,,,,,,,,,,,,,,,,,,,,,,,,,,,,,,,,,,,,,,,,,,,,,,,,,,,,,,,,,,,,,,,,,,,,
,134423588053,CBA,14/06/2002,001,2023-03-22_21h12.11.926,OS3_Mult_verification,2022.2.4,Win32,60.84945844,,,,,,,,,,,,,,,,,,,0.8154,0,,,,,,,,6 × 8 =,48,0,47,47,47,1,,,,,,,,,,,,,,,,,,,,,,,,,,,,,,,,,,,,,,,,,,,,,,,,,,,,,,,,,,,,,,,,,,,,,,,,,,,,,,,,,,,,,,,,,,,,,,,,,,,,,,,,,,,,,,,,,,,,,,,,,,,,,,,,,,,,,,,,,,,,
,134423588053,CBA,14/06/2002,001,2023-03-22_21h12.11.926,OS3_Mult_verification,2022.2.4,Win32,60.84945844,,,,,,,,,,,,,,,,space,2.5856,,,,,,,,,,,,,,,,,,space,5.3538,23,2.5136,0,"[""2"",""3"",""return""]","[2.017500000000041,2.2022000000179105,2.46730000001196]",0,0,0,0,1,3,123,Audio/123.mp3,practice,,,,,,,,,,,,,,,,,,,,,,,,,,,,,,,,,,,,,,,,,,,,,,,,,,,,,,,,,,,,,,,,,,,,,,,,,,,,,,,,,,,,,,,,,,,,,,,,,,,,,,,,,,,,,,,,,,,,,,,,,,,,
,134423588053,CBA,14/06/2002,001,2023-03-22_21h12.11.926,OS3_Mult_verification,2022.2.4,Win32,60.84945844,,,,,,,,,,,,,,,,,,,,,,,,,,,,,,,,,,,,,321,1.2639,1,"[""3"",""2"",""1"",""return""]","[0.5397000000178878,0.7379999999999995,0.9674000000059664,1.2340000000000373]",0,1,1,1,1,3,321,Audio/321.mp3,practice,,,,,,,,,,,,,,,,,,,,,,,,,,,,,,,,,,,,,,,,,,,,,,,,,,,,,,,,,,,,,,,,,,,,,,,,,,,,,,,,,,,,,,,,,,,,,,,,,,,,,,,,,,,,,,,,,,,,,,,,,,,,
,134423588053,CBA,14/06/2002,001,2023-03-22_21h12.11.926,OS3_Mult_verification,2022.2.4,Win32,60.84945844,,,,,,,,,,,,,,,,,,,,,,,,,,,,,,,,,,,,,911,1.2475,1,"[""9"",""1"",""1"",""return""]","[0.333500000000015,0.7526999999880672,0.9514000000059468,1.2160999999940714]",0,2,2,2,1,3,911,Audio/911.mp3,practice,,,,,,,,,,,,,,,,,,,,,,,,,,,,,,,,,,,,,,,,,,,,,,,,,,,,,,,,,,,,,,,,,,,,,,,,,,,,,,,,,,,,,,,,,,,,,,,,,,,,,,,,,,,,,,,,,,,,,,,,,,,,
,134423588053,CBA,14/06/2002,001,2023-03-22_21h12.11.926,OS3_Mult_verification,2022.2.4,Win32,60.84945844,,,,,,,,,,,,,,,,,,,,,,,,,,,,,,,,,,,,,97,1.2817,1,"[""9"",""7"",""return""]","[0.6234999999999786,0.8544999999999732,1.2465999999940323]",,,,,,2,97,Audio/97.mp3,WAIS,0,0,0,0,1,,,,,,,,,,,,,,,,,,,,,,,,,,,,,,,,,,,,,,,,,,,,,,,,,,,,,,,,,,,,,,,,,,,,,,,,,,,,,,,,,,,,,,,,,,,,,,,,,,,,,,,,,,,,,,,,,,,,,,,
,134423588053,CBA,14/06/2002,001,2023-03-22_21h12.11.926,OS3_Mult_verification,2022.2.4,Win32,60.84945844,,,,,,,,,,,,,,,,,,,,,,,,,,,,,,,,,,,,,63,1.3598,1,"[""6"",""3"",""return""]","[0.7335999999940555,1.1166999999881,1.3155000000000427]",,,,,,2,63,Audio/63.mp3,WAIS,0,1,1,1,1,,,,,,,,,,,,,,,,,,,,,,,,,,,,,,,,,,,,,,,,,,,,,,,,,,,,,,,,,,,,,,,,,,,,,,,,,,,,,,,,,,,,,,,,,,,,,,,,,,,,,,,,,,,,,,,,,,,,,,,
,134423588053,CBA,14/06/2002,001,2023-03-22_21h12.11.926,OS3_Mult_verification,2022.2.4,Win32,60.84945844,,,,,,,,,,,,,,,,,,,,,,,,,,,,,,,,,,,,,,,,,,,,,,,,,,,,,,,,0,0,0,0,1,digitSpan_stim/twoWAIS.xlsx,,,,,,,,,,,,,,,,,,,,,,,,,,,,,,,,,,,,,,,,,,,,,,,,,,,,,,,,,,,,,,,,,,,,,,,,,,,,,,,,,,,,,,,,,,,,,,,,,,,,,,,,,,,,,,,,,
,134423588053,CBA,14/06/2002,001,2023-03-22_21h12.11.926,OS3_Mult_verification,2022.2.4,Win32,60.84945844,,,,,,,,,,,,,,,,,,,,,,,,,,,,,,,,,,,,,582,1.2982,1,"[""5"",""8"",""2"",""return""]","[0.46589999997615905,0.6228999999761982,1.0675000000000523,1.2668999999762036]",,,,,,3,582,Audio/582.mp3,WAIS,0,0,0,0,1,,,,,,,,,,,,,,,,,,,,,,,,,,,,,,,,,,,,,,,,,,,,,,,,,,,,,,,,,,,,,,,,,,,,,,,,,,,,,,,,,,,,,,,,,,,,,,,,,,,,,,,,,,,,,,,,,,,,,,,
,134423588053,CBA,14/06/2002,001,2023-03-22_21h12.11.926,OS3_Mult_verification,2022.2.4,Win32,60.84945844,,,,,,,,,,,,,,,,,,,,,,,,,,,,,,,,,,,,,694,1.2816,1,"[""6"",""9"",""4"",""return""]","[0.59790000000595,0.7652999999821191,1.0985999999940077,1.2556999999880532]",,,,,,3,694,Audio/694.mp3,WAIS,0,1,1,1,1,,,,,,,,,,,,,,,,,,,,,,,,,,,,,,,,,,,,,,,,,,,,,,,,,,,,,,,,,,,,,,,,,,,,,,,,,,,,,,,,,,,,,,,,,,,,,,,,,,,,,,,,,,,,,,,,,,,,,,,
,134423588053,CBA,14/06/2002,001,2023-03-22_21h12.11.926,OS3_Mult_verification,2022.2.4,Win32,60.84945844,,,,,,,,,,,,,,,,,,,,,,,,,,,,,,,,,,,,,,,,,,,,,,,,,,,,,,,,0,1,1,1,1,digitSpan_stim/threeWAIS.xlsx,,,,,,,,,,,,,,,,,,,,,,,,,,,,,,,,,,,,,,,,,,,,,,,,,,,,,,,,,,,,,,,,,,,,,,,,,,,,,,,,,,,,,,,,,,,,,,,,,,,,,,,,,,,,,,,,,
,134423588053,CBA,14/06/2002,001,2023-03-22_21h12.11.926,OS3_Mult_verification,2022.2.4,Win32,60.84945844,,,,,,,,,,,,,,,,,,,,,,,,,,,,,,,,,,,,,7286,2.0978,1,"[""7"",""2"",""8"",""6"",""return""]","[0.5399000000059573,1.1698000000118896,1.6002000000178782,1.9332000000178482,2.0711000000238187]",,,,,,4,7286,Audio/7286.mp3,WAIS,0,0,0,0,1,,,,,,,,,,,,,,,,,,,,,,,,,,,,,,,,,,,,,,,,,,,,,,,,,,,,,,,,,,,,,,,,,,,,,,,,,,,,,,,,,,,,,,,,,,,,,,,,,,,,,,,,,,,,,,,,,,,,,,,
,134423588053,CBA,14/06/2002,001,2023-03-22_21h12.11.926,OS3_Mult_verification,2022.2.4,Win32,60.84945844,,,,,,,,,,,,,,,,,,,,,,,,,,,,,,,,,,,,,6439,1.7709,1,"[""6"",""4"",""3"",""9"",""return""]","[0.5844000000059282,0.8665999999940368,1.1668000000119036,1.3004000000059364,1.7327000000178714]",,,,,,4,6439,Audio/6439.mp3,WAIS,0,1,1,1,1,,,,,,,,,,,,,,,,,,,,,,,,,,,,,,,,,,,,,,,,,,,,,,,,,,,,,,,,,,,,,,,,,,,,,,,,,,,,,,,,,,,,,,,,,,,,,,,,,,,,,,,,,,,,,,,,,,,,,,,
,134423588053,CBA,14/06/2002,001,2023-03-22_21h12.11.926,OS3_Mult_verification,2022.2.4,Win32,60.84945844,,,,,,,,,,,,,,,,,,,,,,,,,,,,,,,,,,,,,,,,,,,,,,,,,,,,,,,,0,2,2,2,1,digitSpan_stim/fourWAIS.xlsx,,,,,,,,,,,,,,,,,,,,,,,,,,,,,,,,,,,,,,,,,,,,,,,,,,,,,,,,,,,,,,,,,,,,,,,,,,,,,,,,,,,,,,,,,,,,,,,,,,,,,,,,,,,,,,,,,
,134423588053,CBA,14/06/2002,001,2023-03-22_21h12.11.926,OS3_Mult_verification,2022.2.4,Win32,60.84945844,,,,,,,,,,,,,,,,,,,,,,,,,,,,,,,,,,,,,42731,2.2974,1,"[""4"",""2"",""7"",""3"",""1"",""return""]","[0.55030000001193,0.8007000000179119,1.0864000000059946,1.4669000000059782,1.854100000023891,2.262800000011964]",,,,,,5,42731,Audio/42731.mp3,WAIS,0,0,0,0,1,,,,,,,,,,,,,,,,,,,,,,,,,,,,,,,,,,,,,,,,,,,,,,,,,,,,,,,,,,,,,,,,,,,,,,,,,,,,,,,,,,,,,,,,,,,,,,,,,,,,,,,,,,,,,,,,,,,,,,,
,134423588053,CBA,14/06/2002,001,2023-03-22_21h12.11.926,OS3_Mult_verification,2022.2.4,Win32,60.84945844,,,,,,,,,,,,,,,,,,,,,,,,,,,,,,,,,,,,,75836,3.1807,1,"[""7"",""5"",""8"",""3"",""7"",""backspace"",""6"",""return""]","[0.4835000000000491,0.71640000000599,0.9864000000059718,1.240800000011916,1.4695999999940454,1.9670999999940477,2.3799999999999955,3.1459000000060087]",,,,,,5,75836,Audio/75836.mp3,WAIS,0,1,1,1,1,,,,,,,,,,,,,,,,,,,,,,,,,,,,,,,,,,,,,,,,,,,,,,,,,,,,,,,,,,,,,,,,,,,,,,,,,,,,,,,,,,,,,,,,,,,,,,,,,,,,,,,,,,,,,,,,,,,,,,,
,134423588053,CBA,14/06/2002,001,2023-03-22_21h12.11.926,OS3_Mult_verification,2022.2.4,Win32,60.84945844,,,,,,,,,,,,,,,,,,,,,,,,,,,,,,,,,,,,,,,,,,,,,,,,,,,,,,,,0,3,3,3,1,digitSpan_stim/fiveWAIS.xlsx,,,,,,,,,,,,,,,,,,,,,,,,,,,,,,,,,,,,,,,,,,,,,,,,,,,,,,,,,,,,,,,,,,,,,,,,,,,,,,,,,,,,,,,,,,,,,,,,,,,,,,,,,,,,,,,,,
,134423588053,CBA,14/06/2002,001,2023-03-22_21h12.11.926,OS3_Mult_verification,2022.2.4,Win32,60.84945844,,,,,,,,,,,,,,,,,,,,,,,,,,,,,,,,,,,,,394287,3.3293,0,"[""3"",""9"",""4"",""2"",""8"",""7"",""return""]","[0.5663000000119496,0.8824999999999932,1.182300000011935,1.5791999999880773,2.245999999999981,2.9058000000119364,3.2974000000059505]",,,,,,6,392487,Audio/392487.mp3,WAIS,0,0,0,0,1,,,,,,,,,,,,,,,,,,,,,,,,,,,,,,,,,,,,,,,,,,,,,,,,,,,,,,,,,,,,,,,,,,,,,,,,,,,,,,,,,,,,,,,,,,,,,,,,,,,,,,,,,,,,,,,,,,,,,,,
,134423588053,CBA,14/06/2002,001,2023-03-22_21h12.11.926,OS3_Mult_verification,2022.2.4,Win32,60.84945844,,,,,,,,,,,,,,,,,,,,,,,,,,,,,,,,,,,,,619473,3.4129,1,"[""6"",""1"",""9"",""4"",""7"",""3"",""return""]","[0.9308000000119137,1.1733000000118636,1.4880999999940059,1.738999999999919,2.5695999999940113,3.022800000011898,3.3807000000177823]",,,,,,6,619473,Audio/619473.mp3,WAIS,0,1,1,1,1,,,,,,,,,,,,,,,,,,,,,,,,,,,,,,,,,,,,,,,,,,,,,,,,,,,,,,,,,,,,,,,,,,,,,,,,,,,,,,,,,,,,,,,,,,,,,,,,,,,,,,,,,,,,,,,,,,,,,,,
,134423588053,CBA,14/06/2002,001,2023-03-22_21h12.11.926,OS3_Mult_verification,2022.2.4,Win32,60.84945844,,,,,,,,,,,,,,,,,,,,,,,,,,,,,,,,,,,,,,,,,,,,,,,,,,,,,,,,0,4,4,4,1,digitSpan_stim/sixWAIS.xlsx,,,,,,,,,,,,,,,,,,,,,,,,,,,,,,,,,,,,,,,,,,,,,,,,,,,,,,,,,,,,,,,,,,,,,,,,,,,,,,,,,,,,,,,,,,,,,,,,,,,,,,,,,,,,,,,,,
,134423588053,CBA,14/06/2002,001,2023-03-22_21h12.11.926,OS3_Mult_verification,2022.2.4,Win32,60.84945844,,,,,,,,,,,,,,,,,,,,,,,,,,,,,,,,,,,,,691728,11.2056,0,"[""6"",""9"",""1"",""7"",""2"",""8"",""return""]","[0.5335000000000036,1.1191999999880409,1.8489999999999327,2.6692999999820586,10.305699999988065,10.475799999982087,11.17819999998801]",,,,,,7,6917428,Audio/6917428.mp3,WAIS,0,0,0,0,1,,,,,,,,,,,,,,,,,,,,,,,,,,,,,,,,,,,,,,,,,,,,,,,,,,,,,,,,,,,,,,,,,,,,,,,,,,,,,,,,,,,,,,,,,,,,,,,,,,,,,,,,,,,,,,,,,,,,,,,
,134423588053,CBA,14/06/2002,001,2023-03-22_21h12.11.926,OS3_Mult_verification,2022.2.4,Win32,60.84945844,,,,,,,,,,,,,,,,,,,,,,,,,,,,,,,,,,,,,4179386,4.7784,1,"[""4"",""1"",""7"",""9"",""3"",""8"",""6"",""return""]","[1.0671999999881336,1.2667999999821404,1.4765999999940504,1.7324000000060096,2.931299999982116,3.5805999999940923,4.247299999982147,4.746599999994032]",,,,,,7,4179386,Audio/4179386.mp3,WAIS,0,1,1,1,1,,,,,,,,,,,,,,,,,,,,,,,,,,,,,,,,,,,,,,,,,,,,,,,,,,,,,,,,,,,,,,,,,,,,,,,,,,,,,,,,,,,,,,,,,,,,,,,,,,,,,,,,,,,,,,,,,,,,,,,
,134423588053,CBA,14/06/2002,001,2023-03-22_21h12.11.926,OS3_Mult_verification,2022.2.4,Win32,60.84945844,,,,,,,,,,,,,,,,,,,,,,,,,,,,,,,,,,,,,,,,,,,,,,,,,,,,,,,,0,5,5,5,1,digitSpan_stim/sevenWAIS.xlsx,,,,,,,,,,,,,,,,,,,,,,,,,,,,,,,,,,,,,,,,,,,,,,,,,,,,,,,,,,,,,,,,,,,,,,,,,,,,,,,,,,,,,,,,,,,,,,,,,,,,,,,,,,,,,,,,,
,134423588053,CBA,14/06/2002,001,2023-03-22_21h12.11.926,OS3_Mult_verification,2022.2.4,Win32,60.84945844,,,,,,,,,,,,,,,,,,,,,,,,,,,,,,,,,,,,,38297384,5.6117,0,"[""3"",""8"",""2"",""9"",""7"",""3"",""8"",""4"",""return""]","[1.4864000000060287,1.686300000012011,2.083099999994033,2.4828000000119346,3.155199999988099,4.217800000011948,4.898099999994088,5.397099999994111,5.579300000011926]",,,,,,8,38296174,Audio/38296174.mp3,WAIS,0,0,0,0,1,,,,,,,,,,,,,,,,,,,,,,,,,,,,,,,,,,,,,,,,,,,,,,,,,,,,,,,,,,,,,,,,,,,,,,,,,,,,,,,,,,,,,,,,,,,,,,,,,,,,,,,,,,,,,,,,,,,,,,,
,134423588053,CBA,14/06/2002,001,2023-03-22_21h12.11.926,OS3_Mult_verification,2022.2.4,Win32,60.84945844,,,,,,,,,,,,,,,,,,,,,,,,,,,,,,,,,,,,,5813267,4.7222,0,"[""5"",""8"",""1"",""3"",""2"",""6"",""7"",""return""]","[1.1833000000118545,1.5500999999940177,1.816000000000031,2.149099999994064,2.6825999999940677,3.414699999988102,3.6309000000059086,4.6885999999940395]",,,,,,8,58132647,Audio/58132647.mp3,WAIS,0,1,1,1,1,,,,,,,,,,,,,,,,,,,,,,,,,,,,,,,,,,,,,,,,,,,,,,,,,,,,,,,,,,,,,,,,,,,,,,,,,,,,,,,,,,,,,,,,,,,,,,,,,,,,,,,,,,,,,,,,,,,,,,,
,134423588053,CBA,14/06/2002,001,2023-03-22_21h12.11.926,OS3_Mult_verification,2022.2.4,Win32,60.84945844,,,,,,,,,,,,,,,,,,,,,,,,,,,,,,,,,,,,,,,,,,,,,,,WAIS,,,,,,,,,,,,,,,0,0,0,1,1,digitSpan_stim/WAIS.xlsx,,,,,,,,,,,,,,,,,,,,,,,,,,,,,,,,,,,,,,,,,,,,,,,,,,,,,,,,,,,,,,,,,,,,,,,,,,,,,,,,,,,,,,,,,,,,,,,,,,,,,,,,,,,
,134423588053,CBA,14/06/2002,001,2023-03-22_21h12.11.926,OS3_Mult_verification,2022.2.4,Win32,60.84945844,,,,,,,,,,,,,,,,,,,,,,,,,,,,,,,,,,,,,46,1.1389,1,"[""4"",""6"",""return""]","[0.6648000000119509,0.9843000000120128,1.1003000000119982]",,,,,,2,46,Audio/46.mp3,EGNER,0,0,0,0,1,,,,,,,,,,,,,,,,,,,,,,,,,,,,,,,,,,,,,,,,,,,,,,,,,,,,,,,,,,,,,,,,,,,,,,,,,,,,,,,,,,,,,,,,,,,,,,,,,,,,,,,,,,,,,,,,,,,,,,,
,134423588053,CBA,14/06/2002,001,2023-03-22_21h12.11.926,OS3_Mult_verification,2022.2.4,Win32,60.84945844,,,,,,,,,,,,,,,,,,,,,,,,,,,,,,,,,,,,,82,0.9982,1,"[""8"",""2"",""return""]","[0.5325000000000273,0.6853000000119209,0.9641000000237909]",,,,,,2,82,Audio/82.mp3,EGNER,0,1,1,1,1,,,,,,,,,,,,,,,,,,,,,,,,,,,,,,,,,,,,,,,,,,,,,,,,,,,,,,,,,,,,,,,,,,,,,,,,,,,,,,,,,,,,,,,,,,,,,,,,,,,,,,,,,,,,,,,,,,,,,,,
,134423588053,CBA,14/06/2002,001,2023-03-22_21h12.11.926,OS3_Mult_verification,2022.2.4,Win32,60.84945844,,,,,,,,,,,,,,,,,,,,,,,,,,,,,,,,,,,,,,,,,,,,,,,,,,,,,,,,0,0,0,0,1,digitSpan_stim/twoAudio.xlsx,,,,,,,,,,,,,,,,,,,,,,,,,,,,,,,,,,,,,,,,,,,,,,,,,,,,,,,,,,,,,,,,,,,,,,,,,,,,,,,,,,,,,,,,,,,,,,,,,,,,,,,,,,,,,,,,,
,134423588053,CBA,14/06/2002,001,2023-03-22_21h12.11.926,OS3_Mult_verification,2022.2.4,Win32,60.84945844,,,,,,,,,,,,,,,,,,,,,,,,,,,,,,,,,,,,,157,1.4312,1,"[""1"",""5"",""7"",""return""]","[0.5336999999880163,0.915599999994015,1.0181999999880418,1.3996999999880018]",,,,,,3,157,Audio/157.mp3,EGNER,0,0,0,0,1,,,,,,,,,,,,,,,,,,,,,,,,,,,,,,,,,,,,,,,,,,,,,,,,,,,,,,,,,,,,,,,,,,,,,,,,,,,,,,,,,,,,,,,,,,,,,,,,,,,,,,,,,,,,,,,,,,,,,,,
,134423588053,CBA,14/06/2002,001,2023-03-22_21h12.11.926,OS3_Mult_verification,2022.2.4,Win32,60.84945844,,,,,,,,,,,,,,,,,,,,,,,,,,,,,,,,,,,,,397,1.4139,1,"[""3"",""9"",""7"",""return""]","[0.7345999999940886,0.869900000006055,1.040200000017876,1.382900000005975]",,,,,,3,397,Audio/397.mp3,EGNER,0,1,1,1,1,,,,,,,,,,,,,,,,,,,,,,,,,,,,,,,,,,,,,,,,,,,,,,,,,,,,,,,,,,,,,,,,,,,,,,,,,,,,,,,,,,,,,,,,,,,,,,,,,,,,,,,,,,,,,,,,,,,,,,,
,134423588053,CBA,14/06/2002,001,2023-03-22_21h12.11.926,OS3_Mult_verification,2022.2.4,Win32,60.84945844,,,,,,,,,,,,,,,,,,,,,,,,,,,,,,,,,,,,,,,,,,,,,,,,,,,,,,,,0,1,1,1,1,digitSpan_stim/threeAudio.xlsx,,,,,,,,,,,,,,,,,,,,,,,,,,,,,,,,,,,,,,,,,,,,,,,,,,,,,,,,,,,,,,,,,,,,,,,,,,,,,,,,,,,,,,,,,,,,,,,,,,,,,,,,,,,,,,,,,
,134423588053,CBA,14/06/2002,001,2023-03-22_21h12.11.926,OS3_Mult_verification,2022.2.4,Win32,60.84945844,,,,,,,,,,,,,,,,,,,,,,,,,,,,,,,,,,,,,6352,1.498,1,"[""6"",""3"",""5"",""2"",""return""]","[0.5669000000060578,0.7986999999881164,0.9825999999941359,1.1668000000120173,1.4696999999881655]",,,,,,4,6352,Audio/6352.mp3,EGNER,0,0,0,0,1,,,,,,,,,,,,,,,,,,,,,,,,,,,,,,,,,,,,,,,,,,,,,,,,,,,,,,,,,,,,,,,,,,,,,,,,,,,,,,,,,,,,,,,,,,,,,,,,,,,,,,,,,,,,,,,,,,,,,,,
,134423588053,CBA,14/06/2002,001,2023-03-22_21h12.11.926,OS3_Mult_verification,2022.2.4,Win32,60.84945844,,,,,,,,,,,,,,,,,,,,,,,,,,,,,,,,,,,,,9184,1.7317,1,"[""9"",""1"",""8"",""4"",""return""]","[0.5726999999880036,0.8003999999760936,0.9838999999761882,1.5173999999761918,1.6998999999760827]",,,,,,4,9184,Audio/9184.mp3,EGNER,0,1,1,1,1,,,,,,,,,,,,,,,,,,,,,,,,,,,,,,,,,,,,,,,,,,,,,,,,,,,,,,,,,,,,,,,,,,,,,,,,,,,,,,,,,,,,,,,,,,,,,,,,,,,,,,,,,,,,,,,,,,,,,,,
,134423588053,CBA,14/06/2002,001,2023-03-22_21h12.11.926,OS3_Mult_verification,2022.2.4,Win32,60.84945844,,,,,,,,,,,,,,,,,,,,,,,,,,,,,,,,,,,,,,,,,,,,,,,,,,,,,,,,0,2,2,2,1,digitSpan_stim/fourAudio.xlsx,,,,,,,,,,,,,,,,,,,,,,,,,,,,,,,,,,,,,,,,,,,,,,,,,,,,,,,,,,,,,,,,,,,,,,,,,,,,,,,,,,,,,,,,,,,,,,,,,,,,,,,,,,,,,,,,,
,134423588053,CBA,14/06/2002,001,2023-03-22_21h12.11.926,OS3_Mult_verification,2022.2.4,Win32,60.84945844,,,,,,,,,,,,,,,,,,,,,,,,,,,,,,,,,,,,,59281,2.1316,1,"[""5"",""9"",""2"",""8"",""1"",""return""]","[0.6667000000178405,0.9497000000178559,1.4260000000000446,1.7158000000118818,1.9158000000119273,2.0879999999999654]",,,,,,5,59281,Audio/59281.mp3,EGNER,0,0,0,0,1,,,,,,,,,,,,,,,,,,,,,,,,,,,,,,,,,,,,,,,,,,,,,,,,,,,,,,,,,,,,,,,,,,,,,,,,,,,,,,,,,,,,,,,,,,,,,,,,,,,,,,,,,,,,,,,,,,,,,,,
,134423588053,CBA,14/06/2002,001,2023-03-22_21h12.11.926,OS3_Mult_verification,2022.2.4,Win32,60.84945844,,,,,,,,,,,,,,,,,,,,,,,,,,,,,,,,,,,,,64728,2.6862,0,"[""6"",""4"",""7"",""2"",""8"",""return""]","[0.6326000000238992,0.83299999999997,0.9835000000000491,1.632900000005975,1.8507000000179232,2.638100000023883]",,,,,,5,64738,Audio/64738.mp3,EGNER,0,1,1,1,1,,,,,,,,,,,,,,,,,,,,,,,,,,,,,,,,,,,,,,,,,,,,,,,,,,,,,,,,,,,,,,,,,,,,,,,,,,,,,,,,,,,,,,,,,,,,,,,,,,,,,,,,,,,,,,,,,,,,,,,
,134423588053,CBA,14/06/2002,001,2023-03-22_21h12.11.926,OS3_Mult_verification,2022.2.4,Win32,60.84945844,,,,,,,,,,,,,,,,,,,,,,,,,,,,,,,,,,,,,,,,,,,,,,,,,,,,,,,,0,3,3,3,1,digitSpan_stim/fiveAudio.xlsx,,,,,,,,,,,,,,,,,,,,,,,,,,,,,,,,,,,,,,,,,,,,,,,,,,,,,,,,,,,,,,,,,,,,,,,,,,,,,,,,,,,,,,,,,,,,,,,,,,,,,,,,,,,,,,,,,
,134423588053,CBA,14/06/2002,001,2023-03-22_21h12.11.926,OS3_Mult_verification,2022.2.4,Win32,60.84945844,,,,,,,,,,,,,,,,,,,,,,,,,,,,,,,,,,,,,396172,2.8968,1,"[""3"",""9"",""6"",""1"",""7"",""2"",""return""]","[0.6309000000059086,0.8716999999880954,1.16599999999994,1.7702999999820577,2.172199999988038,2.7156999999880327,2.8644000000059577]",,,,,,6,396172,Audio/396172.mp3,EGNER,0,0,0,0,1,,,,,,,,,,,,,,,,,,,,,,,,,,,,,,,,,,,,,,,,,,,,,,,,,,,,,,,,,,,,,,,,,,,,,,,,,,,,,,,,,,,,,,,,,,,,,,,,,,,,,,,,,,,,,,,,,,,,,,,
,134423588053,CBA,14/06/2002,001,2023-03-22_21h12.11.926,OS3_Mult_verification,2022.2.4,Win32,60.84945844,,,,,,,,,,,,,,,,,,,,,,,,,,,,,,,,,,,,,594631,3.6958,1,"[""5"",""9"",""4"",""6"",""3"",""1"",""return""]","[0.8161999999880436,1.0690999999940232,1.4495999999940068,1.6852999999820213,2.9506999999880463,3.4669000000059214,3.661699999988059]",,,,,,6,594631,Audio/594631.mp3,EGNER,0,1,1,1,1,,,,,,,,,,,,,,,,,,,,,,,,,,,,,,,,,,,,,,,,,,,,,,,,,,,,,,,,,,,,,,,,,,,,,,,,,,,,,,,,,,,,,,,,,,,,,,,,,,,,,,,,,,,,,,,,,,,,,,,
,134423588053,CBA,14/06/2002,001,2023-03-22_21h12.11.926,OS3_Mult_verification,2022.2.4,Win32,60.84945844,,,,,,,,,,,,,,,,,,,,,,,,,,,,,,,,,,,,,,,,,,,,,,,,,,,,,,,,0,4,4,4,1,digitSpan_stim/sixAudio.xlsx,,,,,,,,,,,,,,,,,,,,,,,,,,,,,,,,,,,,,,,,,,,,,,,,,,,,,,,,,,,,,,,,,,,,,,,,,,,,,,,,,,,,,,,,,,,,,,,,,,,,,,,,,,,,,,,,,
,134423588053,CBA,14/06/2002,001,2023-03-22_21h12.11.926,OS3_Mult_verification,2022.2.4,Win32,60.84945844,,,,,,,,,,,,,,,,,,,,,,,,,,,,,,,,,,,,,824973,5.7115,0,"[""8"",""2"",""4"",""9"",""7"",""3"",""return""]","[1.613200000017855,2.1463000000119337,3.052500000000009,3.528400000005945,4.060999999999922,5.510599999994042,5.679200000017886]",,,,,,7,8241973,Audio/8241973.mp3,EGNER,0,0,0,0,1,,,,,,,,,,,,,,,,,,,,,,,,,,,,,,,,,,,,,,,,,,,,,,,,,,,,,,,,,,,,,,,,,,,,,,,,,,,,,,,,,,,,,,,,,,,,,,,,,,,,,,,,,,,,,,,,,,,,,,,
,134423588053,CBA,14/06/2002,001,2023-03-22_21h12.11.926,OS3_Mult_verification,2022.2.4,Win32,60.84945844,,,,,,,,,,,,,,,,,,,,,,,,,,,,,,,,,,,,,281437,4.4956,0,"[""2"",""8"",""1"",""4"",""3"",""7"",""return""]","[1.8825999999939995,2.0996999999880472,2.3656999999881236,2.782599999993977,3.5810999999940805,4.064599999994016,4.453599999994026]",,,,,,7,2814367,Audio/2814367.mp3,EGNER,0,1,1,1,1,,,,,,,,,,,,,,,,,,,,,,,,,,,,,,,,,,,,,,,,,,,,,,,,,,,,,,,,,,,,,,,,,,,,,,,,,,,,,,,,,,,,,,,,,,,,,,,,,,,,,,,,,,,,,,,,,,,,,,,
,134423588053,CBA,14/06/2002,001,2023-03-22_21h12.11.926,OS3_Mult_verification,2022.2.4,Win32,60.84945844,,,,,,,,,,,,,,,,,,,,,,,,,,,,,,,,,,,,,,,,,,,,,,,Egner,,,,,,,,,,,,,,,0,1,1,0,1,digitSpan_stim/Egner.xlsx,,,,,,,,,,,,,,,,,,,,,,,,,,,,,,,,,,,,,,,,,,,,,,,,,,,,,,,,,,,,,,,,,,,,,,,,,,,,,,,,,,,,,,,,,,,,,,,,,,,,,,,,,,,
,134423588053,CBA,14/06/2002,001,2023-03-22_21h12.11.926,OS3_Mult_verification,2022.2.4,Win32,60.84945844,,,,,,,,,,,,,,,,,,,,,,,,,,,,,,,,,,,,,,,,,,,,,,,,,,,,,,,,,,,,,,,,,,,,0,0,0,0,1,,,,,,,,,,,,,,,,,,,,,,,,,,,,,,,,,,,,,,,,,,,,,,,,,,,,,,,,,,,,,,,,,,,,,,,,,,,,,,,,,,,,,,,,,,,,,,,,,,,,,,
,134423588053,CBA,14/06/2002,001,2023-03-22_21h12.11.926,OS3_Mult_verification,2022.2.4,Win32,60.84945844,,,,,,,,,,,,,,,,,,,,,,,,,,,,,,,,,,,,,,,,,,,,,,,,,,,,,,,,,,,,,,,,,,,,,,,,,0,0,0,0,1,0,0,1,,,,,,,,,,,,,,,,,,,,,,,,,,,,,,,,,,,,,,,,,,,,,,,,,,,,,,,,,,,,,,,,,,,,,,,,,,,,,,,,,,,,,,,,,,,,,,
,134423588053,CBA,14/06/2002,001,2023-03-22_21h12.11.926,OS3_Mult_verification,2022.2.4,Win32,60.84945844,,,,,,,,,,,,,,,,space,1.8189,,,,,,,,,,,,,,,,,,,,,,,,,,,,,,,,,,,,,,,,,,,,,,,,,,,,,,,,,,,,,,,,TRUE,2.9559,0.051851838,-0.333333333,1,0,0,0,0,0,0,1,practice trial,,3,3,,,,,,,,,,,,,,,,,,,,,,,,,,,,,,,,,,,,,,,,,,,,,,,,,,,,,,,,,,,,,,,,,,,,,,,,,,,,,,
,134423588053,CBA,14/06/2002,001,2023-03-22_21h12.11.926,OS3_Mult_verification,2022.2.4,Win32,60.84945844,,,,,,,,,,,,,,,,,,,,,,,,,,,,,,,,,,,,,,,,,,,,,,,,,,,,,,,,,,,,,,,,,,,,,,,,,,,,,,,,,TRUE,2.1808,0.049074102,-0.319444444,1,0,0,0,1,1,2,1,practice trial,,3,3,,,,,,,,,,,,,,,,,,,,,,,,,,,,,,,,,,,,,,,,,,,,,,,,,,,,,,,,,,,,,,,,,,,,,,,,,,,,,,
,134423588053,CBA,14/06/2002,001,2023-03-22_21h12.11.926,OS3_Mult_verification,2022.2.4,Win32,60.84945844,,,,,,,,,,,,,,,,,,,,,,,,,,,,,,,,,,,,,,,,,,,,,,,,,,,,,,,,,,,,,,,,,,,,,,,,,,,,,,,,,TRUE,1.6473,0.035185213,-0.317592621,1,0,0,0,2,2,1,1,practice trial,,3,3,,,,,,,,,,,,,,,,,,,,,,,,,,,,,,,,,,,,,,,,,,,,,,,,,,,,,,,,,,,,,,,,,,,,,,,,,,,,,,
,134423588053,CBA,14/06/2002,001,2023-03-22_21h12.11.926,OS3_Mult_verification,2022.2.4,Win32,60.84945844,,,,,,,,,,,,,,,,,,,,,,,,,,,,,,,,,,,,,,,,,,,,,,,,,,,,,,,,,,,,,,,,,,,,,,,,,,,,,,,,,TRUE,1.2153,0.016666695,-0.337962963,1,0,0,,,,,,Trial #1,,2,2,0,0,0,0,1,2,,,,,,,,,,,,,,,,,,,,,,,,,,,,,,,,,,,,,,,,,,,,,,,,,,,,,,,,,,,,,,,,,,,,,,,,
,134423588053,CBA,14/06/2002,001,2023-03-22_21h12.11.926,OS3_Mult_verification,2022.2.4,Win32,60.84945844,,,,,,,,,,,,,,,,,,,,,,,,,,,,,,,,,,,,,,,,,,,,,,,,,,,,,,,,,,,,,,,,,,,,,,,,,,,,,,,,,TRUE,1.1152,0.031481496,-0.350000028,1,0,0,,,,,,Trial #1,,2,2,0,1,1,1,1,2,,,,,,,,,,,,,,,,,,,,,,,,,,,,,,,,,,,,,,,,,,,,,,,,,,,,,,,,,,,,,,,,,,,,,,,,
,134423588053,CBA,14/06/2002,001,2023-03-22_21h12.11.926,OS3_Mult_verification,2022.2.4,Win32,60.84945844,,,,,,,,,,,,,,,,,,,,,,,,,,,,,,,,,,,,,,,,,,,,,,,,,,,,,,,,,,,,,,,,,,,,,,,,,,,,,,,,,TRUE,1.1485,0,-0.337037051,1,0,0,,,,,,Trial #1,,2,2,0,2,2,2,1,2,,,,,,,,,,,,,,,,,,,,,,,,,,,,,,,,,,,,,,,,,,,,,,,,,,,,,,,,,,,,,,,,,,,,,,,,
,134423588053,CBA,14/06/2002,001,2023-03-22_21h12.11.926,OS3_Mult_verification,2022.2.4,Win32,60.84945844,,,,,,,,,,,,,,,,,,,,,,,,,,,,,,,,,,,,,,,,,,,,,,,,,,,,,,,,,,,,,,,,,,,,,,,,,,,,,,,,,TRUE,1.3308,0.079629616,-0.380555541,1,0,0,,,,,,Trial #2,,3,3,0,0,0,0,1,3,,,,,,,,,,,,,,,,,,,,,,,,,,,,,,,,,,,,,,,,,,,,,,,,,,,,,,,,,,,,,,,,,,,,,,,,
,134423588053,CBA,14/06/2002,001,2023-03-22_21h12.11.926,OS3_Mult_verification,2022.2.4,Win32,60.84945844,,,,,,,,,,,,,,,,,,,,,,,,,,,,,,,,,,,,,,,,,,,,,,,,,,,,,,,,,,,,,,,,,,,,,,,,,,,,,,,,,TRUE,1.3318,0.058333362,-0.32685188,1,0,0,,,,,,Trial #2,,3,3,0,1,1,1,1,3,,,,,,,,,,,,,,,,,,,,,,,,,,,,,,,,,,,,,,,,,,,,,,,,,,,,,,,,,,,,,,,,,,,,,,,,
,134423588053,CBA,14/06/2002,001,2023-03-22_21h12.11.926,OS3_Mult_verification,2022.2.4,Win32,60.84945844,,,,,,,,,,,,,,,,,,,,,,,,,,,,,,,,,,,,,,,,,,,,,,,,,,,,,,,,,,,,,,,,,,,,,,,,,,,,,,,,,TRUE,2.015,0.053703732,-0.358333376,1,0,0,,,,,,Trial #2,,3,3,0,2,2,2,1,3,,,,,,,,,,,,,,,,,,,,,,,,,,,,,,,,,,,,,,,,,,,,,,,,,,,,,,,,,,,,,,,,,,,,,,,,
,134423588053,CBA,14/06/2002,001,2023-03-22_21h12.11.926,OS3_Mult_verification,2022.2.4,Win32,60.84945844,,,,,,,,,,,,,,,,,,,,,,,,,,,,,,,,,,,,,,,,,,,,,,,,,,,,,,,,,,,,,,,,,,,,,,,,,,,,,,,,,TRUE,2.0975,0.032407407,-0.332407422,1,0,0,,,,,,Trial #3,,3,3,0,0,0,0,1,4,,,,,,,,,,,,,,,,,,,,,,,,,,,,,,,,,,,,,,,,,,,,,,,,,,,,,,,,,,,,,,,,,,,,,,,,
,134423588053,CBA,14/06/2002,001,2023-03-22_21h12.11.926,OS3_Mult_verification,2022.2.4,Win32,60.84945844,,,,,,,,,,,,,,,,,,,,,,,,,,,,,,,,,,,,,,,,,,,,,,,,,,,,,,,,,,,,,,,,,,,,,,,,,,,,,,,,,TRUE,1.8975,0.021296325,-0.327777792,1,0,0,,,,,,Trial #3,,3,3,0,1,1,1,1,4,,,,,,,,,,,,,,,,,,,,,,,,,,,,,,,,,,,,,,,,,,,,,,,,,,,,,,,,,,,,,,,,,,,,,,,,
,134423588053,CBA,14/06/2002,001,2023-03-22_21h12.11.926,OS3_Mult_verification,2022.2.4,Win32,60.84945844,,,,,,,,,,,,,,,,,,,,,,,,,,,,,,,,,,,,,,,,,,,,,,,,,,,,,,,,,,,,,,,,,,,,,,,,,,,,,,,,,TRUE,1.8815,0.021296325,-0.319444444,1,0,0,,,,,,Trial #3,,3,3,0,2,2,2,1,4,,,,,,,,,,,,,,,,,,,,,,,,,,,,,,,,,,,,,,,,,,,,,,,,,,,,,,,,,,,,,,,,,,,,,,,,
,134423588053,CBA,14/06/2002,001,2023-03-22_21h12.11.926,OS3_Mult_verification,2022.2.4,Win32,60.84945844,,,,,,,,,,,,,,,,,,,,,,,,,,,,,,,,,,,,,,,,,,,,,,,,,,,,,,,,,,,,,,,,,,,,,,,,,,,,,,,,,TRUE,2.0978,-0.022222236,-0.341666681,1,0,0,,,,,,Trial #4,,4,4,0,0,0,0,1,5,,,,,,,,,,,,,,,,,,,,,,,,,,,,,,,,,,,,,,,,,,,,,,,,,,,,,,,,,,,,,,,,,,,,,,,,
,134423588053,CBA,14/06/2002,001,2023-03-22_21h12.11.926,OS3_Mult_verification,2022.2.4,Win32,60.84945844,,,,,,,,,,,,,,,,,,,,,,,,,,,,,,,,,,,,,,,,,,,,,,,,,,,,,,,,,,,,,,,,,,,,,,,,,,,,,,,,,TRUE,2.0142,-0.010185171,-0.318518533,1,0,0,,,,,,Trial #4,,4,4,0,1,1,1,1,5,,,,,,,,,,,,,,,,,,,,,,,,,,,,,,,,,,,,,,,,,,,,,,,,,,,,,,,,,,,,,,,,,,,,,,,,
,134423588053,CBA,14/06/2002,001,2023-03-22_21h12.11.926,OS3_Mult_verification,2022.2.4,Win32,60.84945844,,,,,,,,,,,,,,,,,,,,,,,,,,,,,,,,,,,,,,,,,,,,,,,,,,,,,,,,,,,,,,,,,,,,,,,,,,,,,,,,,TRUE,1.8151,-0.023148148,-0.32685188,1,0,0,,,,,,Trial #4,,4,4,0,2,2,2,1,5,,,,,,,,,,,,,,,,,,,,,,,,,,,,,,,,,,,,,,,,,,,,,,,,,,,,,,,,,,,,,,,,,,,,,,,,
,134423588053,CBA,14/06/2002,001,2023-03-22_21h12.11.926,OS3_Mult_verification,2022.2.4,Win32,60.84945844,,,,,,,,,,,,,,,,,,,,,,,,,,,,,,,,,,,,,,,,,,,,,,,,,,,,,,,,,,,,,,,,,,,,,,,,,,,,,,,,,TRUE,3.1035,0.05277782,-0.323148162,1,0,0,,,,,,Trial #5,,4,4,0,0,0,0,1,6,,,,,,,,,,,,,,,,,,,,,,,,,,,,,,,,,,,,,,,,,,,,,,,,,,,,,,,,,,,,,,,,,,,,,,,,
,134423588053,CBA,14/06/2002,001,2023-03-22_21h12.11.926,OS3_Mult_verification,2022.2.4,Win32,60.84945844,,,,,,,,,,,,,,,,,,,,,,,,,,,,,,,,,,,,,,,,,,,,,,,,,,,,,,,,,,,,,,,,,,,,,,,,,,,,,,,,,TRUE,2.2475,0.066666709,-0.344444487,1,0,0,,,,,,Trial #5,,4,4,0,1,1,1,1,6,,,,,,,,,,,,,,,,,,,,,,,,,,,,,,,,,,,,,,,,,,,,,,,,,,,,,,,,,,,,,,,,,,,,,,,,
,134423588053,CBA,14/06/2002,001,2023-03-22_21h12.11.926,OS3_Mult_verification,2022.2.4,Win32,60.84945844,,,,,,,,,,,,,,,,,,,,,,,,,,,,,,,,,,,,,,,,,,,,,,,,,,,,,,,,,,,,,,,,,,,,,,,,,,,,,,,,,TRUE,2.321,0.025925954,-0.35092594,1,0,0,,,,,,Trial #5,,4,4,0,2,2,2,1,6,,,,,,,,,,,,,,,,,,,,,,,,,,,,,,,,,,,,,,,,,,,,,,,,,,,,,,,,,,,,,,,,,,,,,,,,
,134423588053,CBA,14/06/2002,001,2023-03-22_21h12.11.926,OS3_Mult_verification,2022.2.4,Win32,60.84945844,,,,,,,,,,,,,,,,,,,,,,,,,,,,,,,,,,,,,,,,,,,,,,,,,,,,,,,,,,,,,,,,,,,,,,,,,,,,,,,,,TRUE,3.0967,0.109259288,-0.33148151,1,0,0,,,,,,Trial #6,,4,4,0,0,0,0,1,7,,,,,,,,,,,,,,,,,,,,,,,,,,,,,,,,,,,,,,,,,,,,,,,,,,,,,,,,,,,,,,,,,,,,,,,,
,134423588053,CBA,14/06/2002,001,2023-03-22_21h12.11.926,OS3_Mult_verification,2022.2.4,Win32,60.84945844,,,,,,,,,,,,,,,,,,,,,,,,,,,,,,,,,,,,,,,,,,,,,,,,,,,,,,,,,,,,,,,,,,,,,,,,,,,,,,,,,TRUE,2.764,0.037037037,-0.33148151,1,0,0,,,,,,Trial #6,,4,4,0,1,1,1,1,7,,,,,,,,,,,,,,,,,,,,,,,,,,,,,,,,,,,,,,,,,,,,,,,,,,,,,,,,,,,,,,,,,,,,,,,,
,134423588053,CBA,14/06/2002,001,2023-03-22_21h12.11.926,OS3_Mult_verification,2022.2.4,Win32,60.84945844,,,,,,,,,,,,,,,,,,,,,,,,,,,,,,,,,,,,,,,,,,,,,,,,,,,,,,,,,,,,,,,,,,,,,,,,,,,,,,,,,TRUE,2.5203,0.017592607,-0.364814829,1,0,0,,,,,,Trial #6,,4,4,0,2,2,2,1,7,,,,,,,,,,,,,,,,,,,,,,,,,,,,,,,,,,,,,,,,,,,,,,,,,,,,,,,,,,,,,,,,,,,,,,,,
,134423588053,CBA,14/06/2002,001,2023-03-22_21h12.11.926,OS3_Mult_verification,2022.2.4,Win32,60.84945844,,,,,,,,,,,,,,,,,,,,,,,,,,,,,,,,,,,,,,,,,,,,,,,,,,,,,,,,,,,,,,,,,,,,,,,,,,,,,,,,,FALSE,2.4047,0.034259302,-0.312037079,1,0,0,,,,,,Trial #7,,4,4,0,0,0,0,1,8,,,,,,,,,,,,,,,,,,,,,,,,,,,,,,,,,,,,,,,,,,,,,,,,,,,,,,,,,,,,,,,,,,,,,,,,
,134423588053,CBA,14/06/2002,001,2023-03-22_21h12.11.926,OS3_Mult_verification,2022.2.4,Win32,60.84945844,,,,,,,,,,,,,,,,,,,,,,,,,,,,,,,,,,,,,,,,,,,,,,,,,,,,,,,,,,,,,,,,,,,,,,,,,,,,,,,,,FALSE,2.9294,-0.06759255,-0.332407422,1,0,0,,,,,,Trial #7,,4,4,0,1,1,1,1,8,,,,,,,,,,,,,,,,,,,,,,,,,,,,,,,,,,,,,,,,,,,,,,,,,,,,,,,,,,,,,,,,,,,,,,,,
,134423588053,CBA,14/06/2002,001,2023-03-22_21h12.11.926,OS3_Mult_verification,2022.2.4,Win32,60.84945844,,,,,,,,,,,,,,,,,,,,,,,,,,,,,,,,,,,,,,,,,,,,,,,,,,,,,,,,,,,,,,,,,,,,,,,,,,,,,,,,,TRUE,4.145,0.050000014,-0.324074074,1,0,0,,,,,,Trial #7,,4,4,0,2,2,2,1,8,,,,,,,,,,,,,,,,,,,,,,,,,,,,,,,,,,,,,,,,,,,,,,,,,,,,,,,,,,,,,,,,,,,,,,,,
,134423588053,CBA,14/06/2002,001,2023-03-22_21h12.11.926,OS3_Mult_verification,2022.2.4,Win32,60.84945844,,,,,,,,,,,,,,,,,,,,,,,,,,,,,,,,,,,,,,,,,,,,,,,,,,,,,,,,,,,,,,,,,,,,,,,,,,,,,,,,,,,,,,,,,,,,,,,,,,,,,,,0,0,0,0,1,,,,,,,,,,,,,,,,,,,,,,,,,,,,,,,,,,,,,,,,,,,,,,,,,,,,,,,,,,,,,,,,,,,
,134423588053,CBA,14/06/2002,001,2023-03-22_21h12.11.926,OS3_Mult_verification,2022.2.4,Win32,60.84945844,,,,,,,,,,,,,,,,,,,,,,,,,,,,,,,,,,,,,,,,,,,,,,,,,,,,,,,,,,,,,,,,,,,,,,,,,0,1,1,1,1,0,1,0,,,,,,,,,,,,,,,,,,,,,,,,,,,,,,,,,,,,,,,,,,,,,,,,,,,,,,,,,,,,,,,,,,,,,,,,,,,,,,,,,,,,,,,,,,,,,,
,134423588053,CBA,14/06/2002,001,2023-03-22_21h12.11.926,OS3_Mult_verification,2022.2.4,Win32,60.84945844,,,,,,,,,,,,,,,,space,1.8643,,,,,,,,,,,,,,,,,,,,,,,,,,,,,,,,,,,,,,,,,,,,,,,,,,,,,,,,,,,,,,,,,,,,,,,,,,,,,,,,,,,,,,,,,,,right,1,1.1901,0,0,0,1,1,practice,7,8,7 | 8,1,0.065,0.05,incongruent,right,,,,,,,,,,,,,,,,,,,,,,,,,,,,,,,,,,,,,,,,,,,,,,,,,,
,134423588053,CBA,14/06/2002,001,2023-03-22_21h12.11.926,OS3_Mult_verification,2022.2.4,Win32,60.84945844,,,,,,,,,,,,,,,,,,,,,,,,,,,,,,,,,,,,,,,,,,,,,,,,,,,,,,,,,,,,,,,,,,,,,,,,,,,,,,,,,,,,,,,,,,,,,,,,,,,,,,,,,,,,right,1,0.5103,0,1,1,0,1,practice,1,2,1 | 2,1,0.05,0.065,congruent,right,,,,,,,,,,,,,,,,,,,,,,,,,,,,,,,,,,,,,,,,,,,,,,,,,,
,134423588053,CBA,14/06/2002,001,2023-03-22_21h12.11.926,OS3_Mult_verification,2022.2.4,Win32,60.84945844,,,,,,,,,,,,,,,,,,,,,,,,,,,,,,,,,,,,,,,,,,,,,,,,,,,,,,,,,,,,,,,,,,,,,,,,,,,,,,,,,,,,,,,,,,,,,,,,,,,,,,,,,,,,right,1,0.4457,0,2,2,2,1,practice,4,9,4 | 9,5,0.06,0.06,neutral,right,,,,,,,,,,,,,,,,,,,,,,,,,,,,,,,,,,,,,,,,,,,,,,,,,,
,134423588053,CBA,14/06/2002,001,2023-03-22_21h12.11.926,OS3_Mult_verification,2022.2.4,Win32,60.84945844,,,,,,,,,,,,,,,,,,,,,,,,,,,,,,,,,,,,,,,,,,,,,,,,,,,,,,,,,,,,,,,,,,,,,,,,,,,,,,,,,,,,,,,,,,,,,,,,,,,,,,,,,,,,right,1,0.5087,,,,,,magnitude,6,7,6 | 7,1,0.06,0.06,neutral,right,0,0,0,50,1,,,,,,,,,,,,,,,,,,,,,,,,,,,,,,,,,,,,,,,,,,,,,
,134423588053,CBA,14/06/2002,001,2023-03-22_21h12.11.926,OS3_Mult_verification,2022.2.4,Win32,60.84945844,,,,,,,,,,,,,,,,,,,,,,,,,,,,,,,,,,,,,,,,,,,,,,,,,,,,,,,,,,,,,,,,,,,,,,,,,,,,,,,,,,,,,,,,,,,,,,,,,,,,,,,,,,,,right,1,0.5471,,,,,,magnitude,1,3,1 | 3,2,0.05,0.065,congruent,right,0,1,1,8,1,,,,,,,,,,,,,,,,,,,,,,,,,,,,,,,,,,,,,,,,,,,,,
,134423588053,CBA,14/06/2002,001,2023-03-22_21h12.11.926,OS3_Mult_verification,2022.2.4,Win32,60.84945844,,,,,,,,,,,,,,,,,,,,,,,,,,,,,,,,,,,,,,,,,,,,,,,,,,,,,,,,,,,,,,,,,,,,,,,,,,,,,,,,,,,,,,,,,,,,,,,,,,,,,,,,,,,,left,1,0.5253,,,,,,magnitude,9,4,9 | 4,5,0.05,0.065,incongruent,left,0,2,2,47,1,,,,,,,,,,,,,,,,,,,,,,,,,,,,,,,,,,,,,,,,,,,,,
,134423588053,CBA,14/06/2002,001,2023-03-22_21h12.11.926,OS3_Mult_verification,2022.2.4,Win32,60.84945844,,,,,,,,,,,,,,,,,,,,,,,,,,,,,,,,,,,,,,,,,,,,,,,,,,,,,,,,,,,,,,,,,,,,,,,,,,,,,,,,,,,,,,,,,,,,,,,,,,,,,,,,,,,,left,0,0.509,,,,,,magnitude,1,2,1 | 2,1,0.065,0.05,incongruent,right,0,3,3,24,1,,,,,,,,,,,,,,,,,,,,,,,,,,,,,,,,,,,,,,,,,,,,,
,134423588053,CBA,14/06/2002,001,2023-03-22_21h12.11.926,OS3_Mult_verification,2022.2.4,Win32,60.84945844,,,,,,,,,,,,,,,,,,,,,,,,,,,,,,,,,,,,,,,,,,,,,,,,,,,,,,,,,,,,,,,,,,,,,,,,,,,,,,,,,,,,,,,,,,,,,,,,,,,,,,,,,,,,left,1,0.7915,,,,,,magnitude,4,2,4 | 2,2,0.05,0.065,incongruent,left,0,4,4,37,1,,,,,,,,,,,,,,,,,,,,,,,,,,,,,,,,,,,,,,,,,,,,,
,134423588053,CBA,14/06/2002,001,2023-03-22_21h12.11.926,OS3_Mult_verification,2022.2.4,Win32,60.84945844,,,,,,,,,,,,,,,,,,,,,,,,,,,,,,,,,,,,,,,,,,,,,,,,,,,,,,,,,,,,,,,,,,,,,,,,,,,,,,,,,,,,,,,,,,,,,,,,,,,,,,,,,,,,right,1,0.4776,,,,,,magnitude,1,3,1 | 3,2,0.06,0.06,neutral,right,0,5,5,56,1,,,,,,,,,,,,,,,,,,,,,,,,,,,,,,,,,,,,,,,,,,,,,
,134423588053,CBA,14/06/2002,001,2023-03-22_21h12.11.926,OS3_Mult_verification,2022.2.4,Win32,60.84945844,,,,,,,,,,,,,,,,,,,,,,,,,,,,,,,,,,,,,,,,,,,,,,,,,,,,,,,,,,,,,,,,,,,,,,,,,,,,,,,,,,,,,,,,,,,,,,,,,,,,,,,,,,,,right,1,0.4747,,,,,,magnitude,4,9,4 | 9,5,0.05,0.065,congruent,right,0,6,6,19,1,,,,,,,,,,,,,,,,,,,,,,,,,,,,,,,,,,,,,,,,,,,,,
,134423588053,CBA,14/06/2002,001,2023-03-22_21h12.11.926,OS3_Mult_verification,2022.2.4,Win32,60.84945844,,,,,,,,,,,,,,,,,,,,,,,,,,,,,,,,,,,,,,,,,,,,,,,,,,,,,,,,,,,,,,,,,,,,,,,,,,,,,,,,,,,,,,,,,,,,,,,,,,,,,,,,,,,,left,1,0.4973,,,,,,magnitude,7,2,7 | 2,5,0.05,0.065,incongruent,left,0,7,7,45,1,,,,,,,,,,,,,,,,,,,,,,,,,,,,,,,,,,,,,,,,,,,,,
,134423588053,CBA,14/06/2002,001,2023-03-22_21h12.11.926,OS3_Mult_verification,2022.2.4,Win32,60.84945844,,,,,,,,,,,,,,,,,,,,,,,,,,,,,,,,,,,,,,,,,,,,,,,,,,,,,,,,,,,,,,,,,,,,,,,,,,,,,,,,,,,,,,,,,,,,,,,,,,,,,,,,,,,,left,1,0.4929,,,,,,magnitude,4,2,4 | 2,2,0.06,0.06,neutral,left,0,8,8,61,1,,,,,,,,,,,,,,,,,,,,,,,,,,,,,,,,,,,,,,,,,,,,,
,134423588053,CBA,14/06/2002,001,2023-03-22_21h12.11.926,OS3_Mult_verification,2022.2.4,Win32,60.84945844,,,,,,,,,,,,,,,,,,,,,,,,,,,,,,,,,,,,,,,,,,,,,,,,,,,,,,,,,,,,,,,,,,,,,,,,,,,,,,,,,,,,,,,,,,,,,,,,,,,,,,,,,,,,left,1,0.5905,,,,,,magnitude,8,3,8 | 3,5,0.05,0.065,incongruent,left,0,9,9,46,1,,,,,,,,,,,,,,,,,,,,,,,,,,,,,,,,,,,,,,,,,,,,,
,134423588053,CBA,14/06/2002,001,2023-03-22_21h12.11.926,OS3_Mult_verification,2022.2.4,Win32,60.84945844,,,,,,,,,,,,,,,,,,,,,,,,,,,,,,,,,,,,,,,,,,,,,,,,,,,,,,,,,,,,,,,,,,,,,,,,,,,,,,,,,,,,,,,,,,,,,,,,,,,,,,,,,,,,right,1,0.5587,,,,,,magnitude,3,4,3 | 4,1,0.06,0.06,neutral,right,0,10,10,49,1,,,,,,,,,,,,,,,,,,,,,,,,,,,,,,,,,,,,,,,,,,,,,
,134423588053,CBA,14/06/2002,001,2023-03-22_21h12.11.926,OS3_Mult_verification,2022.2.4,Win32,60.84945844,,,,,,,,,,,,,,,,,,,,,,,,,,,,,,,,,,,,,,,,,,,,,,,,,,,,,,,,,,,,,,,,,,,,,,,,,,,,,,,,,,,,,,,,,,,,,,,,,,,,,,,,,,,,left,1,0.4923,,,,,,magnitude,4,3,4 | 3,1,0.06,0.06,neutral,left,0,11,11,53,1,,,,,,,,,,,,,,,,,,,,,,,,,,,,,,,,,,,,,,,,,,,,,
,134423588053,CBA,14/06/2002,001,2023-03-22_21h12.11.926,OS3_Mult_verification,2022.2.4,Win32,60.84945844,,,,,,,,,,,,,,,,,,,,,,,,,,,,,,,,,,,,,,,,,,,,,,,,,,,,,,,,,,,,,,,,,,,,,,,,,,,,,,,,,,,,,,,,,,,,,,,,,,,,,,,,,,,,left,1,0.4974,,,,,,magnitude,9,7,9 | 7,2,0.06,0.06,neutral,left,0,12,12,63,1,,,,,,,,,,,,,,,,,,,,,,,,,,,,,,,,,,,,,,,,,,,,,
,134423588053,CBA,14/06/2002,001,2023-03-22_21h12.11.926,OS3_Mult_verification,2022.2.4,Win32,60.84945844,,,,,,,,,,,,,,,,,,,,,,,,,,,,,,,,,,,,,,,,,,,,,,,,,,,,,,,,,,,,,,,,,,,,,,,,,,,,,,,,,,,,,,,,,,,,,,,,,,,,,,,,,,,,right,1,0.4401,,,,,,magnitude,3,8,3 | 8,5,0.05,0.065,congruent,right,0,13,13,18,1,,,,,,,,,,,,,,,,,,,,,,,,,,,,,,,,,,,,,,,,,,,,,
,134423588053,CBA,14/06/2002,001,2023-03-22_21h12.11.926,OS3_Mult_verification,2022.2.4,Win32,60.84945844,,,,,,,,,,,,,,,,,,,,,,,,,,,,,,,,,,,,,,,,,,,,,,,,,,,,,,,,,,,,,,,,,,,,,,,,,,,,,,,,,,,,,,,,,,,,,,,,,,,,,,,,,,,,left,1,0.4575,,,,,,magnitude,8,3,8 | 3,5,0.06,0.06,neutral,left,0,14,14,70,1,,,,,,,,,,,,,,,,,,,,,,,,,,,,,,,,,,,,,,,,,,,,,
,134423588053,CBA,14/06/2002,001,2023-03-22_21h12.11.926,OS3_Mult_verification,2022.2.4,Win32,60.84945844,,,,,,,,,,,,,,,,,,,,,,,,,,,,,,,,,,,,,,,,,,,,,,,,,,,,,,,,,,,,,,,,,,,,,,,,,,,,,,,,,,,,,,,,,,,,,,,,,,,,,,,,,,,,left,1,0.4326,,,,,,magnitude,2,1,2 | 1,1,0.06,0.06,neutral,left,0,15,15,52,1,,,,,,,,,,,,,,,,,,,,,,,,,,,,,,,,,,,,,,,,,,,,,
,134423588053,CBA,14/06/2002,001,2023-03-22_21h12.11.926,OS3_Mult_verification,2022.2.4,Win32,60.84945844,,,,,,,,,,,,,,,,,,,,,,,,,,,,,,,,,,,,,,,,,,,,,,,,,,,,,,,,,,,,,,,,,,,,,,,,,,,,,,,,,,,,,,,,,,,,,,,,,,,,,,,,,,,,right,1,0.5453,,,,,,magnitude,6,8,6 | 8,2,0.06,0.06,neutral,right,0,16,16,58,1,,,,,,,,,,,,,,,,,,,,,,,,,,,,,,,,,,,,,,,,,,,,,
,134423588053,CBA,14/06/2002,001,2023-03-22_21h12.11.926,OS3_Mult_verification,2022.2.4,Win32,60.84945844,,,,,,,,,,,,,,,,,,,,,,,,,,,,,,,,,,,,,,,,,,,,,,,,,,,,,,,,,,,,,,,,,,,,,,,,,,,,,,,,,,,,,,,,,,,,,,,,,,,,,,,,,,,,right,1,0.4455,,,,,,magnitude,4,9,4 | 9,5,0.065,0.05,incongruent,right,0,17,17,43,1,,,,,,,,,,,,,,,,,,,,,,,,,,,,,,,,,,,,,,,,,,,,,
,134423588053,CBA,14/06/2002,001,2023-03-22_21h12.11.926,OS3_Mult_verification,2022.2.4,Win32,60.84945844,,,,,,,,,,,,,,,,,,,,,,,,,,,,,,,,,,,,,,,,,,,,,,,,,,,,,,,,,,,,,,,,,,,,,,,,,,,,,,,,,,,,,,,,,,,,,,,,,,,,,,,,,,,,left,1,0.5424,,,,,,magnitude,7,6,7 | 6,1,0.05,0.065,incongruent,left,0,18,18,30,1,,,,,,,,,,,,,,,,,,,,,,,,,,,,,,,,,,,,,,,,,,,,,
,134423588053,CBA,14/06/2002,001,2023-03-22_21h12.11.926,OS3_Mult_verification,2022.2.4,Win32,60.84945844,,,,,,,,,,,,,,,,,,,,,,,,,,,,,,,,,,,,,,,,,,,,,,,,,,,,,,,,,,,,,,,,,,,,,,,,,,,,,,,,,,,,,,,,,,,,,,,,,,,,,,,,,,,,left,1,0.5113,,,,,,magnitude,9,4,9 | 4,5,0.06,0.06,neutral,left,0,19,19,71,1,,,,,,,,,,,,,,,,,,,,,,,,,,,,,,,,,,,,,,,,,,,,,
,134423588053,CBA,14/06/2002,001,2023-03-22_21h12.11.926,OS3_Mult_verification,2022.2.4,Win32,60.84945844,,,,,,,,,,,,,,,,,,,,,,,,,,,,,,,,,,,,,,,,,,,,,,,,,,,,,,,,,,,,,,,,,,,,,,,,,,,,,,,,,,,,,,,,,,,,,,,,,,,,,,,,,,,,right,1,0.4425,,,,,,magnitude,7,9,7 | 9,2,0.06,0.06,neutral,right,0,20,20,59,1,,,,,,,,,,,,,,,,,,,,,,,,,,,,,,,,,,,,,,,,,,,,,
,134423588053,CBA,14/06/2002,001,2023-03-22_21h12.11.926,OS3_Mult_verification,2022.2.4,Win32,60.84945844,,,,,,,,,,,,,,,,,,,,,,,,,,,,,,,,,,,,,,,,,,,,,,,,,,,,,,,,,,,,,,,,,,,,,,,,,,,,,,,,,,,,,,,,,,,,,,,,,,,,,,,,,,,,left,1,0.4764,,,,,,magnitude,9,4,9 | 4,5,0.065,0.05,congruent,left,0,21,21,23,1,,,,,,,,,,,,,,,,,,,,,,,,,,,,,,,,,,,,,,,,,,,,,
,134423588053,CBA,14/06/2002,001,2023-03-22_21h12.11.926,OS3_Mult_verification,2022.2.4,Win32,60.84945844,,,,,,,,,,,,,,,,,,,,,,,,,,,,,,,,,,,,,,,,,,,,,,,,,,,,,,,,,,,,,,,,,,,,,,,,,,,,,,,,,,,,,,,,,,,,,,,,,,,,,,,,,,,,left,1,0.4753,,,,,,magnitude,8,3,8 | 3,5,0.065,0.05,congruent,left,0,22,22,22,1,,,,,,,,,,,,,,,,,,,,,,,,,,,,,,,,,,,,,,,,,,,,,
,134423588053,CBA,14/06/2002,001,2023-03-22_21h12.11.926,OS3_Mult_verification,2022.2.4,Win32,60.84945844,,,,,,,,,,,,,,,,,,,,,,,,,,,,,,,,,,,,,,,,,,,,,,,,,,,,,,,,,,,,,,,,,,,,,,,,,,,,,,,,,,,,,,,,,,,,,,,,,,,,,,,,,,,,left,1,0.5097,,,,,,magnitude,6,1,6 | 1,5,0.06,0.06,neutral,left,0,23,23,68,1,,,,,,,,,,,,,,,,,,,,,,,,,,,,,,,,,,,,,,,,,,,,,
,134423588053,CBA,14/06/2002,001,2023-03-22_21h12.11.926,OS3_Mult_verification,2022.2.4,Win32,60.84945844,,,,,,,,,,,,,,,,,,,,,,,,,,,,,,,,,,,,,,,,,,,,,,,,,,,,,,,,,,,,,,,,,,,,,,,,,,,,,,,,,,,,,,,,,,,,,,,,,,,,,,,,,,,,right,1,0.6328,,,,,,magnitude,3,4,3 | 4,1,0.065,0.05,incongruent,right,0,24,24,25,1,,,,,,,,,,,,,,,,,,,,,,,,,,,,,,,,,,,,,,,,,,,,,
,134423588053,CBA,14/06/2002,001,2023-03-22_21h12.11.926,OS3_Mult_verification,2022.2.4,Win32,60.84945844,,,,,,,,,,,,,,,,,,,,,,,,,,,,,,,,,,,,,,,,,,,,,,,,,,,,,,,,,,,,,,,,,,,,,,,,,,,,,,,,,,,,,,,,,,,,,,,,,,,,,,,,,,,,right,1,0.5076,,,,,,magnitude,2,7,2 | 7,5,0.06,0.06,neutral,right,0,25,25,65,1,,,,,,,,,,,,,,,,,,,,,,,,,,,,,,,,,,,,,,,,,,,,,
,134423588053,CBA,14/06/2002,001,2023-03-22_21h12.11.926,OS3_Mult_verification,2022.2.4,Win32,60.84945844,,,,,,,,,,,,,,,,,,,,,,,,,,,,,,,,,,,,,,,,,,,,,,,,,,,,,,,,,,,,,,,,,,,,,,,,,,,,,,,,,,,,,,,,,,,,,,,,,,,,,,,,,,,,left,1,0.4778,,,,,,magnitude,3,1,3 | 1,2,0.065,0.05,congruent,left,0,26,26,12,1,,,,,,,,,,,,,,,,,,,,,,,,,,,,,,,,,,,,,,,,,,,,,
,134423588053,CBA,14/06/2002,001,2023-03-22_21h12.11.926,OS3_Mult_verification,2022.2.4,Win32,60.84945844,,,,,,,,,,,,,,,,,,,,,,,,,,,,,,,,,,,,,,,,,,,,,,,,,,,,,,,,,,,,,,,,,,,,,,,,,,,,,,,,,,,,,,,,,,,,,,,,,,,,,,,,,,,,right,1,0.4642,,,,,,magnitude,4,9,4 | 9,5,0.06,0.06,neutral,right,0,27,27,67,1,,,,,,,,,,,,,,,,,,,,,,,,,,,,,,,,,,,,,,,,,,,,,
,134423588053,CBA,14/06/2002,001,2023-03-22_21h12.11.926,OS3_Mult_verification,2022.2.4,Win32,60.84945844,,,,,,,,,,,,,,,,,,,,,,,,,,,,,,,,,,,,,,,,,,,,,,,,,,,,,,,,,,,,,,,,,,,,,,,,,,,,,,,,,,,,,,,,,,,,,,,,,,,,,,,,,,,,left,1,0.4534,,,,,,magnitude,4,3,4 | 3,1,0.065,0.05,congruent,left,0,28,28,5,1,,,,,,,,,,,,,,,,,,,,,,,,,,,,,,,,,,,,,,,,,,,,,
,134423588053,CBA,14/06/2002,001,2023-03-22_21h12.11.926,OS3_Mult_verification,2022.2.4,Win32,60.84945844,,,,,,,,,,,,,,,,,,,,,,,,,,,,,,,,,,,,,,,,,,,,,,,,,,,,,,,,,,,,,,,,,,,,,,,,,,,,,,,,,,,,,,,,,,,,,,,,,,,,,,,,,,,,right,1,0.4821,,,,,,magnitude,6,8,6 | 8,2,0.05,0.065,congruent,right,0,29,29,10,1,,,,,,,,,,,,,,,,,,,,,,,,,,,,,,,,,,,,,,,,,,,,,
,134423588053,CBA,14/06/2002,001,2023-03-22_21h12.11.926,OS3_Mult_verification,2022.2.4,Win32,60.84945844,,,,,,,,,,,,,,,,,,,,,,,,,,,,,,,,,,,,,,,,,,,,,,,,,,,,,,,,,,,,,,,,,,,,,,,,,,,,,,,,,,,,,,,,,,,,,,,,,,,,,,,,,,,,right,1,0.4773,,,,,,magnitude,7,9,7 | 9,2,0.05,0.065,congruent,right,0,30,30,11,1,,,,,,,,,,,,,,,,,,,,,,,,,,,,,,,,,,,,,,,,,,,,,
,134423588053,CBA,14/06/2002,001,2023-03-22_21h12.11.926,OS3_Mult_verification,2022.2.4,Win32,60.84945844,,,,,,,,,,,,,,,,,,,,,,,,,,,,,,,,,,,,,,,,,,,,,,,,,,,,,,,,,,,,,,,,,,,,,,,,,,,,,,,,,,,,,,,,,,,,,,,,,,,,,,,,,,,,left,1,0.449,,,,,,magnitude,3,1,3 | 1,2,0.06,0.06,neutral,left,0,31,31,60,1,,,,,,,,,,,,,,,,,,,,,,,,,,,,,,,,,,,,,,,,,,,,,
,134423588053,CBA,14/06/2002,001,2023-03-22_21h12.11.926,OS3_Mult_verification,2022.2.4,Win32,60.84945844,,,,,,,,,,,,,,,,,,,,,,,,,,,,,,,,,,,,,,,,,,,,,,,,,,,,,,,,,,,,,,,,,,,,,,,,,,,,,,,,,,,,,,,,,,,,,,,,,,,,,,,,,,,,right,1,0.4403,,,,,,magnitude,2,4,2 | 4,2,0.065,0.05,incongruent,right,0,32,32,33,1,,,,,,,,,,,,,,,,,,,,,,,,,,,,,,,,,,,,,,,,,,,,,
,134423588053,CBA,14/06/2002,001,2023-03-22_21h12.11.926,OS3_Mult_verification,2022.2.4,Win32,60.84945844,,,,,,,,,,,,,,,,,,,,,,,,,,,,,,,,,,,,,,,,,,,,,,,,,,,,,,,,,,,,,,,,,,,,,,,,,,,,,,,,,,,,,,,,,,,,,,,,,,,,,,,,,,,,left,1,0.4592,,,,,,magnitude,8,6,8 | 6,2,0.06,0.06,neutral,left,0,33,33,62,1,,,,,,,,,,,,,,,,,,,,,,,,,,,,,,,,,,,,,,,,,,,,,
,134423588053,CBA,14/06/2002,001,2023-03-22_21h12.11.926,OS3_Mult_verification,2022.2.4,Win32,60.84945844,,,,,,,,,,,,,,,,,,,,,,,,,,,,,,,,,,,,,,,,,,,,,,,,,,,,,,,,,,,,,,,,,,,,,,,,,,,,,,,,,,,,,,,,,,,,,,,,,,,,,,,,,,,,right,1,0.5255,,,,,,magnitude,8,9,8 | 9,1,0.065,0.05,incongruent,right,0,34,34,27,1,,,,,,,,,,,,,,,,,,,,,,,,,,,,,,,,,,,,,,,,,,,,,
,134423588053,CBA,14/06/2002,001,2023-03-22_21h12.11.926,OS3_Mult_verification,2022.2.4,Win32,60.84945844,,,,,,,,,,,,,,,,,,,,,,,,,,,,,,,,,,,,,,,,,,,,,,,,,,,,,,,,,,,,,,,,,,,,,,,,,,,,,,,,,,,,,,,,,,,,,,,,,,,,,,,,,,,,right,0,0.4782,,,,,,magnitude,8,6,8 | 6,2,0.05,0.065,incongruent,left,0,35,35,38,1,,,,,,,,,,,,,,,,,,,,,,,,,,,,,,,,,,,,,,,,,,,,,
,134423588053,CBA,14/06/2002,001,2023-03-22_21h12.11.926,OS3_Mult_verification,2022.2.4,Win32,60.84945844,,,,,,,,,,,,,,,,,,,,,,,,,,,,,,,,,,,,,,,,,,,,,,,,,,,,,,,,,,,,,,,,,,,,,,,,,,,,,,,,,,,,,,,,,,,,,,,,,,,,,,,,,,,,right,1,0.5671,,,,,,magnitude,2,4,2 | 4,2,0.05,0.065,congruent,right,0,36,36,9,1,,,,,,,,,,,,,,,,,,,,,,,,,,,,,,,,,,,,,,,,,,,,,
,134423588053,CBA,14/06/2002,001,2023-03-22_21h12.11.926,OS3_Mult_verification,2022.2.4,Win32,60.84945844,,,,,,,,,,,,,,,,,,,,,,,,,,,,,,,,,,,,,,,,,,,,,,,,,,,,,,,,,,,,,,,,,,,,,,,,,,,,,,,,,,,,,,,,,,,,,,,,,,,,,,,,,,,,right,1,0.5621,,,,,,magnitude,6,7,6 | 7,1,0.05,0.065,congruent,right,0,37,37,2,1,,,,,,,,,,,,,,,,,,,,,,,,,,,,,,,,,,,,,,,,,,,,,
,134423588053,CBA,14/06/2002,001,2023-03-22_21h12.11.926,OS3_Mult_verification,2022.2.4,Win32,60.84945844,,,,,,,,,,,,,,,,,,,,,,,,,,,,,,,,,,,,,,,,,,,,,,,,,,,,,,,,,,,,,,,,,,,,,,,,,,,,,,,,,,,,,,,,,,,,,,,,,,,,,,,,,,,,left,1,0.4843,,,,,,magnitude,3,1,3 | 1,2,0.05,0.065,incongruent,left,0,38,38,36,1,,,,,,,,,,,,,,,,,,,,,,,,,,,,,,,,,,,,,,,,,,,,,
,134423588053,CBA,14/06/2002,001,2023-03-22_21h12.11.926,OS3_Mult_verification,2022.2.4,Win32,60.84945844,,,,,,,,,,,,,,,,,,,,,,,,,,,,,,,,,,,,,,,,,,,,,,,,,,,,,,,,,,,,,,,,,,,,,,,,,,,,,,,,,,,,,,,,,,,,,,,,,,,,,,,,,,,,right,1,0.4617,,,,,,magnitude,3,8,3 | 8,5,0.06,0.06,neutral,right,0,39,39,66,1,,,,,,,,,,,,,,,,,,,,,,,,,,,,,,,,,,,,,,,,,,,,,
,134423588053,CBA,14/06/2002,001,2023-03-22_21h12.11.926,OS3_Mult_verification,2022.2.4,Win32,60.84945844,,,,,,,,,,,,,,,,,,,,,,,,,,,,,,,,,,,,,,,,,,,,,,,,,,,,,,,,,,,,,,,,,,,,,,,,,,,,,,,,,,,,,,,,,,,,,,,,,,,,,,,,,,,,left,1,0.6153,,,,,,magnitude,9,8,9 | 8,1,0.05,0.065,incongruent,left,0,40,40,31,1,,,,,,,,,,,,,,,,,,,,,,,,,,,,,,,,,,,,,,,,,,,,,
,134423588053,CBA,14/06/2002,001,2023-03-22_21h12.11.926,OS3_Mult_verification,2022.2.4,Win32,60.84945844,,,,,,,,,,,,,,,,,,,,,,,,,,,,,,,,,,,,,,,,,,,,,,,,,,,,,,,,,,,,,,,,,,,,,,,,,,,,,,,,,,,,,,,,,,,,,,,,,,,,,,,,,,,,left,1,0.5106,,,,,,magnitude,4,2,4 | 2,2,0.065,0.05,congruent,left,0,41,41,13,1,,,,,,,,,,,,,,,,,,,,,,,,,,,,,,,,,,,,,,,,,,,,,
,134423588053,CBA,14/06/2002,001,2023-03-22_21h12.11.926,OS3_Mult_verification,2022.2.4,Win32,60.84945844,,,,,,,,,,,,,,,,,,,,,,,,,,,,,,,,,,,,,,,,,,,,,,,,,,,,,,,,,,,,,,,,,,,,,,,,,,,,,,,,,,,,,,,,,,,,,,,,,,,,,,,,,,,,left,1,0.5277,,,,,,magnitude,7,6,7 | 6,1,0.06,0.06,neutral,left,0,42,42,54,1,,,,,,,,,,,,,,,,,,,,,,,,,,,,,,,,,,,,,,,,,,,,,
,134423588053,CBA,14/06/2002,001,2023-03-22_21h12.11.926,OS3_Mult_verification,2022.2.4,Win32,60.84945844,,,,,,,,,,,,,,,,,,,,,,,,,,,,,,,,,,,,,,,,,,,,,,,,,,,,,,,,,,,,,,,,,,,,,,,,,,,,,,,,,,,,,,,,,,,,,,,,,,,,,,,,,,,,right,1,0.8084,,,,,,magnitude,1,2,1 | 2,1,0.05,0.065,congruent,right,0,43,43,0,1,,,,,,,,,,,,,,,,,,,,,,,,,,,,,,,,,,,,,,,,,,,,,
,134423588053,CBA,14/06/2002,001,2023-03-22_21h12.11.926,OS3_Mult_verification,2022.2.4,Win32,60.84945844,,,,,,,,,,,,,,,,,,,,,,,,,,,,,,,,,,,,,,,,,,,,,,,,,,,,,,,,,,,,,,,,,,,,,,,,,,,,,,,,,,,,,,,,,,,,,,,,,,,,,,,,,,,,right,1,0.6672,,,,,,magnitude,6,7,6 | 7,1,0.065,0.05,incongruent,right,0,44,44,26,1,,,,,,,,,,,,,,,,,,,,,,,,,,,,,,,,,,,,,,,,,,,,,
,134423588053,CBA,14/06/2002,001,2023-03-22_21h12.11.926,OS3_Mult_verification,2022.2.4,Win32,60.84945844,,,,,,,,,,,,,,,,,,,,,,,,,,,,,,,,,,,,,,,,,,,,,,,,,,,,,,,,,,,,,,,,,,,,,,,,,,,,,,,,,,,,,,,,,,,,,,,,,,,,,,,,,,,,right,1,0.5331,,,,,,magnitude,3,4,3 | 4,1,0.05,0.065,congruent,right,0,45,45,1,1,,,,,,,,,,,,,,,,,,,,,,,,,,,,,,,,,,,,,,,,,,,,,
,134423588053,CBA,14/06/2002,001,2023-03-22_21h12.11.926,OS3_Mult_verification,2022.2.4,Win32,60.84945844,,,,,,,,,,,,,,,,,,,,,,,,,,,,,,,,,,,,,,,,,,,,,,,,,,,,,,,,,,,,,,,,,,,,,,,,,,,,,,,,,,,,,,,,,,,,,,,,,,,,,,,,,,,,left,1,0.6426,,,,,,magnitude,7,6,7 | 6,1,0.065,0.05,congruent,left,0,46,46,6,1,,,,,,,,,,,,,,,,,,,,,,,,,,,,,,,,,,,,,,,,,,,,,
,134423588053,CBA,14/06/2002,001,2023-03-22_21h12.11.926,OS3_Mult_verification,2022.2.4,Win32,60.84945844,,,,,,,,,,,,,,,,,,,,,,,,,,,,,,,,,,,,,,,,,,,,,,,,,,,,,,,,,,,,,,,,,,,,,,,,,,,,,,,,,,,,,,,,,,,,,,,,,,,,,,,,,,,,left,1,0.4847,,,,,,magnitude,7,2,7 | 2,5,0.06,0.06,neutral,left,0,47,47,69,1,,,,,,,,,,,,,,,,,,,,,,,,,,,,,,,,,,,,,,,,,,,,,
,134423588053,CBA,14/06/2002,001,2023-03-22_21h12.11.926,OS3_Mult_verification,2022.2.4,Win32,60.84945844,,,,,,,,,,,,,,,,,,,,,,,,,,,,,,,,,,,,,,,,,,,,,,,,,,,,,,,,,,,,,,,,,,,,,,,,,,,,,,,,,,,,,,,,,,,,,,,,,,,,,,,,,,,,left,0,0.5014,,,,,,magnitude,1,3,1 | 3,2,0.065,0.05,incongruent,right,0,48,48,32,1,,,,,,,,,,,,,,,,,,,,,,,,,,,,,,,,,,,,,,,,,,,,,
,134423588053,CBA,14/06/2002,001,2023-03-22_21h12.11.926,OS3_Mult_verification,2022.2.4,Win32,60.84945844,,,,,,,,,,,,,,,,,,,,,,,,,,,,,,,,,,,,,,,,,,,,,,,,,,,,,,,,,,,,,,,,,,,,,,,,,,,,,,,,,,,,,,,,,,,,,,,,,,,,,,,,,,,,left,1,0.8165,,,,,,magnitude,9,8,9 | 8,1,0.06,0.06,neutral,left,0,49,49,55,1,,,,,,,,,,,,,,,,,,,,,,,,,,,,,,,,,,,,,,,,,,,,,
,134423588053,CBA,14/06/2002,001,2023-03-22_21h12.11.926,OS3_Mult_verification,2022.2.4,Win32,60.84945844,,,,,,,,,,,,,,,,,,,,,,,,,,,,,,,,,,,,,,,,,,,,,,,,,,,,,,,,,,,,,,,,,,,,,,,,,,,,,,,,,,,,,,,,,,,,,,,,,,,,,,,,,,,,left,1,0.8834,,,,,,magnitude,6,1,6 | 1,5,0.065,0.05,congruent,left,0,50,50,20,1,,,,,,,,,,,,,,,,,,,,,,,,,,,,,,,,,,,,,,,,,,,,,
,134423588053,CBA,14/06/2002,001,2023-03-22_21h12.11.926,OS3_Mult_verification,2022.2.4,Win32,60.84945844,,,,,,,,,,,,,,,,,,,,,,,,,,,,,,,,,,,,,,,,,,,,,,,,,,,,,,,,,,,,,,,,,,,,,,,,,,,,,,,,,,,,,,,,,,,,,,,,,,,,,,,,,,,,left,1,0.567,,,,,,magnitude,2,1,2 | 1,1,0.065,0.05,congruent,left,0,51,51,4,1,,,,,,,,,,,,,,,,,,,,,,,,,,,,,,,,,,,,,,,,,,,,,
,134423588053,CBA,14/06/2002,001,2023-03-22_21h12.11.926,OS3_Mult_verification,2022.2.4,Win32,60.84945844,,,,,,,,,,,,,,,,,,,,,,,,,,,,,,,,,,,,,,,,,,,,,,,,,,,,,,,,,,,,,,,,,,,,,,,,,,,,,,,,,,,,,,,,,,,,,,,,,,,,,,,,,,,,left,1,0.884,,,,,,magnitude,9,7,9 | 7,2,0.05,0.065,incongruent,left,0,52,52,39,1,,,,,,,,,,,,,,,,,,,,,,,,,,,,,,,,,,,,,,,,,,,,,
,134423588053,CBA,14/06/2002,001,2023-03-22_21h12.11.926,OS3_Mult_verification,2022.2.4,Win32,60.84945844,,,,,,,,,,,,,,,,,,,,,,,,,,,,,,,,,,,,,,,,,,,,,,,,,,,,,,,,,,,,,,,,,,,,,,,,,,,,,,,,,,,,,,,,,,,,,,,,,,,,,,,,,,,,right,1,0.8077,,,,,,magnitude,2,4,2 | 4,2,0.06,0.06,neutral,right,0,53,53,57,1,,,,,,,,,,,,,,,,,,,,,,,,,,,,,,,,,,,,,,,,,,,,,
,134423588053,CBA,14/06/2002,001,2023-03-22_21h12.11.926,OS3_Mult_verification,2022.2.4,Win32,60.84945844,,,,,,,,,,,,,,,,,,,,,,,,,,,,,,,,,,,,,,,,,,,,,,,,,,,,,,,,,,,,,,,,,,,,,,,,,,,,,,,,,,,,,,,,,,,,,,,,,,,,,,,,,,,,right,1,0.6007,,,,,,magnitude,3,8,3 | 8,5,0.065,0.05,incongruent,right,0,54,54,42,1,,,,,,,,,,,,,,,,,,,,,,,,,,,,,,,,,,,,,,,,,,,,,
,134423588053,CBA,14/06/2002,001,2023-03-22_21h12.11.926,OS3_Mult_verification,2022.2.4,Win32,60.84945844,,,,,,,,,,,,,,,,,,,,,,,,,,,,,,,,,,,,,,,,,,,,,,,,,,,,,,,,,,,,,,,,,,,,,,,,,,,,,,,,,,,,,,,,,,,,,,,,,,,,,,,,,,,,left,1,0.5344,,,,,,magnitude,9,7,9 | 7,2,0.065,0.05,congruent,left,0,55,55,15,1,,,,,,,,,,,,,,,,,,,,,,,,,,,,,,,,,,,,,,,,,,,,,
,134423588053,CBA,14/06/2002,001,2023-03-22_21h12.11.926,OS3_Mult_verification,2022.2.4,Win32,60.84945844,,,,,,,,,,,,,,,,,,,,,,,,,,,,,,,,,,,,,,,,,,,,,,,,,,,,,,,,,,,,,,,,,,,,,,,,,,,,,,,,,,,,,,,,,,,,,,,,,,,,,,,,,,,,right,1,0.6005,,,,,,magnitude,1,6,1 | 6,5,0.065,0.05,incongruent,right,0,56,56,40,1,,,,,,,,,,,,,,,,,,,,,,,,,,,,,,,,,,,,,,,,,,,,,
,134423588053,CBA,14/06/2002,001,2023-03-22_21h12.11.926,OS3_Mult_verification,2022.2.4,Win32,60.84945844,,,,,,,,,,,,,,,,,,,,,,,,,,,,,,,,,,,,,,,,,,,,,,,,,,,,,,,,,,,,,,,,,,,,,,,,,,,,,,,,,,,,,,,,,,,,,,,,,,,,,,,,,,,,right,1,0.6888,,,,,,magnitude,7,9,7 | 9,2,0.065,0.05,incongruent,right,0,57,57,35,1,,,,,,,,,,,,,,,,,,,,,,,,,,,,,,,,,,,,,,,,,,,,,
,134423588053,CBA,14/06/2002,001,2023-03-22_21h12.11.926,OS3_Mult_verification,2022.2.4,Win32,60.84945844,,,,,,,,,,,,,,,,,,,,,,,,,,,,,,,,,,,,,,,,,,,,,,,,,,,,,,,,,,,,,,,,,,,,,,,,,,,,,,,,,,,,,,,,,,,,,,,,,,,,,,,,,,,,right,1,0.5666,,,,,,magnitude,8,9,8 | 9,1,0.06,0.06,neutral,right,0,58,58,51,1,,,,,,,,,,,,,,,,,,,,,,,,,,,,,,,,,,,,,,,,,,,,,
,134423588053,CBA,14/06/2002,001,2023-03-22_21h12.11.926,OS3_Mult_verification,2022.2.4,Win32,60.84945844,,,,,,,,,,,,,,,,,,,,,,,,,,,,,,,,,,,,,,,,,,,,,,,,,,,,,,,,,,,,,,,,,,,,,,,,,,,,,,,,,,,,,,,,,,,,,,,,,,,,,,,,,,,,right,1,0.4838,,,,,,magnitude,8,9,8 | 9,1,0.05,0.065,congruent,right,0,59,59,3,1,,,,,,,,,,,,,,,,,,,,,,,,,,,,,,,,,,,,,,,,,,,,,
,134423588053,CBA,14/06/2002,001,2023-03-22_21h12.11.926,OS3_Mult_verification,2022.2.4,Win32,60.84945844,,,,,,,,,,,,,,,,,,,,,,,,,,,,,,,,,,,,,,,,,,,,,,,,,,,,,,,,,,,,,,,,,,,,,,,,,,,,,,,,,,,,,,,,,,,,,,,,,,,,,,,,,,,,right,1,0.8336,,,,,,magnitude,1,2,1 | 2,1,0.06,0.06,neutral,right,0,60,60,48,1,,,,,,,,,,,,,,,,,,,,,,,,,,,,,,,,,,,,,,,,,,,,,
,134423588053,CBA,14/06/2002,001,2023-03-22_21h12.11.926,OS3_Mult_verification,2022.2.4,Win32,60.84945844,,,,,,,,,,,,,,,,,,,,,,,,,,,,,,,,,,,,,,,,,,,,,,,,,,,,,,,,,,,,,,,,,,,,,,,,,,,,,,,,,,,,,,,,,,,,,,,,,,,,,,,,,,,,right,1,0.6498,,,,,,magnitude,6,8,6 | 8,2,0.065,0.05,incongruent,right,0,61,61,34,1,,,,,,,,,,,,,,,,,,,,,,,,,,,,,,,,,,,,,,,,,,,,,
,134423588053,CBA,14/06/2002,001,2023-03-22_21h12.11.926,OS3_Mult_verification,2022.2.4,Win32,60.84945844,,,,,,,,,,,,,,,,,,,,,,,,,,,,,,,,,,,,,,,,,,,,,,,,,,,,,,,,,,,,,,,,,,,,,,,,,,,,,,,,,,,,,,,,,,,,,,,,,,,,,,,,,,,,right,1,0.6839,,,,,,magnitude,1,6,1 | 6,5,0.05,0.065,congruent,right,0,62,62,16,1,,,,,,,,,,,,,,,,,,,,,,,,,,,,,,,,,,,,,,,,,,,,,
,134423588053,CBA,14/06/2002,001,2023-03-22_21h12.11.926,OS3_Mult_verification,2022.2.4,Win32,60.84945844,,,,,,,,,,,,,,,,,,,,,,,,,,,,,,,,,,,,,,,,,,,,,,,,,,,,,,,,,,,,,,,,,,,,,,,,,,,,,,,,,,,,,,,,,,,,,,,,,,,,,,,,,,,,right,1,0.5509,,,,,,magnitude,1,6,1 | 6,5,0.06,0.06,neutral,right,0,63,63,64,1,,,,,,,,,,,,,,,,,,,,,,,,,,,,,,,,,,,,,,,,,,,,,
,134423588053,CBA,14/06/2002,001,2023-03-22_21h12.11.926,OS3_Mult_verification,2022.2.4,Win32,60.84945844,,,,,,,,,,,,,,,,,,,,,,,,,,,,,,,,,,,,,,,,,,,,,,,,,,,,,,,,,,,,,,,,,,,,,,,,,,,,,,,,,,,,,,,,,,,,,,,,,,,,,,,,,,,,left,1,0.5491,,,,,,magnitude,4,3,4 | 3,1,0.05,0.065,incongruent,left,0,64,64,29,1,,,,,,,,,,,,,,,,,,,,,,,,,,,,,,,,,,,,,,,,,,,,,
,134423588053,CBA,14/06/2002,001,2023-03-22_21h12.11.926,OS3_Mult_verification,2022.2.4,Win32,60.84945844,,,,,,,,,,,,,,,,,,,,,,,,,,,,,,,,,,,,,,,,,,,,,,,,,,,,,,,,,,,,,,,,,,,,,,,,,,,,,,,,,,,,,,,,,,,,,,,,,,,,,,,,,,,,right,1,0.4829,,,,,,magnitude,2,7,2 | 7,5,0.065,0.05,incongruent,right,0,65,65,41,1,,,,,,,,,,,,,,,,,,,,,,,,,,,,,,,,,,,,,,,,,,,,,
,134423588053,CBA,14/06/2002,001,2023-03-22_21h12.11.926,OS3_Mult_verification,2022.2.4,Win32,60.84945844,,,,,,,,,,,,,,,,,,,,,,,,,,,,,,,,,,,,,,,,,,,,,,,,,,,,,,,,,,,,,,,,,,,,,,,,,,,,,,,,,,,,,,,,,,,,,,,,,,,,,,,,,,,,left,1,0.5253,,,,,,magnitude,7,2,7 | 2,5,0.065,0.05,congruent,left,0,66,66,21,1,,,,,,,,,,,,,,,,,,,,,,,,,,,,,,,,,,,,,,,,,,,,,
,134423588053,CBA,14/06/2002,001,2023-03-22_21h12.11.926,OS3_Mult_verification,2022.2.4,Win32,60.84945844,,,,,,,,,,,,,,,,,,,,,,,,,,,,,,,,,,,,,,,,,,,,,,,,,,,,,,,,,,,,,,,,,,,,,,,,,,,,,,,,,,,,,,,,,,,,,,,,,,,,,,,,,,,,left,1,0.5679,,,,,,magnitude,2,1,2 | 1,1,0.05,0.065,incongruent,left,0,67,67,28,1,,,,,,,,,,,,,,,,,,,,,,,,,,,,,,,,,,,,,,,,,,,,,
