windowSize,participant,group,DOB (DD/MM/YEAR),session,date,expName,psychopyVersion,OS,frameRate,typing_instr_resp.keys,typing_instr_resp.rt,typing_response,typing_rt,typing_score,typingSpeed_input_resp.keys,typingSpeed_input_resp.rt,typing_speed_trials.thisRepN,typing_speed_trials.thisTrialN,typing_speed_trials.thisN,typing_speed_trials.thisIndex,typing_speed_trials.ran,typing_speed_stim,typing_report_resp.keys,typing_report_resp.rt,vpt_trial_resp1.keys,vpt_trial_resp1.rt,typedResponse,fluency_rt,fluency_score,fluencyInputResp.keys,fluencyInputResp.rt,fluencyPracLoop.thisRepN,fluencyPracLoop.thisTrialN,fluencyPracLoop.thisN,fluencyPracLoop.thisIndex,fluencyPracLoop.ran,problem,answers,fluencyLoop.thisRepN,fluencyLoop.thisTrialN,fluencyLoop.thisN,fluencyLoop.thisIndex,fluencyLoop.ran,sampleAudio_resp.keys,sampleAudio_resp.rt,subjResponse,audio_rt,DS_score,inputResp.keys,inputResp.rt,audioPracticeLoop.thisRepN,audioPracticeLoop.thisTrialN,audioPracticeLoop.thisN,audioPracticeLoop.thisIndex,audioPracticeLoop.ran,digitSpan,digits_audioStim,soundsFile,typeDS,audioTrials_Loop.thisRepN,audioTrials_Loop.thisTrialN,audioTrials_Loop.thisN,audioTrials_Loop.thisIndex,audioTrials_Loop.ran,audioBlocks_loop.thisRepN,audioBlocks_loop.thisTrialN,audioBlocks_loop.thisN,audioBlocks_loop.thisIndex,audioBlocks_loop.ran,ConditionFile,digitSpanTask_loop.thisRepN,digitSpanTask_loop.thisTrialN,digitSpanTask_loop.thisN,digitSpanTask_loop.thisIndex,digitSpanTask_loop.ran,dsFile,TASK_C.thisRepN,TASK_C.thisTrialN,TASK_C.thisN,TASK_C.thisIndex,TASK_C.ran,controlTaskOrder.thisRepN,controlTaskOrder.thisTrialN,controlTaskOrder.thisN,controlTaskOrder.thisIndex,controlTaskOrder.ran,nRepsTask1,nRepsTask2,nRepsTask3,stroopResp.keys,stroopResp.corr,stroopResp.rt,stroopPracLoop.thisRepN,stroopPracLoop.thisTrialN,stroopPracLoop.thisN,stroopPracLoop.thisIndex,stroopPracLoop.ran,stroopCond,leftNo,rightNo,displayProblem,numDistance,leftNo_size,rightNo_size,Dims,keyAnswer,stroopLoop.thisRepN,stroopLoop.thisTrialN,stroopLoop.thisN,stroopLoop.thisIndex,stroopLoop.ran,stroopBlocks.thisRepN,stroopBlocks.thisTrialN,stroopBlocks.thisN,stroopBlocks.thisIndex,stroopBlocks.ran,stroop_condition,stroop_pracFile,ActionInst,instrImage,TASK_A.thisRepN,TASK_A.thisTrialN,TASK_A.thisN,TASK_A.thisIndex,TASK_A.ran,vptCorrect,vpt_rt,respMouse.x,respMouse.y,respMouse.leftButton,respMouse.midButton,respMouse.rightButton,vptPracticeLoop.thisRepN,vptPracticeLoop.thisTrialN,vptPracticeLoop.thisN,vptPracticeLoop.thisIndex,vptPracticeLoop.ran,trialType,tiles,rows,cols,vptTrialLoop.thisRepN,vptTrialLoop.thisTrialN,vptTrialLoop.thisN,vptTrialLoop.thisIndex,vptTrialLoop.ran,noOfBlocks,TASK_B.thisRepN,TASK_B.thisTrialN,TASK_B.thisN,TASK_B.thisIndex,TASK_B.ran,veriStim_resp.keys,veriStim_resp.corr,veriStim_resp.rt,verificationPracLoop.thisRepN,verificationPracLoop.thisTrialN,verificationPracLoop.thisN,verificationPracLoop.thisIndex,verificationPracLoop.ran,mult_problem,mult_answer,mult_type,error_distance,interferenceScore,problemType,interferenceLevel,problemSize,img_leftButton,img_rightButton,veriLoop.thisRepN,veriLoop.thisTrialN,veriLoop.thisN,veriLoop.thisIndex,veriLoop.ran,veriBlock.thisRepN,veriBlock.thisTrialN,veriBlock.thisN,veriBlock.thisIndex,veriBlock.ran,verificationFiles,end_resp.keys,end_resp.rt
"[1397,633]",8791,CAB,30/12/2004,001,2023-09-27_15h50.58.995,OS3_Mult_verification,2022.2.4,Win32,59.31549914,,,,,,,,,,,,,,,,,,,,,,,,,,,,,,,,,,,,,,,,,,,,,,,,,,,,,,,,,,,,,,,,,,,,,,,,,,,,,,,,,,,,,,,,,,,,,,,,,,,,,,,,,,,,,,,,,,,,,,,,,,,,,,,,,,,,,,,,,,,,,,,,,,,,,,,,,,,,,,,,,,,,,,,,,,,,,,
,8791,CAB,30/12/2004,001,2023-09-27_15h50.58.995,OS3_Mult_verification,2022.2.4,Win32,59.31549914,,,,,,,,,,,,,,,,,,,,,,,,,,,,,,,,,,,,,,,,,,,,,,,,,,,,,,,,,,,,,,,,,,,,,,,,,,,,,,,,,,,,,,,,,,,,,,,,,,,,,,,,,,,,,,,,,,,,,,,,,,,,,,,,,,,,,,,,,,,,,,,,,,,,,,,,,,,,,,,,,,,,,,,,,,,,,,
,8791,CAB,30/12/2004,001,2023-09-27_15h50.58.995,OS3_Mult_verification,2022.2.4,Win32,59.31549914,space,28.8768,,,,,,,,,,,,,,,,,,,,,,,,,,,,,,,,,,,,,,,,,,,,,,,,,,,,,,,,,,,,,,,,,,,,,,,,,,,,,,,,,,,,,,,,,,,,,,,,,,,,,,,,,,,,,,,,,,,,,,,,,,,,,,,,,,,,,,,,,,,,,,,,,,,,,,,,,,,,,,,,,,,,,,,,,,,,
,8791,CAB,30/12/2004,001,2023-09-27_15h50.58.995,OS3_Mult_verification,2022.2.4,Win32,59.31549914,,,64,9.0648,1,"[""6"",""4"",""return""]","[1.6282999999998111,1.731799999999808,9.027900000000372]",0,0,0,28,1,64,,,,,,,,,,,,,,,,,,,,,,,,,,,,,,,,,,,,,,,,,,,,,,,,,,,,,,,,,,,,,,,,,,,,,,,,,,,,,,,,,,,,,,,,,,,,,,,,,,,,,,,,,,,,,,,,,,,,,,,,,,,,,,,,,,,,,,,,,,,,,,,,,,,,,,,,,,,,,,,,,
,8791,CAB,30/12/2004,001,2023-09-27_15h50.58.995,OS3_Mult_verification,2022.2.4,Win32,59.31549914,,,8,1.6494,1,"[""8"",""return""]","[1.0010000000000048,1.6164000000003824]",0,1,1,2,1,8,,,,,,,,,,,,,,,,,,,,,,,,,,,,,,,,,,,,,,,,,,,,,,,,,,,,,,,,,,,,,,,,,,,,,,,,,,,,,,,,,,,,,,,,,,,,,,,,,,,,,,,,,,,,,,,,,,,,,,,,,,,,,,,,,,,,,,,,,,,,,,,,,,,,,,,,,,,,,,,,,
,8791,CAB,30/12/2004,001,2023-09-27_15h50.58.995,OS3_Mult_verification,2022.2.4,Win32,59.31549914,,,63,2.9669,1,"[""6"",""3"",""return""]","[1.5802000000001897,2.3963999999994456,2.932399999999447]",0,2,2,27,1,63,,,,,,,,,,,,,,,,,,,,,,,,,,,,,,,,,,,,,,,,,,,,,,,,,,,,,,,,,,,,,,,,,,,,,,,,,,,,,,,,,,,,,,,,,,,,,,,,,,,,,,,,,,,,,,,,,,,,,,,,,,,,,,,,,,,,,,,,,,,,,,,,,,,,,,,,,,,,,,,,,
,8791,CAB,30/12/2004,001,2023-09-27_15h50.58.995,OS3_Mult_verification,2022.2.4,Win32,59.31549914,,,18,1.4657,1,"[""1"",""8"",""return""]","[0.9125999999996282,1.1955000000000098,1.4275999999996287]",0,3,3,9,1,18,,,,,,,,,,,,,,,,,,,,,,,,,,,,,,,,,,,,,,,,,,,,,,,,,,,,,,,,,,,,,,,,,,,,,,,,,,,,,,,,,,,,,,,,,,,,,,,,,,,,,,,,,,,,,,,,,,,,,,,,,,,,,,,,,,,,,,,,,,,,,,,,,,,,,,,,,,,,,,,,,
,8791,CAB,30/12/2004,001,2023-09-27_15h50.58.995,OS3_Mult_verification,2022.2.4,Win32,59.31549914,,,48,1.5487,1,"[""4"",""8"",""return""]","[1.0477999999998104,1.2952000000001789,1.5122999999998115]",0,4,4,23,1,48,,,,,,,,,,,,,,,,,,,,,,,,,,,,,,,,,,,,,,,,,,,,,,,,,,,,,,,,,,,,,,,,,,,,,,,,,,,,,,,,,,,,,,,,,,,,,,,,,,,,,,,,,,,,,,,,,,,,,,,,,,,,,,,,,,,,,,,,,,,,,,,,,,,,,,,,,,,,,,,,,
,8791,CAB,30/12/2004,001,2023-09-27_15h50.58.995,OS3_Mult_verification,2022.2.4,Win32,59.31549914,,,42,1.3822,1,"[""4"",""2"",""return""]","[0.9125999999996282,1.1446999999992613,1.3419999999999987]",0,5,5,21,1,42,,,,,,,,,,,,,,,,,,,,,,,,,,,,,,,,,,,,,,,,,,,,,,,,,,,,,,,,,,,,,,,,,,,,,,,,,,,,,,,,,,,,,,,,,,,,,,,,,,,,,,,,,,,,,,,,,,,,,,,,,,,,,,,,,,,,,,,,,,,,,,,,,,,,,,,,,,,,,,,,,
,8791,CAB,30/12/2004,001,2023-09-27_15h50.58.995,OS3_Mult_verification,2022.2.4,Win32,59.31549914,,,12,1.0323,1,"[""1"",""2"",""return""]","[0.6612000000001927,0.8439000000003745,0.9958000000007416]",0,6,6,5,1,12,,,,,,,,,,,,,,,,,,,,,,,,,,,,,,,,,,,,,,,,,,,,,,,,,,,,,,,,,,,,,,,,,,,,,,,,,,,,,,,,,,,,,,,,,,,,,,,,,,,,,,,,,,,,,,,,,,,,,,,,,,,,,,,,,,,,,,,,,,,,,,,,,,,,,,,,,,,,,,,,,
,8791,CAB,30/12/2004,001,2023-09-27_15h50.58.995,OS3_Mult_verification,2022.2.4,Win32,59.31549914,,,10,1.1496,1,"[""1"",""0"",""return""]","[0.561000000000007,0.9462999999998232,1.1120999999996286]",0,7,7,4,1,10,,,,,,,,,,,,,,,,,,,,,,,,,,,,,,,,,,,,,,,,,,,,,,,,,,,,,,,,,,,,,,,,,,,,,,,,,,,,,,,,,,,,,,,,,,,,,,,,,,,,,,,,,,,,,,,,,,,,,,,,,,,,,,,,,,,,,,,,,,,,,,,,,,,,,,,,,,,,,,,,,
,8791,CAB,30/12/2004,001,2023-09-27_15h50.58.995,OS3_Mult_verification,2022.2.4,Win32,59.31549914,,,16,1.3503,1,"[""1"",""6"",""return""]","[0.5164999999999935,1.0307999999998145,1.3147000000001867]",0,8,8,8,1,16,,,,,,,,,,,,,,,,,,,,,,,,,,,,,,,,,,,,,,,,,,,,,,,,,,,,,,,,,,,,,,,,,,,,,,,,,,,,,,,,,,,,,,,,,,,,,,,,,,,,,,,,,,,,,,,,,,,,,,,,,,,,,,,,,,,,,,,,,,,,,,,,,,,,,,,,,,,,,,,,,
,8791,CAB,30/12/2004,001,2023-09-27_15h50.58.995,OS3_Mult_verification,2022.2.4,Win32,59.31549914,,,4,1.1825,1,"[""4"",""return""]","[0.8034999999999997,1.1457999999998094]",0,9,9,0,1,4,,,,,,,,,,,,,,,,,,,,,,,,,,,,,,,,,,,,,,,,,,,,,,,,,,,,,,,,,,,,,,,,,,,,,,,,,,,,,,,,,,,,,,,,,,,,,,,,,,,,,,,,,,,,,,,,,,,,,,,,,,,,,,,,,,,,,,,,,,,,,,,,,,,,,,,,,,,,,,,,,
,8791,CAB,30/12/2004,001,2023-09-27_15h50.58.995,OS3_Mult_verification,2022.2.4,Win32,59.31549914,,,28,1.3329,1,"[""2"",""8"",""return""]","[0.8289000000003739,1.0967000000001832,1.2951000000005592]",0,10,10,15,1,28,,,,,,,,,,,,,,,,,,,,,,,,,,,,,,,,,,,,,,,,,,,,,,,,,,,,,,,,,,,,,,,,,,,,,,,,,,,,,,,,,,,,,,,,,,,,,,,,,,,,,,,,,,,,,,,,,,,,,,,,,,,,,,,,,,,,,,,,,,,,,,,,,,,,,,,,,,,,,,,,,
,8791,CAB,30/12/2004,001,2023-09-27_15h50.58.995,OS3_Mult_verification,2022.2.4,Win32,59.31549914,,,15,1.1662,1,"[""1"",""5"",""return""]","[0.680200000000184,1.027299999999812,1.129200000000182]",0,11,11,7,1,15,,,,,,,,,,,,,,,,,,,,,,,,,,,,,,,,,,,,,,,,,,,,,,,,,,,,,,,,,,,,,,,,,,,,,,,,,,,,,,,,,,,,,,,,,,,,,,,,,,,,,,,,,,,,,,,,,,,,,,,,,,,,,,,,,,,,,,,,,,,,,,,,,,,,,,,,,,,,,,,,,
,8791,CAB,30/12/2004,001,2023-09-27_15h50.58.995,OS3_Mult_verification,2022.2.4,Win32,59.31549914,,,49,1.5834,1,"[""4"",""9"",""return""]","[1.0717000000001917,1.372599999999622,1.5504999999999995]",0,12,12,24,1,49,,,,,,,,,,,,,,,,,,,,,,,,,,,,,,,,,,,,,,,,,,,,,,,,,,,,,,,,,,,,,,,,,,,,,,,,,,,,,,,,,,,,,,,,,,,,,,,,,,,,,,,,,,,,,,,,,,,,,,,,,,,,,,,,,,,,,,,,,,,,,,,,,,,,,,,,,,,,,,,,,
,8791,CAB,30/12/2004,001,2023-09-27_15h50.58.995,OS3_Mult_verification,2022.2.4,Win32,59.31549914,,,72,2.5316,1,"[""7"",""3"",""backspace"",""2"",""return""]","[0.992400000000373,1.2423000000007391,1.9474000000003713,2.084300000000738,2.491100000000557]",0,13,13,29,1,72,,,,,,,,,,,,,,,,,,,,,,,,,,,,,,,,,,,,,,,,,,,,,,,,,,,,,,,,,,,,,,,,,,,,,,,,,,,,,,,,,,,,,,,,,,,,,,,,,,,,,,,,,,,,,,,,,,,,,,,,,,,,,,,,,,,,,,,,,,,,,,,,,,,,,,,,,,,,,,,,,
,8791,CAB,30/12/2004,001,2023-09-27_15h50.58.995,OS3_Mult_verification,2022.2.4,Win32,59.31549914,,,9,0.9836,1,"[""9"",""return""]","[0.7364000000003728,0.9502000000001658]",0,14,14,3,1,9,,,,,,,,,,,,,,,,,,,,,,,,,,,,,,,,,,,,,,,,,,,,,,,,,,,,,,,,,,,,,,,,,,,,,,,,,,,,,,,,,,,,,,,,,,,,,,,,,,,,,,,,,,,,,,,,,,,,,,,,,,,,,,,,,,,,,,,,,,,,,,,,,,,,,,,,,,,,,,,,,
,8791,CAB,30/12/2004,001,2023-09-27_15h50.58.995,OS3_Mult_verification,2022.2.4,Win32,59.31549914,,,56,1.4835,1,"[""5"",""6"",""return""]","[1.0243000000007498,1.236300000000739,1.45380000000074]",0,15,15,26,1,56,,,,,,,,,,,,,,,,,,,,,,,,,,,,,,,,,,,,,,,,,,,,,,,,,,,,,,,,,,,,,,,,,,,,,,,,,,,,,,,,,,,,,,,,,,,,,,,,,,,,,,,,,,,,,,,,,,,,,,,,,,,,,,,,,,,,,,,,,,,,,,,,,,,,,,,,,,,,,,,,,
,8791,CAB,30/12/2004,001,2023-09-27_15h50.58.995,OS3_Mult_verification,2022.2.4,Win32,59.31549914,,,54,1.7995,1,"[""5"",""4"",""return""]","[1.1822000000001935,1.4963000000007582,1.7686000000005606]",0,16,16,25,1,54,,,,,,,,,,,,,,,,,,,,,,,,,,,,,,,,,,,,,,,,,,,,,,,,,,,,,,,,,,,,,,,,,,,,,,,,,,,,,,,,,,,,,,,,,,,,,,,,,,,,,,,,,,,,,,,,,,,,,,,,,,,,,,,,,,,,,,,,,,,,,,,,,,,,,,,,,,,,,,,,,
,8791,CAB,30/12/2004,001,2023-09-27_15h50.58.995,OS3_Mult_verification,2022.2.4,Win32,59.31549914,,,45,1.1333,1,"[""4"",""5"",""return""]","[0.7669000000003621,0.9344000000003518,1.1042000000001622]",0,17,17,22,1,45,,,,,,,,,,,,,,,,,,,,,,,,,,,,,,,,,,,,,,,,,,,,,,,,,,,,,,,,,,,,,,,,,,,,,,,,,,,,,,,,,,,,,,,,,,,,,,,,,,,,,,,,,,,,,,,,,,,,,,,,,,,,,,,,,,,,,,,,,,,,,,,,,,,,,,,,,,,,,,,,,
,8791,CAB,30/12/2004,001,2023-09-27_15h50.58.995,OS3_Mult_verification,2022.2.4,Win32,59.31549914,,,36,1.6661,1,"[""3"",""6"",""return""]","[1.2570999999996388,1.5172000000002015,1.6382999999998162]",0,18,18,19,1,36,,,,,,,,,,,,,,,,,,,,,,,,,,,,,,,,,,,,,,,,,,,,,,,,,,,,,,,,,,,,,,,,,,,,,,,,,,,,,,,,,,,,,,,,,,,,,,,,,,,,,,,,,,,,,,,,,,,,,,,,,,,,,,,,,,,,,,,,,,,,,,,,,,,,,,,,,,,,,,,,,
,8791,CAB,30/12/2004,001,2023-09-27_15h50.58.995,OS3_Mult_verification,2022.2.4,Win32,59.31549914,,,27,1.6498,1,"[""2"",""7"",""return""]","[1.06310000000056,1.3154000000003805,1.623200000000196]",0,19,19,14,1,27,,,,,,,,,,,,,,,,,,,,,,,,,,,,,,,,,,,,,,,,,,,,,,,,,,,,,,,,,,,,,,,,,,,,,,,,,,,,,,,,,,,,,,,,,,,,,,,,,,,,,,,,,,,,,,,,,,,,,,,,,,,,,,,,,,,,,,,,,,,,,,,,,,,,,,,,,,,,,,,,,
,8791,CAB,30/12/2004,001,2023-09-27_15h50.58.995,OS3_Mult_verification,2022.2.4,Win32,59.31549914,,,81,1.2832,1,"[""8"",""1"",""return""]","[0.9526000000005581,1.0658000000007348,1.244499999999988]",0,20,20,30,1,81,,,,,,,,,,,,,,,,,,,,,,,,,,,,,,,,,,,,,,,,,,,,,,,,,,,,,,,,,,,,,,,,,,,,,,,,,,,,,,,,,,,,,,,,,,,,,,,,,,,,,,,,,,,,,,,,,,,,,,,,,,,,,,,,,,,,,,,,,,,,,,,,,,,,,,,,,,,,,,,,,
,8791,CAB,30/12/2004,001,2023-09-27_15h50.58.995,OS3_Mult_verification,2022.2.4,Win32,59.31549914,,,30,1.5827,1,"[""3"",""0"",""return""]","[1.211500000000001,1.380200000000201,1.5492999999998176]",0,21,21,16,1,30,,,,,,,,,,,,,,,,,,,,,,,,,,,,,,,,,,,,,,,,,,,,,,,,,,,,,,,,,,,,,,,,,,,,,,,,,,,,,,,,,,,,,,,,,,,,,,,,,,,,,,,,,,,,,,,,,,,,,,,,,,,,,,,,,,,,,,,,,,,,,,,,,,,,,,,,,,,,,,,,,
,8791,CAB,30/12/2004,001,2023-09-27_15h50.58.995,OS3_Mult_verification,2022.2.4,Win32,59.31549914,,,32,1.8161,1,"[""3"",""2"",""return""]","[1.2959000000003584,1.5694000000003712,1.7771000000005586]",0,22,22,17,1,32,,,,,,,,,,,,,,,,,,,,,,,,,,,,,,,,,,,,,,,,,,,,,,,,,,,,,,,,,,,,,,,,,,,,,,,,,,,,,,,,,,,,,,,,,,,,,,,,,,,,,,,,,,,,,,,,,,,,,,,,,,,,,,,,,,,,,,,,,,,,,,,,,,,,,,,,,,,,,,,,,
,8791,CAB,30/12/2004,001,2023-09-27_15h50.58.995,OS3_Mult_verification,2022.2.4,Win32,59.31549914,,,40,1.2326,1,"[""4"",""0"",""return""]","[0.744499999999988,0.9772999999998149,1.1919999999999789]",0,23,23,20,1,40,,,,,,,,,,,,,,,,,,,,,,,,,,,,,,,,,,,,,,,,,,,,,,,,,,,,,,,,,,,,,,,,,,,,,,,,,,,,,,,,,,,,,,,,,,,,,,,,,,,,,,,,,,,,,,,,,,,,,,,,,,,,,,,,,,,,,,,,,,,,,,,,,,,,,,,,,,,,,,,,,
,8791,CAB,30/12/2004,001,2023-09-27_15h50.58.995,OS3_Mult_verification,2022.2.4,Win32,59.31549914,,,20,2.2994,1,"[""2"",""9"",""backspace"",""0"",""return""]","[0.8494999999999777,1.1310000000000002,1.8104999999999905,2.063700000000182,2.2697999999998046]",0,24,24,10,1,20,,,,,,,,,,,,,,,,,,,,,,,,,,,,,,,,,,,,,,,,,,,,,,,,,,,,,,,,,,,,,,,,,,,,,,,,,,,,,,,,,,,,,,,,,,,,,,,,,,,,,,,,,,,,,,,,,,,,,,,,,,,,,,,,,,,,,,,,,,,,,,,,,,,,,,,,,,,,,,,,,
,8791,CAB,30/12/2004,001,2023-09-27_15h50.58.995,OS3_Mult_verification,2022.2.4,Win32,59.31549914,,,14,1.1659,1,"[""1"",""4"",""return""]","[0.6617000000001667,0.9452999999998042,1.1275999999996316]",0,25,25,6,1,14,,,,,,,,,,,,,,,,,,,,,,,,,,,,,,,,,,,,,,,,,,,,,,,,,,,,,,,,,,,,,,,,,,,,,,,,,,,,,,,,,,,,,,,,,,,,,,,,,,,,,,,,,,,,,,,,,,,,,,,,,,,,,,,,,,,,,,,,,,,,,,,,,,,,,,,,,,,,,,,,,
,8791,CAB,30/12/2004,001,2023-09-27_15h50.58.995,OS3_Mult_verification,2022.2.4,Win32,59.31549914,,,35,1.3665,1,"[""3"",""5"",""return""]","[0.9334000000003755,1.182800000000725,1.3302000000001897]",0,26,26,18,1,35,,,,,,,,,,,,,,,,,,,,,,,,,,,,,,,,,,,,,,,,,,,,,,,,,,,,,,,,,,,,,,,,,,,,,,,,,,,,,,,,,,,,,,,,,,,,,,,,,,,,,,,,,,,,,,,,,,,,,,,,,,,,,,,,,,,,,,,,,,,,,,,,,,,,,,,,,,,,,,,,,
,8791,CAB,30/12/2004,001,2023-09-27_15h50.58.995,OS3_Mult_verification,2022.2.4,Win32,59.31549914,,,24,1.1829,1,"[""2"",""4"",""return""]","[0.7966000000005522,1.0049000000003616,1.1551000000005445]",0,27,27,12,1,24,,,,,,,,,,,,,,,,,,,,,,,,,,,,,,,,,,,,,,,,,,,,,,,,,,,,,,,,,,,,,,,,,,,,,,,,,,,,,,,,,,,,,,,,,,,,,,,,,,,,,,,,,,,,,,,,,,,,,,,,,,,,,,,,,,,,,,,,,,,,,,,,,,,,,,,,,,,,,,,,,
,8791,CAB,30/12/2004,001,2023-09-27_15h50.58.995,OS3_Mult_verification,2022.2.4,Win32,59.31549914,,,21,1.189,1,"[""2"",""1"",""return""]","[0.6682999999998174,0.861299999999801,1.1605999999996186]",0,28,28,11,1,21,,,,,,,,,,,,,,,,,,,,,,,,,,,,,,,,,,,,,,,,,,,,,,,,,,,,,,,,,,,,,,,,,,,,,,,,,,,,,,,,,,,,,,,,,,,,,,,,,,,,,,,,,,,,,,,,,,,,,,,,,,,,,,,,,,,,,,,,,,,,,,,,,,,,,,,,,,,,,,,,,
,8791,CAB,30/12/2004,001,2023-09-27_15h50.58.995,OS3_Mult_verification,2022.2.4,Win32,59.31549914,,,25,1.1163,1,"[""2"",""5"",""return""]","[0.6668999999994298,0.9510999999996272,1.0845999999996252]",0,29,29,13,1,25,,,,,,,,,,,,,,,,,,,,,,,,,,,,,,,,,,,,,,,,,,,,,,,,,,,,,,,,,,,,,,,,,,,,,,,,,,,,,,,,,,,,,,,,,,,,,,,,,,,,,,,,,,,,,,,,,,,,,,,,,,,,,,,,,,,,,,,,,,,,,,,,,,,,,,,,,,,,,,,,,
,8791,CAB,30/12/2004,001,2023-09-27_15h50.58.995,OS3_Mult_verification,2022.2.4,Win32,59.31549914,,,6,1.2092,1,"[""6"",""return""]","[1.0354000000003794,1.1759000000003823]",0,30,30,1,1,6,,,,,,,,,,,,,,,,,,,,,,,,,,,,,,,,,,,,,,,,,,,,,,,,,,,,,,,,,,,,,,,,,,,,,,,,,,,,,,,,,,,,,,,,,,,,,,,,,,,,,,,,,,,,,,,,,,,,,,,,,,,,,,,,,,,,,,,,,,,,,,,,,,,,,,,,,,,,,,,,,
,8791,CAB,30/12/2004,001,2023-09-27_15h50.58.995,OS3_Mult_verification,2022.2.4,Win32,59.31549914,,,1,1.0491,0,"[""1"",""0"",""return""]","[0.6370000000000005,1.013400000000388,1.013700000000199]",1,0,31,4,1,10,,,,,,,,,,,,,,,,,,,,,,,,,,,,,,,,,,,,,,,,,,,,,,,,,,,,,,,,,,,,,,,,,,,,,,,,,,,,,,,,,,,,,,,,,,,,,,,,,,,,,,,,,,,,,,,,,,,,,,,,,,,,,,,,,,,,,,,,,,,,,,,,,,,,,,,,,,,,,,,,,
,8791,CAB,30/12/2004,001,2023-09-27_15h50.58.995,OS3_Mult_verification,2022.2.4,Win32,59.31549914,,,12,1.5827,1,"[""1"",""2"",""return""]","[1.2195000000000107,1.430499999999995,1.5550000000000068]",1,1,32,5,1,12,,,,,,,,,,,,,,,,,,,,,,,,,,,,,,,,,,,,,,,,,,,,,,,,,,,,,,,,,,,,,,,,,,,,,,,,,,,,,,,,,,,,,,,,,,,,,,,,,,,,,,,,,,,,,,,,,,,,,,,,,,,,,,,,,,,,,,,,,,,,,,,,,,,,,,,,,,,,,,,,,
,8791,CAB,30/12/2004,001,2023-09-27_15h50.58.995,OS3_Mult_verification,2022.2.4,Win32,59.31549914,,,56,1.449,1,"[""5"",""6"",""return""]","[0.9788999999994417,1.1975999999996247,1.4125999999996282]",1,2,33,26,1,56,,,,,,,,,,,,,,,,,,,,,,,,,,,,,,,,,,,,,,,,,,,,,,,,,,,,,,,,,,,,,,,,,,,,,,,,,,,,,,,,,,,,,,,,,,,,,,,,,,,,,,,,,,,,,,,,,,,,,,,,,,,,,,,,,,,,,,,,,,,,,,,,,,,,,,,,,,,,,,,,,
,8791,CAB,30/12/2004,001,2023-09-27_15h50.58.995,OS3_Mult_verification,2022.2.4,Win32,59.31549914,,,28,1.3656,1,"[""2"",""8"",""return""]","[0.6807000000001722,1.1870999999996172,1.3298999999994408]",1,3,34,15,1,28,,,,,,,,,,,,,,,,,,,,,,,,,,,,,,,,,,,,,,,,,,,,,,,,,,,,,,,,,,,,,,,,,,,,,,,,,,,,,,,,,,,,,,,,,,,,,,,,,,,,,,,,,,,,,,,,,,,,,,,,,,,,,,,,,,,,,,,,,,,,,,,,,,,,,,,,,,,,,,,,,
,8791,CAB,30/12/2004,001,2023-09-27_15h50.58.995,OS3_Mult_verification,2022.2.4,Win32,59.31549914,,,54,1.2993,1,"[""5"",""4"",""return""]","[0.9484999999999957,1.1323000000007255,1.264800000000747]",1,4,35,25,1,54,,,,,,,,,,,,,,,,,,,,,,,,,,,,,,,,,,,,,,,,,,,,,,,,,,,,,,,,,,,,,,,,,,,,,,,,,,,,,,,,,,,,,,,,,,,,,,,,,,,,,,,,,,,,,,,,,,,,,,,,,,,,,,,,,,,,,,,,,,,,,,,,,,,,,,,,,,,,,,,,,
,8791,CAB,30/12/2004,001,2023-09-27_15h50.58.995,OS3_Mult_verification,2022.2.4,Win32,59.31549914,,,8,1.283,1,"[""8"",""return""]","[1.1155999999996027,1.2527999999998087]",1,5,36,2,1,8,,,,,,,,,,,,,,,,,,,,,,,,,,,,,,,,,,,,,,,,,,,,,,,,,,,,,,,,,,,,,,,,,,,,,,,,,,,,,,,,,,,,,,,,,,,,,,,,,,,,,,,,,,,,,,,,,,,,,,,,,,,,,,,,,,,,,,,,,,,,,,,,,,,,,,,,,,,,,,,,,
,8791,CAB,30/12/2004,001,2023-09-27_15h50.58.995,OS3_Mult_verification,2022.2.4,Win32,59.31549914,,,32,1.3492,1,"[""3"",""2"",""return""]","[0.9966000000005693,1.1540000000000248,1.3137000000002104]",1,6,37,17,1,32,,,,,,,,,,,,,,,,,,,,,,,,,,,,,,,,,,,,,,,,,,,,,,,,,,,,,,,,,,,,,,,,,,,,,,,,,,,,,,,,,,,,,,,,,,,,,,,,,,,,,,,,,,,,,,,,,,,,,,,,,,,,,,,,,,,,,,,,,,,,,,,,,,,,,,,,,,,,,,,,,
,8791,CAB,30/12/2004,001,2023-09-27_15h50.58.995,OS3_Mult_verification,2022.2.4,Win32,59.31549914,,,40,1.433,1,"[""4"",""0"",""return""]","[0.9639999999999986,1.2115999999996347,1.396299999999826]",1,7,38,20,1,40,,,,,,,,,,,,,,,,,,,,,,,,,,,,,,,,,,,,,,,,,,,,,,,,,,,,,,,,,,,,,,,,,,,,,,,,,,,,,,,,,,,,,,,,,,,,,,,,,,,,,,,,,,,,,,,,,,,,,,,,,,,,,,,,,,,,,,,,,,,,,,,,,,,,,,,,,,,,,,,,,
,8791,CAB,30/12/2004,001,2023-09-27_15h50.58.995,OS3_Mult_verification,2022.2.4,Win32,59.31549914,,,21,1.0329,1,"[""2"",""1"",""return""]","[0.6968000000007635,0.887800000000766,1.004300000000768]",1,8,39,11,1,21,,,,,,,,,,,,,,,,,,,,,,,,,,,,,,,,,,,,,,,,,,,,,,,,,,,,,,,,,,,,,,,,,,,,,,,,,,,,,,,,,,,,,,,,,,,,,,,,,,,,,,,,,,,,,,,,,,,,,,,,,,,,,,,,,,,,,,,,,,,,,,,,,,,,,,,,,,,,,,,,,
,8791,CAB,30/12/2004,001,2023-09-27_15h50.58.995,OS3_Mult_verification,2022.2.4,Win32,59.31549914,,,45,1.1992,1,"[""4"",""5"",""return""]","[0.853400000000363,1.0292000000001735,1.1623000000007266]",1,9,40,22,1,45,,,,,,,,,,,,,,,,,,,,,,,,,,,,,,,,,,,,,,,,,,,,,,,,,,,,,,,,,,,,,,,,,,,,,,,,,,,,,,,,,,,,,,,,,,,,,,,,,,,,,,,,,,,,,,,,,,,,,,,,,,,,,,,,,,,,,,,,,,,,,,,,,,,,,,,,,,,,,,,,,
,8791,CAB,30/12/2004,001,2023-09-27_15h50.58.995,OS3_Mult_verification,2022.2.4,Win32,59.31549914,,,49,1.7491,1,"[""4"",""9"",""return""]","[1.1284000000003687,1.554900000000373,1.719900000000365]",1,10,41,24,1,49,,,,,,,,,,,,,,,,,,,,,,,,,,,,,,,,,,,,,,,,,,,,,,,,,,,,,,,,,,,,,,,,,,,,,,,,,,,,,,,,,,,,,,,,,,,,,,,,,,,,,,,,,,,,,,,,,,,,,,,,,,,,,,,,,,,,,,,,,,,,,,,,,,,,,,,,,,,,,,,,,
,8791,CAB,30/12/2004,001,2023-09-27_15h50.58.995,OS3_Mult_verification,2022.2.4,Win32,59.31549914,,,48,1.3487,1,"[""4"",""8"",""return""]","[0.8062999999998226,1.1210000000000093,1.3182000000001892]",1,11,42,23,1,48,,,,,,,,,,,,,,,,,,,,,,,,,,,,,,,,,,,,,,,,,,,,,,,,,,,,,,,,,,,,,,,,,,,,,,,,,,,,,,,,,,,,,,,,,,,,,,,,,,,,,,,,,,,,,,,,,,,,,,,,,,,,,,,,,,,,,,,,,,,,,,,,,,,,,,,,,,,,,,,,,
,8791,CAB,30/12/2004,001,2023-09-27_15h50.58.995,OS3_Mult_verification,2022.2.4,Win32,59.31549914,,,36,1.2992,1,"[""3"",""6"",""return""]","[0.7608000000007564,1.0459000000003869,1.2660000000000196]",1,12,43,19,1,36,,,,,,,,,,,,,,,,,,,,,,,,,,,,,,,,,,,,,,,,,,,,,,,,,,,,,,,,,,,,,,,,,,,,,,,,,,,,,,,,,,,,,,,,,,,,,,,,,,,,,,,,,,,,,,,,,,,,,,,,,,,,,,,,,,,,,,,,,,,,,,,,,,,,,,,,,,,,,,,,,
,8791,CAB,30/12/2004,001,2023-09-27_15h50.58.995,OS3_Mult_verification,2022.2.4,Win32,59.31549914,,,30,1.2996,1,"[""3"",""0"",""return""]","[0.8825000000000216,1.0672999999998183,1.2640999999996438]",1,13,44,16,1,30,,,,,,,,,,,,,,,,,,,,,,,,,,,,,,,,,,,,,,,,,,,,,,,,,,,,,,,,,,,,,,,,,,,,,,,,,,,,,,,,,,,,,,,,,,,,,,,,,,,,,,,,,,,,,,,,,,,,,,,,,,,,,,,,,,,,,,,,,,,,,,,,,,,,,,,,,,,,,,,,,
,8791,CAB,30/12/2004,001,2023-09-27_15h50.58.995,OS3_Mult_verification,2022.2.4,Win32,59.31549914,,,63,1.6493,1,"[""6"",""3"",""return""]","[0.9770999999996377,1.5112999999998067,1.617700000000184]",1,14,45,27,1,63,,,,,,,,,,,,,,,,,,,,,,,,,,,,,,,,,,,,,,,,,,,,,,,,,,,,,,,,,,,,,,,,,,,,,,,,,,,,,,,,,,,,,,,,,,,,,,,,,,,,,,,,,,,,,,,,,,,,,,,,,,,,,,,,,,,,,,,,,,,,,,,,,,,,,,,,,,,,,,,,,
,8791,CAB,30/12/2004,001,2023-09-27_15h50.58.995,OS3_Mult_verification,2022.2.4,Win32,59.31549914,,,6,1.0552,1,"[""6"",""return""]","[0.8952999999998212,1.0277999999998144]",1,15,46,1,1,6,,,,,,,,,,,,,,,,,,,,,,,,,,,,,,,,,,,,,,,,,,,,,,,,,,,,,,,,,,,,,,,,,,,,,,,,,,,,,,,,,,,,,,,,,,,,,,,,,,,,,,,,,,,,,,,,,,,,,,,,,,,,,,,,,,,,,,,,,,,,,,,,,,,,,,,,,,,,,,,,,
,8791,CAB,30/12/2004,001,2023-09-27_15h50.58.995,OS3_Mult_verification,2022.2.4,Win32,59.31549914,,,35,1.2492,1,"[""3"",""5"",""return""]","[0.9007999999998049,1.117999999999995,1.2175999999996066]",1,16,47,18,1,35,,,,,,,,,,,,,,,,,,,,,,,,,,,,,,,,,,,,,,,,,,,,,,,,,,,,,,,,,,,,,,,,,,,,,,,,,,,,,,,,,,,,,,,,,,,,,,,,,,,,,,,,,,,,,,,,,,,,,,,,,,,,,,,,,,,,,,,,,,,,,,,,,,,,,,,,,,,,,,,,,
,8791,CAB,30/12/2004,001,2023-09-27_15h50.58.995,OS3_Mult_verification,2022.2.4,Win32,59.31549914,,,25,1.6834,1,"[""2"",""5"",""return""]","[0.9687000000001831,1.433799999999792,1.6504999999999939]",1,17,48,13,1,25,,,,,,,,,,,,,,,,,,,,,,,,,,,,,,,,,,,,,,,,,,,,,,,,,,,,,,,,,,,,,,,,,,,,,,,,,,,,,,,,,,,,,,,,,,,,,,,,,,,,,,,,,,,,,,,,,,,,,,,,,,,,,,,,,,,,,,,,,,,,,,,,,,,,,,,,,,,,,,,,,
,8791,CAB,30/12/2004,001,2023-09-27_15h50.58.995,OS3_Mult_verification,2022.2.4,Win32,59.31549914,,,64,1.3609,1,"[""6"",""4"",""return""]","[0.9510000000000218,1.1668999999994583,1.334399999999448]",1,18,49,28,1,64,,,,,,,,,,,,,,,,,,,,,,,,,,,,,,,,,,,,,,,,,,,,,,,,,,,,,,,,,,,,,,,,,,,,,,,,,,,,,,,,,,,,,,,,,,,,,,,,,,,,,,,,,,,,,,,,,,,,,,,,,,,,,,,,,,,,,,,,,,,,,,,,,,,,,,,,,,,,,,,,,
,8791,CAB,30/12/2004,001,2023-09-27_15h50.58.995,OS3_Mult_verification,2022.2.4,Win32,59.31549914,,,16,1.4166,1,"[""1"",""6"",""return""]","[0.8185000000000002,1.1837000000001865,1.3837000000002035]",1,19,50,8,1,16,,,,,,,,,,,,,,,,,,,,,,,,,,,,,,,,,,,,,,,,,,,,,,,,,,,,,,,,,,,,,,,,,,,,,,,,,,,,,,,,,,,,,,,,,,,,,,,,,,,,,,,,,,,,,,,,,,,,,,,,,,,,,,,,,,,,,,,,,,,,,,,,,,,,,,,,,,,,,,,,,
,8791,CAB,30/12/2004,001,2023-09-27_15h50.58.995,OS3_Mult_verification,2022.2.4,Win32,59.31549914,,,20,1.249,1,"[""2"",""0"",""return""]","[0.6837000000001865,1.0017000000001985,1.217599999999635]",1,20,51,10,1,20,,,,,,,,,,,,,,,,,,,,,,,,,,,,,,,,,,,,,,,,,,,,,,,,,,,,,,,,,,,,,,,,,,,,,,,,,,,,,,,,,,,,,,,,,,,,,,,,,,,,,,,,,,,,,,,,,,,,,,,,,,,,,,,,,,,,,,,,,,,,,,,,,,,,,,,,,,,,,,,,,
,8791,CAB,30/12/2004,001,2023-09-27_15h50.58.995,OS3_Mult_verification,2022.2.4,Win32,59.31549914,,,4,0.9825,1,"[""4"",""return""]","[0.7514000000003591,0.9505000000000052]",1,21,52,0,1,4,,,,,,,,,,,,,,,,,,,,,,,,,,,,,,,,,,,,,,,,,,,,,,,,,,,,,,,,,,,,,,,,,,,,,,,,,,,,,,,,,,,,,,,,,,,,,,,,,,,,,,,,,,,,,,,,,,,,,,,,,,,,,,,,,,,,,,,,,,,,,,,,,,,,,,,,,,,,,,,,,
,8791,CAB,30/12/2004,001,2023-09-27_15h50.58.995,OS3_Mult_verification,2022.2.4,Win32,59.31549914,,,81,1.5397,1,"[""8"",""1"",""return""]","[1.217299999999824,1.3841999999992822,1.5005999999996504]",1,22,53,30,1,81,,,,,,,,,,,,,,,,,,,,,,,,,,,,,,,,,,,,,,,,,,,,,,,,,,,,,,,,,,,,,,,,,,,,,,,,,,,,,,,,,,,,,,,,,,,,,,,,,,,,,,,,,,,,,,,,,,,,,,,,,,,,,,,,,,,,,,,,,,,,,,,,,,,,,,,,,,,,,,,,,
,8791,CAB,30/12/2004,001,2023-09-27_15h50.58.995,OS3_Mult_verification,2022.2.4,Win32,59.31549914,,,72,1.7156,1,"[""7"",""2"",""return""]","[1.1692000000001883,1.5672000000001844,1.6839000000003637]",1,23,54,29,1,72,,,,,,,,,,,,,,,,,,,,,,,,,,,,,,,,,,,,,,,,,,,,,,,,,,,,,,,,,,,,,,,,,,,,,,,,,,,,,,,,,,,,,,,,,,,,,,,,,,,,,,,,,,,,,,,,,,,,,,,,,,,,,,,,,,,,,,,,,,,,,,,,,,,,,,,,,,,,,,,,,
,8791,CAB,30/12/2004,001,2023-09-27_15h50.58.995,OS3_Mult_verification,2022.2.4,Win32,59.31549914,,,18,1.2975,1,"[""1"",""8"",""return""]","[0.6177999999998178,1.1180999999996288,1.2677000000001897]",1,24,55,9,1,18,,,,,,,,,,,,,,,,,,,,,,,,,,,,,,,,,,,,,,,,,,,,,,,,,,,,,,,,,,,,,,,,,,,,,,,,,,,,,,,,,,,,,,,,,,,,,,,,,,,,,,,,,,,,,,,,,,,,,,,,,,,,,,,,,,,,,,,,,,,,,,,,,,,,,,,,,,,,,,,,,
,8791,CAB,30/12/2004,001,2023-09-27_15h50.58.995,OS3_Mult_verification,2022.2.4,Win32,59.31549914,,,24,1.2845,1,"[""2"",""4"",""return""]","[0.9006000000005656,1.1343000000007635,1.2505000000000166]",1,25,56,12,1,24,,,,,,,,,,,,,,,,,,,,,,,,,,,,,,,,,,,,,,,,,,,,,,,,,,,,,,,,,,,,,,,,,,,,,,,,,,,,,,,,,,,,,,,,,,,,,,,,,,,,,,,,,,,,,,,,,,,,,,,,,,,,,,,,,,,,,,,,,,,,,,,,,,,,,,,,,,,,,,,,,
,8791,CAB,30/12/2004,001,2023-09-27_15h50.58.995,OS3_Mult_verification,2022.2.4,Win32,59.31549914,,,14,1.1506,1,"[""1"",""4"",""return""]","[0.617400000000373,0.935700000000196,1.1175000000000068]",1,26,57,6,1,14,,,,,,,,,,,,,,,,,,,,,,,,,,,,,,,,,,,,,,,,,,,,,,,,,,,,,,,,,,,,,,,,,,,,,,,,,,,,,,,,,,,,,,,,,,,,,,,,,,,,,,,,,,,,,,,,,,,,,,,,,,,,,,,,,,,,,,,,,,,,,,,,,,,,,,,,,,,,,,,,,
,8791,CAB,30/12/2004,001,2023-09-27_15h50.58.995,OS3_Mult_verification,2022.2.4,Win32,59.31549914,,,42,1.3392,1,"[""4"",""2"",""return""]","[0.8342999999998142,1.0678999999994403,1.3000999999996168]",1,27,58,21,1,42,,,,,,,,,,,,,,,,,,,,,,,,,,,,,,,,,,,,,,,,,,,,,,,,,,,,,,,,,,,,,,,,,,,,,,,,,,,,,,,,,,,,,,,,,,,,,,,,,,,,,,,,,,,,,,,,,,,,,,,,,,,,,,,,,,,,,,,,,,,,,,,,,,,,,,,,,,,,,,,,,
,8791,CAB,30/12/2004,001,2023-09-27_15h50.58.995,OS3_Mult_verification,2022.2.4,Win32,59.31549914,,,15,1.0657,1,"[""1"",""5"",""return""]","[0.6185000000000116,0.9001000000005774,1.0339000000003864]",1,28,59,7,1,15,,,,,,,,,,,,,,,,,,,,,,,,,,,,,,,,,,,,,,,,,,,,,,,,,,,,,,,,,,,,,,,,,,,,,,,,,,,,,,,,,,,,,,,,,,,,,,,,,,,,,,,,,,,,,,,,,,,,,,,,,,,,,,,,,,,,,,,,,,,,,,,,,,,,,,,,,,,,,,,,,
,8791,CAB,30/12/2004,001,2023-09-27_15h50.58.995,OS3_Mult_verification,2022.2.4,Win32,59.31549914,,,27,1.5166,1,"[""2"",""7"",""return""]","[0.883799999999809,1.2685000000000173,1.483599999999626]",1,29,60,14,1,27,,,,,,,,,,,,,,,,,,,,,,,,,,,,,,,,,,,,,,,,,,,,,,,,,,,,,,,,,,,,,,,,,,,,,,,,,,,,,,,,,,,,,,,,,,,,,,,,,,,,,,,,,,,,,,,,,,,,,,,,,,,,,,,,,,,,,,,,,,,,,,,,,,,,,,,,,,,,,,,,,
,8791,CAB,30/12/2004,001,2023-09-27_15h50.58.995,OS3_Mult_verification,2022.2.4,Win32,59.31549914,,,9,1.4825,1,"[""9"",""return""]","[1.0879999999999939,1.4509000000003596]",1,30,61,3,1,9,,,,,,,,,,,,,,,,,,,,,,,,,,,,,,,,,,,,,,,,,,,,,,,,,,,,,,,,,,,,,,,,,,,,,,,,,,,,,,,,,,,,,,,,,,,,,,,,,,,,,,,,,,,,,,,,,,,,,,,,,,,,,,,,,,,,,,,,,,,,,,,,,,,,,,,,,,,,,,,,,
,8791,CAB,30/12/2004,001,2023-09-27_15h50.58.995,OS3_Mult_verification,2022.2.4,Win32,59.31549914,,,,,,,,,,,,,,space,3.2541,,,,,,,,,,,,,,,,,,,,,,,,,,,,,,,,,,,,,,,,,,,,,,,,,,,,,,,,,,,,,,,,,,,,,,,,,,,,,,,,,,,,,,,,,,,,,,,,,,,,,,,,,,,,,,,,,,,,,,,,,,,,,,,,,,,,,,,,,,,,,,,,,,,,,,,,,,,,,,,
,8791,CAB,30/12/2004,001,2023-09-27_15h50.58.995,OS3_Mult_verification,2022.2.4,Win32,59.31549914,,,,,,,,,,,,,,,,,,,,,,,,,,,,,,,,,,,,,,,,,,,,,,,,,,,,,,,,,,,,,,,,,,,,,,,,,,,,,,,,,,,,,,,,,,,,,,,,,,,,,,,,,,,,,,,,,,,,,,,,,,,,,,,,,,,,,,,,,,,,,,,,,,,,,,,,,,,,,,,,,,,,,,,,,,,,,,
,8791,CAB,30/12/2004,001,2023-09-27_15h50.58.995,OS3_Mult_verification,2022.2.4,Win32,59.31549914,,,,,,,,,,,,,,,,space,5.8699,,,,,,,,,,,,,,,,,,,,,,,,,,,,,,,,,,,,,,,,,,,,,,,,,,,,,,,,,,,,,,,,,,,,,,,,,,,,,,,,,,,,,,,,,,,,,,,,,,,,,,,,,,,,,,,,,,,,,,,,,,,,,,,,,,,,,,,,,,,,,,,,,,,,,,,,,,,,,
,8791,CAB,30/12/2004,001,2023-09-27_15h50.58.995,OS3_Mult_verification,2022.2.4,Win32,59.31549914,,,,,,,,,,,,,,,,,,7,2.3891,1,"[""7"",""return""]","[1.4719000000003746,2.076200000000199]",0,0,0,0,1,1 × 7 =,7,,,,,,,,,,,,,,,,,,,,,,,,,,,,,,,,,,,,,,,,,,,,,,,,,,,,,,,,,,,,,,,,,,,,,,,,,,,,,,,,,,,,,,,,,,,,,,,,,,,,,,,,,,,,,,,,,,,,,,,,,,,,,,,,,,,,,,,,,,,,,,,,,
,8791,CAB,30/12/2004,001,2023-09-27_15h50.58.995,OS3_Mult_verification,2022.2.4,Win32,59.31549914,,,,,,,,,,,,,,,,,,20,2.0827,1,"[""2"",""0"",""return""]","[1.2615000000000123,1.5641000000005647,1.803700000000191]",0,1,1,1,1,2 × 10 =,20,,,,,,,,,,,,,,,,,,,,,,,,,,,,,,,,,,,,,,,,,,,,,,,,,,,,,,,,,,,,,,,,,,,,,,,,,,,,,,,,,,,,,,,,,,,,,,,,,,,,,,,,,,,,,,,,,,,,,,,,,,,,,,,,,,,,,,,,,,,,,,,,,
,8791,CAB,30/12/2004,001,2023-09-27_15h50.58.995,OS3_Mult_verification,2022.2.4,Win32,59.31549914,,,,,,,,,,,,,,,,,,22,1.5655,1,"[""2"",""2"",""return""]","[0.9645000000000437,1.117700000000184,1.26720000000023]",0,2,2,2,1,2 × 11 =,22,,,,,,,,,,,,,,,,,,,,,,,,,,,,,,,,,,,,,,,,,,,,,,,,,,,,,,,,,,,,,,,,,,,,,,,,,,,,,,,,,,,,,,,,,,,,,,,,,,,,,,,,,,,,,,,,,,,,,,,,,,,,,,,,,,,,,,,,,,,,,,,,,
,8791,CAB,30/12/2004,001,2023-09-27_15h50.58.995,OS3_Mult_verification,2022.2.4,Win32,59.31549914,,,,,,,,,,,,,,,,,,,,,,,,,,,,,,,,,,,,,,,,,,,,,,,,,,,,,,,,,,,,,,,,,,,,,,,,,,,,,,,,,,,,,,,,,,,,,,,,,,,,,,,,,,,,,,,,,,,,,,,,,,,,,,,,,,,,,,,,,,,,,,,,,,,,,,,,,,,,,,,,,,,,,,,,,,,,,,
,8791,CAB,30/12/2004,001,2023-09-27_15h50.58.995,OS3_Mult_verification,2022.2.4,Win32,59.31549914,,,,,,,,,,,,,,,,,,,,,,,,,,,,,,,,,,,,,,,,,,,,,,,,,,,,,,,,,,,,,,,,,,,,,,,,,,,,,,,,,,,,,,,,,,,,,,,,,,,,,,,,,,,,,,,,,,,,,,,,,,,,,,,,,,,,,,,,,,,,,,,,,,,,,,,,,,,,,,,,,,,,,,,,,,,,,,
,8791,CAB,30/12/2004,001,2023-09-27_15h50.58.995,OS3_Mult_verification,2022.2.4,Win32,59.31549914,,,,,,,,,,,,,,,,,,6,1.8586,1,"[""6"",""return""]","[1.4672000000001617,1.5676000000005388]",,,,,,2 × 3 =,6,0,0,0,0,1,,,,,,,,,,,,,,,,,,,,,,,,,,,,,,,,,,,,,,,,,,,,,,,,,,,,,,,,,,,,,,,,,,,,,,,,,,,,,,,,,,,,,,,,,,,,,,,,,,,,,,,,,,,,,,,,,,,,,,,,,,,,,,,,,,,,,,,,,,,,
,8791,CAB,30/12/2004,001,2023-09-27_15h50.58.995,OS3_Mult_verification,2022.2.4,Win32,59.31549914,,,,,,,,,,,,,,,,,,40,2.8821,1,"[""4"",""0"",""return""]","[2.0848000000007687,2.4840000000000373,2.581800000000783]",,,,,,5 × 8 =,40,0,1,1,1,1,,,,,,,,,,,,,,,,,,,,,,,,,,,,,,,,,,,,,,,,,,,,,,,,,,,,,,,,,,,,,,,,,,,,,,,,,,,,,,,,,,,,,,,,,,,,,,,,,,,,,,,,,,,,,,,,,,,,,,,,,,,,,,,,,,,,,,,,,,,,
,8791,CAB,30/12/2004,001,2023-09-27_15h50.58.995,OS3_Mult_verification,2022.2.4,Win32,59.31549914,,,,,,,,,,,,,,,,,,12,1.7494,1,"[""1"",""2"",""return""]","[1.1850000000000023,1.3847999999998137,1.4671999999992522]",,,,,,3 × 4 =,12,0,2,2,2,1,,,,,,,,,,,,,,,,,,,,,,,,,,,,,,,,,,,,,,,,,,,,,,,,,,,,,,,,,,,,,,,,,,,,,,,,,,,,,,,,,,,,,,,,,,,,,,,,,,,,,,,,,,,,,,,,,,,,,,,,,,,,,,,,,,,,,,,,,,,,
,8791,CAB,30/12/2004,001,2023-09-27_15h50.58.995,OS3_Mult_verification,2022.2.4,Win32,59.31549914,,,,,,,,,,,,,,,,,,15,1.8825,1,"[""1"",""5"",""return""]","[1.0687000000002058,1.4533000000007519,1.5839000000003693]",,,,,,5 × 3 =,15,0,3,3,3,1,,,,,,,,,,,,,,,,,,,,,,,,,,,,,,,,,,,,,,,,,,,,,,,,,,,,,,,,,,,,,,,,,,,,,,,,,,,,,,,,,,,,,,,,,,,,,,,,,,,,,,,,,,,,,,,,,,,,,,,,,,,,,,,,,,,,,,,,,,,,
,8791,CAB,30/12/2004,001,2023-09-27_15h50.58.995,OS3_Mult_verification,2022.2.4,Win32,59.31549914,,,,,,,,,,,,,,,,,,6,1.7663,0,"[""6"",""return""]","[1.350799999999822,1.4672999999998524]",,,,,,2 × 4 =,8,0,4,4,4,1,,,,,,,,,,,,,,,,,,,,,,,,,,,,,,,,,,,,,,,,,,,,,,,,,,,,,,,,,,,,,,,,,,,,,,,,,,,,,,,,,,,,,,,,,,,,,,,,,,,,,,,,,,,,,,,,,,,,,,,,,,,,,,,,,,,,,,,,,,,,
,8791,CAB,30/12/2004,001,2023-09-27_15h50.58.995,OS3_Mult_verification,2022.2.4,Win32,59.31549914,,,,,,,,,,,,,,,,,,4,1.301,1,"[""4"",""return""]","[0.9014000000003648,1.017400000000407]",,,,,,2 × 2 =,4,0,5,5,5,1,,,,,,,,,,,,,,,,,,,,,,,,,,,,,,,,,,,,,,,,,,,,,,,,,,,,,,,,,,,,,,,,,,,,,,,,,,,,,,,,,,,,,,,,,,,,,,,,,,,,,,,,,,,,,,,,,,,,,,,,,,,,,,,,,,,,,,,,,,,,
,8791,CAB,30/12/2004,001,2023-09-27_15h50.58.995,OS3_Mult_verification,2022.2.4,Win32,59.31549914,,,,,,,,,,,,,,,,,,20,1.9811,1,"[""2"",""0"",""return""]","[1.100799999999822,1.6000999999996566,1.683499999999981]",,,,,,4 × 5 =,20,0,6,6,6,1,,,,,,,,,,,,,,,,,,,,,,,,,,,,,,,,,,,,,,,,,,,,,,,,,,,,,,,,,,,,,,,,,,,,,,,,,,,,,,,,,,,,,,,,,,,,,,,,,,,,,,,,,,,,,,,,,,,,,,,,,,,,,,,,,,,,,,,,,,,,
,8791,CAB,30/12/2004,001,2023-09-27_15h50.58.995,OS3_Mult_verification,2022.2.4,Win32,59.31549914,,,,,,,,,,,,,,,,,,9,1.8436,1,"[""9"",""return""]","[1.3729999999999905,1.544700000000205]",,,,,,3 × 3 =,9,0,7,7,7,1,,,,,,,,,,,,,,,,,,,,,,,,,,,,,,,,,,,,,,,,,,,,,,,,,,,,,,,,,,,,,,,,,,,,,,,,,,,,,,,,,,,,,,,,,,,,,,,,,,,,,,,,,,,,,,,,,,,,,,,,,,,,,,,,,,,,,,,,,,,,
,8791,CAB,30/12/2004,001,2023-09-27_15h50.58.995,OS3_Mult_verification,2022.2.4,Win32,59.31549914,,,,,,,,,,,,,,,,,,10,1.7994,1,"[""1"",""0"",""return""]","[0.9464000000003807,1.3611000000005902,1.5021000000005529]",,,,,,5 × 2 =,10,0,8,8,8,1,,,,,,,,,,,,,,,,,,,,,,,,,,,,,,,,,,,,,,,,,,,,,,,,,,,,,,,,,,,,,,,,,,,,,,,,,,,,,,,,,,,,,,,,,,,,,,,,,,,,,,,,,,,,,,,,,,,,,,,,,,,,,,,,,,,,,,,,,,,,
,8791,CAB,30/12/2004,001,2023-09-27_15h50.58.995,OS3_Mult_verification,2022.2.4,Win32,59.31549914,,,,,,,,,,,,,,,,,,16,2.5991,1,"[""1"",""6"",""return""]","[1.4044999999999845,2.1641000000005306,2.2964999999999804]",,,,,,4 × 4 =,16,0,9,9,9,1,,,,,,,,,,,,,,,,,,,,,,,,,,,,,,,,,,,,,,,,,,,,,,,,,,,,,,,,,,,,,,,,,,,,,,,,,,,,,,,,,,,,,,,,,,,,,,,,,,,,,,,,,,,,,,,,,,,,,,,,,,,,,,,,,,,,,,,,,,,,
,8791,CAB,30/12/2004,001,2023-09-27_15h50.58.995,OS3_Mult_verification,2022.2.4,Win32,59.31549914,,,,,,,,,,,,,,,,,,24,1.7327,1,"[""2"",""4"",""return""]","[1.0670000000000073,1.3032000000001744,1.4352000000001794]",,,,,,8 × 3 =,24,0,10,10,10,1,,,,,,,,,,,,,,,,,,,,,,,,,,,,,,,,,,,,,,,,,,,,,,,,,,,,,,,,,,,,,,,,,,,,,,,,,,,,,,,,,,,,,,,,,,,,,,,,,,,,,,,,,,,,,,,,,,,,,,,,,,,,,,,,,,,,,,,,,,,,
,8791,CAB,30/12/2004,001,2023-09-27_15h50.58.995,OS3_Mult_verification,2022.2.4,Win32,59.31549914,,,,,,,,,,,,,,,,,,30,2.3159,1,"[""3"",""0"",""return""]","[1.4808999999994512,1.8882000000002108,2.014799999999809]",,,,,,6 × 5 =,30,0,11,11,11,1,,,,,,,,,,,,,,,,,,,,,,,,,,,,,,,,,,,,,,,,,,,,,,,,,,,,,,,,,,,,,,,,,,,,,,,,,,,,,,,,,,,,,,,,,,,,,,,,,,,,,,,,,,,,,,,,,,,,,,,,,,,,,,,,,,,,,,,,,,,,
,8791,CAB,30/12/2004,001,2023-09-27_15h50.58.995,OS3_Mult_verification,2022.2.4,Win32,59.31549914,,,,,,,,,,,,,,,,,,14,2.7827,1,"[""1"",""4"",""return""]","[2.1517000000002326,2.398900000000367,2.4802000000001954]",,,,,,7 × 2 =,14,0,12,12,12,1,,,,,,,,,,,,,,,,,,,,,,,,,,,,,,,,,,,,,,,,,,,,,,,,,,,,,,,,,,,,,,,,,,,,,,,,,,,,,,,,,,,,,,,,,,,,,,,,,,,,,,,,,,,,,,,,,,,,,,,,,,,,,,,,,,,,,,,,,,,,
,8791,CAB,30/12/2004,001,2023-09-27_15h50.58.995,OS3_Mult_verification,2022.2.4,Win32,59.31549914,,,,,,,,,,,,,,,,,,27,2.5329,1,"[""2"",""7"",""return""]","[1.4805000000000064,1.9113000000007219,2.232700000000193]",,,,,,3 × 9 =,27,0,13,13,13,1,,,,,,,,,,,,,,,,,,,,,,,,,,,,,,,,,,,,,,,,,,,,,,,,,,,,,,,,,,,,,,,,,,,,,,,,,,,,,,,,,,,,,,,,,,,,,,,,,,,,,,,,,,,,,,,,,,,,,,,,,,,,,,,,,,,,,,,,,,,,
,8791,CAB,30/12/2004,001,2023-09-27_15h50.58.995,OS3_Mult_verification,2022.2.4,Win32,59.31549914,,,,,,,,,,,,,,,,,,16,2.0326,1,"[""1"",""6"",""return""]","[0.8801000000005388,1.5726000000005342,1.7382000000001767]",,,,,,2 × 8 =,16,0,14,14,14,1,,,,,,,,,,,,,,,,,,,,,,,,,,,,,,,,,,,,,,,,,,,,,,,,,,,,,,,,,,,,,,,,,,,,,,,,,,,,,,,,,,,,,,,,,,,,,,,,,,,,,,,,,,,,,,,,,,,,,,,,,,,,,,,,,,,,,,,,,,,,
,8791,CAB,30/12/2004,001,2023-09-27_15h50.58.995,OS3_Mult_verification,2022.2.4,Win32,59.31549914,,,,,,,,,,,,,,,,,,24,2.4663,1,"[""2"",""4"",""return""]","[1.6108999999994467,1.8632999999998106,2.164699999999243]",,,,,,4 × 6 =,24,0,15,15,15,1,,,,,,,,,,,,,,,,,,,,,,,,,,,,,,,,,,,,,,,,,,,,,,,,,,,,,,,,,,,,,,,,,,,,,,,,,,,,,,,,,,,,,,,,,,,,,,,,,,,,,,,,,,,,,,,,,,,,,,,,,,,,,,,,,,,,,,,,,,,,
,8791,CAB,30/12/2004,001,2023-09-27_15h50.58.995,OS3_Mult_verification,2022.2.4,Win32,59.31549914,,,,,,,,,,,,,,,,,,21,1.621,1,"[""2"",""1"",""return""]","[1.024899999999434,1.1924999999999955,1.3330999999996607]",,,,,,7 × 3 =,21,0,16,16,16,1,,,,,,,,,,,,,,,,,,,,,,,,,,,,,,,,,,,,,,,,,,,,,,,,,,,,,,,,,,,,,,,,,,,,,,,,,,,,,,,,,,,,,,,,,,,,,,,,,,,,,,,,,,,,,,,,,,,,,,,,,,,,,,,,,,,,,,,,,,,,
,8791,CAB,30/12/2004,001,2023-09-27_15h50.58.995,OS3_Mult_verification,2022.2.4,Win32,59.31549914,,,,,,,,,,,,,,,,,,27,2.5321,1,"[""2"",""7"",""return""]","[1.4246000000005665,2.1012000000001763,2.234600000000569]",,,,,,9 × 3 =,27,0,17,17,17,1,,,,,,,,,,,,,,,,,,,,,,,,,,,,,,,,,,,,,,,,,,,,,,,,,,,,,,,,,,,,,,,,,,,,,,,,,,,,,,,,,,,,,,,,,,,,,,,,,,,,,,,,,,,,,,,,,,,,,,,,,,,,,,,,,,,,,,,,,,,,
,8791,CAB,30/12/2004,001,2023-09-27_15h50.58.995,OS3_Mult_verification,2022.2.4,Win32,59.31549914,,,,,,,,,,,,,,,,,,28,1.9165,1,"[""2"",""8"",""return""]","[1.0016999999992322,1.4670999999996184,1.6175000000000068]",,,,,,4 × 7 =,28,0,18,18,18,1,,,,,,,,,,,,,,,,,,,,,,,,,,,,,,,,,,,,,,,,,,,,,,,,,,,,,,,,,,,,,,,,,,,,,,,,,,,,,,,,,,,,,,,,,,,,,,,,,,,,,,,,,,,,,,,,,,,,,,,,,,,,,,,,,,,,,,,,,,,,
,8791,CAB,30/12/2004,001,2023-09-27_15h50.58.995,OS3_Mult_verification,2022.2.4,Win32,59.31549914,,,,,,,,,,,,,,,,,,18,2.567,1,"[""1"",""8"",""return""]","[1.452099999999632,2.069299999999828,2.2662000000001967]",,,,,,2 × 9 =,18,0,19,19,19,1,,,,,,,,,,,,,,,,,,,,,,,,,,,,,,,,,,,,,,,,,,,,,,,,,,,,,,,,,,,,,,,,,,,,,,,,,,,,,,,,,,,,,,,,,,,,,,,,,,,,,,,,,,,,,,,,,,,,,,,,,,,,,,,,,,,,,,,,,,,,
,8791,CAB,30/12/2004,001,2023-09-27_15h50.58.995,OS3_Mult_verification,2022.2.4,Win32,59.31549914,,,,,,,,,,,,,,,,,,72,2.7988,1,"[""7"",""2"",""return""]","[1.9177999999998292,2.3514999999999873,2.500599999999622]",,,,,,9 × 8 =,72,0,20,20,20,1,,,,,,,,,,,,,,,,,,,,,,,,,,,,,,,,,,,,,,,,,,,,,,,,,,,,,,,,,,,,,,,,,,,,,,,,,,,,,,,,,,,,,,,,,,,,,,,,,,,,,,,,,,,,,,,,,,,,,,,,,,,,,,,,,,,,,,,,,,,,
,8791,CAB,30/12/2004,001,2023-09-27_15h50.58.995,OS3_Mult_verification,2022.2.4,Win32,59.31549914,,,,,,,,,,,,,,,,,,42,2.199,1,"[""4"",""2"",""return""]","[1.551900000000387,1.7849000000003912,1.9011000000005538]",,,,,,7 × 6 =,42,0,21,21,21,1,,,,,,,,,,,,,,,,,,,,,,,,,,,,,,,,,,,,,,,,,,,,,,,,,,,,,,,,,,,,,,,,,,,,,,,,,,,,,,,,,,,,,,,,,,,,,,,,,,,,,,,,,,,,,,,,,,,,,,,,,,,,,,,,,,,,,,,,,,,,
,8791,CAB,30/12/2004,001,2023-09-27_15h50.58.995,OS3_Mult_verification,2022.2.4,Win32,59.31549914,,,,,,,,,,,,,,,,,,53,14.0158,0,"[""5"",""3"",""return""]","[13.267799999999795,13.585700000000202,13.73399999999998]",,,,,,6 × 9 =,54,0,22,22,22,1,,,,,,,,,,,,,,,,,,,,,,,,,,,,,,,,,,,,,,,,,,,,,,,,,,,,,,,,,,,,,,,,,,,,,,,,,,,,,,,,,,,,,,,,,,,,,,,,,,,,,,,,,,,,,,,,,,,,,,,,,,,,,,,,,,,,,,,,,,,,
,8791,CAB,30/12/2004,001,2023-09-27_15h50.58.995,OS3_Mult_verification,2022.2.4,Win32,59.31549914,,,,,,,,,,,,,,,,,,45,3.6162,1,"[""4"",""5"",""return""]","[3.09159999999963,3.2682000000001494,3.3354999999999677]",,,,,,9 × 5 =,45,0,23,23,23,1,,,,,,,,,,,,,,,,,,,,,,,,,,,,,,,,,,,,,,,,,,,,,,,,,,,,,,,,,,,,,,,,,,,,,,,,,,,,,,,,,,,,,,,,,,,,,,,,,,,,,,,,,,,,,,,,,,,,,,,,,,,,,,,,,,,,,,,,,,,,
,8791,CAB,30/12/2004,001,2023-09-27_15h50.58.995,OS3_Mult_verification,2022.2.4,Win32,59.31549914,,,,,,,,,,,,,,,,,,56,1.8991,1,"[""5"",""6"",""return""]","[1.3178999999994403,1.5012999999998442,1.6170000000000186]",,,,,,8 × 7 =,56,0,24,24,24,1,,,,,,,,,,,,,,,,,,,,,,,,,,,,,,,,,,,,,,,,,,,,,,,,,,,,,,,,,,,,,,,,,,,,,,,,,,,,,,,,,,,,,,,,,,,,,,,,,,,,,,,,,,,,,,,,,,,,,,,,,,,,,,,,,,,,,,,,,,,,
,8791,CAB,30/12/2004,001,2023-09-27_15h50.58.995,OS3_Mult_verification,2022.2.4,Win32,59.31549914,,,,,,,,,,,,,,,,,,36,1.8662,1,"[""3"",""6"",""return""]","[1.051799999999787,1.4675999999996066,1.5670999999995843]",,,,,,6 × 6 =,36,0,25,25,25,1,,,,,,,,,,,,,,,,,,,,,,,,,,,,,,,,,,,,,,,,,,,,,,,,,,,,,,,,,,,,,,,,,,,,,,,,,,,,,,,,,,,,,,,,,,,,,,,,,,,,,,,,,,,,,,,,,,,,,,,,,,,,,,,,,,,,,,,,,,,,
,8791,CAB,30/12/2004,001,2023-09-27_15h50.58.995,OS3_Mult_verification,2022.2.4,Win32,59.31549914,,,,,,,,,,,,,,,,,,35,4.4665,1,"[""3"",""5"",""return""]","[3.4505999999996675,3.9845000000000255,4.185000000000002]",,,,,,5 × 7 =,35,0,26,26,26,1,,,,,,,,,,,,,,,,,,,,,,,,,,,,,,,,,,,,,,,,,,,,,,,,,,,,,,,,,,,,,,,,,,,,,,,,,,,,,,,,,,,,,,,,,,,,,,,,,,,,,,,,,,,,,,,,,,,,,,,,,,,,,,,,,,,,,,,,,,,,
,8791,CAB,30/12/2004,001,2023-09-27_15h50.58.995,OS3_Mult_verification,2022.2.4,Win32,59.31549914,,,,,,,,,,,,,,,,,,36,1.9656,1,"[""3"",""6"",""return""]","[1.1512000000001876,1.5347999999998478,1.6669000000003962]",,,,,,4 × 9 =,36,0,27,27,27,1,,,,,,,,,,,,,,,,,,,,,,,,,,,,,,,,,,,,,,,,,,,,,,,,,,,,,,,,,,,,,,,,,,,,,,,,,,,,,,,,,,,,,,,,,,,,,,,,,,,,,,,,,,,,,,,,,,,,,,,,,,,,,,,,,,,,,,,,,,,,
,8791,CAB,30/12/2004,001,2023-09-27_15h50.58.995,OS3_Mult_verification,2022.2.4,Win32,59.31549914,,,,,,,,,,,,,,,,,,48,2.4814,1,"[""4"",""8"",""return""]","[1.7005000000000337,2.0685999999996625,2.184799999999825]",,,,,,8 × 6 =,48,0,28,28,28,1,,,,,,,,,,,,,,,,,,,,,,,,,,,,,,,,,,,,,,,,,,,,,,,,,,,,,,,,,,,,,,,,,,,,,,,,,,,,,,,,,,,,,,,,,,,,,,,,,,,,,,,,,,,,,,,,,,,,,,,,,,,,,,,,,,,,,,,,,,,,
,8791,CAB,30/12/2004,001,2023-09-27_15h50.58.995,OS3_Mult_verification,2022.2.4,Win32,59.31549914,,,,,,,,,,,,,,,,,,63,2.5333,1,"[""6"",""3"",""return""]","[1.5677000000001726,2.051400000000399,2.238300000000777]",,,,,,9 × 7 =,63,0,29,29,29,1,,,,,,,,,,,,,,,,,,,,,,,,,,,,,,,,,,,,,,,,,,,,,,,,,,,,,,,,,,,,,,,,,,,,,,,,,,,,,,,,,,,,,,,,,,,,,,,,,,,,,,,,,,,,,,,,,,,,,,,,,,,,,,,,,,,,,,,,,,,,
,8791,CAB,30/12/2004,001,2023-09-27_15h50.58.995,OS3_Mult_verification,2022.2.4,Win32,59.31549914,,,,,,,,,,,,,,,,,,12,1.7147,1,"[""1"",""2"",""return""]","[1.0748000000007778,1.267200000000173,1.415900000000363]",,,,,,4 × 3 =,12,0,30,30,30,1,,,,,,,,,,,,,,,,,,,,,,,,,,,,,,,,,,,,,,,,,,,,,,,,,,,,,,,,,,,,,,,,,,,,,,,,,,,,,,,,,,,,,,,,,,,,,,,,,,,,,,,,,,,,,,,,,,,,,,,,,,,,,,,,,,,,,,,,,,,,
,8791,CAB,30/12/2004,001,2023-09-27_15h50.58.995,OS3_Mult_verification,2022.2.4,Win32,59.31549914,,,,,,,,,,,,,,,,,,25,2.1498,1,"[""2"",""5"",""return""]","[1.2627999999998565,1.6295000000000073,1.862699999999279]",,,,,,5 × 5 =,25,0,31,31,31,1,,,,,,,,,,,,,,,,,,,,,,,,,,,,,,,,,,,,,,,,,,,,,,,,,,,,,,,,,,,,,,,,,,,,,,,,,,,,,,,,,,,,,,,,,,,,,,,,,,,,,,,,,,,,,,,,,,,,,,,,,,,,,,,,,,,,,,,,,,,,
,8791,CAB,30/12/2004,001,2023-09-27_15h50.58.995,OS3_Mult_verification,2022.2.4,Win32,59.31549914,,,,,,,,,,,,,,,,,,6,2.1491,1,"[""6"",""return""]","[1.6169999999999618,1.8514999999999873]",,,,,,3 × 2 =,6,0,32,32,32,1,,,,,,,,,,,,,,,,,,,,,,,,,,,,,,,,,,,,,,,,,,,,,,,,,,,,,,,,,,,,,,,,,,,,,,,,,,,,,,,,,,,,,,,,,,,,,,,,,,,,,,,,,,,,,,,,,,,,,,,,,,,,,,,,,,,,,,,,,,,,
,8791,CAB,30/12/2004,001,2023-09-27_15h50.58.995,OS3_Mult_verification,2022.2.4,Win32,59.31549914,,,,,,,,,,,,,,,,,,20,2.299,1,"[""2"",""0"",""return""]","[1.2857000000001904,1.886299999999835,2.016999999999996]",,,,,,5 × 4 =,20,0,33,33,33,1,,,,,,,,,,,,,,,,,,,,,,,,,,,,,,,,,,,,,,,,,,,,,,,,,,,,,,,,,,,,,,,,,,,,,,,,,,,,,,,,,,,,,,,,,,,,,,,,,,,,,,,,,,,,,,,,,,,,,,,,,,,,,,,,,,,,,,,,,,,,
,8791,CAB,30/12/2004,001,2023-09-27_15h50.58.995,OS3_Mult_verification,2022.2.4,Win32,59.31549914,,,,,,,,,,,,,,,,,,,1.6668,0,,,,,,,,4 × 2 =,8,0,34,34,34,1,,,,,,,,,,,,,,,,,,,,,,,,,,,,,,,,,,,,,,,,,,,,,,,,,,,,,,,,,,,,,,,,,,,,,,,,,,,,,,,,,,,,,,,,,,,,,,,,,,,,,,,,,,,,,,,,,,,,,,,,,,,,,,,,,,,,,,,,,,,,
,8791,CAB,30/12/2004,001,2023-09-27_15h50.58.995,OS3_Mult_verification,2022.2.4,Win32,59.31549914,,,,,,,,,,,,,,,,space,4.6493,,,,,,,,,,,,,,,,,,space,6.9327,911,3.6382,1,"[""9"",""1"",""1"",""return""]","[2.600999999999999,2.784599999999614,2.9502999999997996,3.5996999999992454]",0,0,0,2,1,3,911,Audio/911.mp3,practice,,,,,,,,,,,,,,,,,,,,,,,,,,,,,,,,,,,,,,,,,,,,,,,,,,,,,,,,,,,,,,,,,,,,,,,,,,,,,,,,,,,,,,,,,,,,,,,,,,,,,,,,,,,,,,,,,,,,,,,,,,,,
,8791,CAB,30/12/2004,001,2023-09-27_15h50.58.995,OS3_Mult_verification,2022.2.4,Win32,59.31549914,,,,,,,,,,,,,,,,,,,,,,,,,,,,,,,,,,,,,123,2.298,1,"[""1"",""2"",""3"",""return""]","[1.0500000000000114,1.301200000000165,1.507299999999816,2.267799999999795]",0,1,1,0,1,3,123,Audio/123.mp3,practice,,,,,,,,,,,,,,,,,,,,,,,,,,,,,,,,,,,,,,,,,,,,,,,,,,,,,,,,,,,,,,,,,,,,,,,,,,,,,,,,,,,,,,,,,,,,,,,,,,,,,,,,,,,,,,,,,,,,,,,,,,,,
,8791,CAB,30/12/2004,001,2023-09-27_15h50.58.995,OS3_Mult_verification,2022.2.4,Win32,59.31549914,,,,,,,,,,,,,,,,,,,,,,,,,,,,,,,,,,,,,321,2.05,1,"[""3"",""2"",""1"",""return""]","[1.1689999999999827,1.3689999999999714,1.5688999999994167,2.016700000000185]",0,2,2,1,1,3,321,Audio/321.mp3,practice,,,,,,,,,,,,,,,,,,,,,,,,,,,,,,,,,,,,,,,,,,,,,,,,,,,,,,,,,,,,,,,,,,,,,,,,,,,,,,,,,,,,,,,,,,,,,,,,,,,,,,,,,,,,,,,,,,,,,,,,,,,,
,8791,CAB,30/12/2004,001,2023-09-27_15h50.58.995,OS3_Mult_verification,2022.2.4,Win32,59.31549914,,,,,,,,,,,,,,,,,,,,,,,,,,,,,,,,,,,,,46,3.1157,1,"[""4"",""6"",""return""]","[2.5009999999999764,2.617200000000139,3.0833000000007473]",,,,,,2,46,Audio/46.mp3,EGNER,0,0,0,0,1,,,,,,,,,,,,,,,,,,,,,,,,,,,,,,,,,,,,,,,,,,,,,,,,,,,,,,,,,,,,,,,,,,,,,,,,,,,,,,,,,,,,,,,,,,,,,,,,,,,,,,,,,,,,,,,,,,,,,,,
,8791,CAB,30/12/2004,001,2023-09-27_15h50.58.995,OS3_Mult_verification,2022.2.4,Win32,59.31549914,,,,,,,,,,,,,,,,,,,,,,,,,,,,,,,,,,,,,82,1.2155,1,"[""8"",""2"",""return""]","[0.9009999999999536,0.9842999999997915,1.183799999999792]",,,,,,2,82,Audio/82.mp3,EGNER,0,1,1,1,1,,,,,,,,,,,,,,,,,,,,,,,,,,,,,,,,,,,,,,,,,,,,,,,,,,,,,,,,,,,,,,,,,,,,,,,,,,,,,,,,,,,,,,,,,,,,,,,,,,,,,,,,,,,,,,,,,,,,,,,
,8791,CAB,30/12/2004,001,2023-09-27_15h50.58.995,OS3_Mult_verification,2022.2.4,Win32,59.31549914,,,,,,,,,,,,,,,,,,,,,,,,,,,,,,,,,,,,,,,,,,,,,,,,,,,,,,,,0,0,0,0,1,digitSpan_stim/twoAudio.xlsx,,,,,,,,,,,,,,,,,,,,,,,,,,,,,,,,,,,,,,,,,,,,,,,,,,,,,,,,,,,,,,,,,,,,,,,,,,,,,,,,,,,,,,,,,,,,,,,,,,,,,,,,,,,,,,,,,
,8791,CAB,30/12/2004,001,2023-09-27_15h50.58.995,OS3_Mult_verification,2022.2.4,Win32,59.31549914,,,,,,,,,,,,,,,,,,,,,,,,,,,,,,,,,,,,,157,1.8819,1,"[""1"",""5"",""7"",""return""]","[0.9012000000001876,1.3838000000007469,1.5509000000003539,1.8506000000005542]",,,,,,3,157,Audio/157.mp3,EGNER,0,0,0,0,1,,,,,,,,,,,,,,,,,,,,,,,,,,,,,,,,,,,,,,,,,,,,,,,,,,,,,,,,,,,,,,,,,,,,,,,,,,,,,,,,,,,,,,,,,,,,,,,,,,,,,,,,,,,,,,,,,,,,,,,
,8791,CAB,30/12/2004,001,2023-09-27_15h50.58.995,OS3_Mult_verification,2022.2.4,Win32,59.31549914,,,,,,,,,,,,,,,,,,,,,,,,,,,,,,,,,,,,,397,1.831,1,"[""3"",""9"",""7"",""return""]","[0.8929999999999723,1.149899999999434,1.51829999999984,1.799899999999468]",,,,,,3,397,Audio/397.mp3,EGNER,0,1,1,1,1,,,,,,,,,,,,,,,,,,,,,,,,,,,,,,,,,,,,,,,,,,,,,,,,,,,,,,,,,,,,,,,,,,,,,,,,,,,,,,,,,,,,,,,,,,,,,,,,,,,,,,,,,,,,,,,,,,,,,,,
,8791,CAB,30/12/2004,001,2023-09-27_15h50.58.995,OS3_Mult_verification,2022.2.4,Win32,59.31549914,,,,,,,,,,,,,,,,,,,,,,,,,,,,,,,,,,,,,,,,,,,,,,,,,,,,,,,,0,1,1,1,1,digitSpan_stim/threeAudio.xlsx,,,,,,,,,,,,,,,,,,,,,,,,,,,,,,,,,,,,,,,,,,,,,,,,,,,,,,,,,,,,,,,,,,,,,,,,,,,,,,,,,,,,,,,,,,,,,,,,,,,,,,,,,,,,,,,,,
,8791,CAB,30/12/2004,001,2023-09-27_15h50.58.995,OS3_Mult_verification,2022.2.4,Win32,59.31549914,,,,,,,,,,,,,,,,,,,,,,,,,,,,,,,,,,,,,6352,2.9638,1,"[""6"",""3"",""5"",""2"",""return""]","[1.2077999999997928,1.7679000000003953,2.051200000000165,2.4012999999998215,2.9335999999996147]",,,,,,4,6352,Audio/6352.mp3,EGNER,0,0,0,0,1,,,,,,,,,,,,,,,,,,,,,,,,,,,,,,,,,,,,,,,,,,,,,,,,,,,,,,,,,,,,,,,,,,,,,,,,,,,,,,,,,,,,,,,,,,,,,,,,,,,,,,,,,,,,,,,,,,,,,,,
,8791,CAB,30/12/2004,001,2023-09-27_15h50.58.995,OS3_Mult_verification,2022.2.4,Win32,59.31549914,,,,,,,,,,,,,,,,,,,,,,,,,,,,,,,,,,,,,9184,2.3654,1,"[""9"",""1"",""8"",""4"",""return""]","[0.8484000000003675,1.098099999999647,1.8075999999996384,2.0680000000000405,2.3339000000003693]",,,,,,4,9184,Audio/9184.mp3,EGNER,0,1,1,1,1,,,,,,,,,,,,,,,,,,,,,,,,,,,,,,,,,,,,,,,,,,,,,,,,,,,,,,,,,,,,,,,,,,,,,,,,,,,,,,,,,,,,,,,,,,,,,,,,,,,,,,,,,,,,,,,,,,,,,,,
,8791,CAB,30/12/2004,001,2023-09-27_15h50.58.995,OS3_Mult_verification,2022.2.4,Win32,59.31549914,,,,,,,,,,,,,,,,,,,,,,,,,,,,,,,,,,,,,,,,,,,,,,,,,,,,,,,,0,2,2,2,1,digitSpan_stim/fourAudio.xlsx,,,,,,,,,,,,,,,,,,,,,,,,,,,,,,,,,,,,,,,,,,,,,,,,,,,,,,,,,,,,,,,,,,,,,,,,,,,,,,,,,,,,,,,,,,,,,,,,,,,,,,,,,,,,,,,,,
,8791,CAB,30/12/2004,001,2023-09-27_15h50.58.995,OS3_Mult_verification,2022.2.4,Win32,59.31549914,,,,,,,,,,,,,,,,,,,,,,,,,,,,,,,,,,,,,59281,2.9656,1,"[""5"",""9"",""2"",""8"",""1"",""return""]","[1.2175000000000296,1.5852000000002135,2.0184000000003834,2.367999999999995,2.5175999999996748,2.934000000000026]",,,,,,5,59281,Audio/59281.mp3,EGNER,0,0,0,0,1,,,,,,,,,,,,,,,,,,,,,,,,,,,,,,,,,,,,,,,,,,,,,,,,,,,,,,,,,,,,,,,,,,,,,,,,,,,,,,,,,,,,,,,,,,,,,,,,,,,,,,,,,,,,,,,,,,,,,,,
,8791,CAB,30/12/2004,001,2023-09-27_15h50.58.995,OS3_Mult_verification,2022.2.4,Win32,59.31549914,,,,,,,,,,,,,,,,,,,,,,,,,,,,,,,,,,,,,64738,3.6672,1,"[""6"",""4"",""7"",""3"",""8"",""return""]","[0.8187999999998397,1.2845000000000368,2.100299999999777,2.651100000000554,2.9012999999998215,3.6342999999997687]",,,,,,5,64738,Audio/64738.mp3,EGNER,0,1,1,1,1,,,,,,,,,,,,,,,,,,,,,,,,,,,,,,,,,,,,,,,,,,,,,,,,,,,,,,,,,,,,,,,,,,,,,,,,,,,,,,,,,,,,,,,,,,,,,,,,,,,,,,,,,,,,,,,,,,,,,,,
,8791,CAB,30/12/2004,001,2023-09-27_15h50.58.995,OS3_Mult_verification,2022.2.4,Win32,59.31549914,,,,,,,,,,,,,,,,,,,,,,,,,,,,,,,,,,,,,,,,,,,,,,,,,,,,,,,,0,3,3,3,1,digitSpan_stim/fiveAudio.xlsx,,,,,,,,,,,,,,,,,,,,,,,,,,,,,,,,,,,,,,,,,,,,,,,,,,,,,,,,,,,,,,,,,,,,,,,,,,,,,,,,,,,,,,,,,,,,,,,,,,,,,,,,,,,,,,,,,
,8791,CAB,30/12/2004,001,2023-09-27_15h50.58.995,OS3_Mult_verification,2022.2.4,Win32,59.31549914,,,,,,,,,,,,,,,,,,,,,,,,,,,,,,,,,,,,,396172,4.1643,1,"[""3"",""9"",""6"",""1"",""7"",""2"",""return""]","[0.818700000000149,1.3679999999999382,2.134999999999991,2.800400000000309,3.4009999999999536,3.5679999999999836,4.134200000000192]",,,,,,6,396172,Audio/396172.mp3,EGNER,0,0,0,0,1,,,,,,,,,,,,,,,,,,,,,,,,,,,,,,,,,,,,,,,,,,,,,,,,,,,,,,,,,,,,,,,,,,,,,,,,,,,,,,,,,,,,,,,,,,,,,,,,,,,,,,,,,,,,,,,,,,,,,,,
,8791,CAB,30/12/2004,001,2023-09-27_15h50.58.995,OS3_Mult_verification,2022.2.4,Win32,59.31549914,,,,,,,,,,,,,,,,,,,,,,,,,,,,,,,,,,,,,596431,4.2924,0,"[""5"",""9"",""6"",""4"",""3"",""1"",""return""]","[1.3663999999994303,1.9674999999999727,2.5,2.916799999999853,3.2116999999992686,3.6343999999994594,4.2552999999998065]",,,,,,6,594631,Audio/594631.mp3,EGNER,0,1,1,1,1,,,,,,,,,,,,,,,,,,,,,,,,,,,,,,,,,,,,,,,,,,,,,,,,,,,,,,,,,,,,,,,,,,,,,,,,,,,,,,,,,,,,,,,,,,,,,,,,,,,,,,,,,,,,,,,,,,,,,,,
,8791,CAB,30/12/2004,001,2023-09-27_15h50.58.995,OS3_Mult_verification,2022.2.4,Win32,59.31549914,,,,,,,,,,,,,,,,,,,,,,,,,,,,,,,,,,,,,,,,,,,,,,,,,,,,,,,,0,4,4,4,1,digitSpan_stim/sixAudio.xlsx,,,,,,,,,,,,,,,,,,,,,,,,,,,,,,,,,,,,,,,,,,,,,,,,,,,,,,,,,,,,,,,,,,,,,,,,,,,,,,,,,,,,,,,,,,,,,,,,,,,,,,,,,,,,,,,,,
,8791,CAB,30/12/2004,001,2023-09-27_15h50.58.995,OS3_Mult_verification,2022.2.4,Win32,59.31549914,,,,,,,,,,,,,,,,,,,,,,,,,,,,,,,,,,,,,3824193,4.3981,0,"[""3"",""8"",""2"",""4"",""1"",""9"",""3"",""return""]","[0.15159999999968932,1.2512000000001535,1.7848999999994248,2.3012999999998556,3.068700000000149,3.5187000000001944,3.8005000000000564,4.367599999999584]",,,,,,7,8241973,Audio/8241973.mp3,EGNER,0,0,0,0,1,,,,,,,,,,,,,,,,,,,,,,,,,,,,,,,,,,,,,,,,,,,,,,,,,,,,,,,,,,,,,,,,,,,,,,,,,,,,,,,,,,,,,,,,,,,,,,,,,,,,,,,,,,,,,,,,,,,,,,,
,8791,CAB,30/12/2004,001,2023-09-27_15h50.58.995,OS3_Mult_verification,2022.2.4,Win32,59.31549914,,,,,,,,,,,,,,,,,,,,,,,,,,,,,,,,,,,,,8213647,8.5322,0,"[""8"",""1"",""backspace"",""2"",""1"",""3"",""6"",""4"",""7"",""return""]","[1.8509000000003653,2.2331000000006043,3.8835000000000264,4.2509000000003425,4.617800000000784,5.968999999999937,6.418600000000538,6.818100000000527,8.000600000000532,8.50030000000072]",,,,,,7,2814367,Audio/2814367.mp3,EGNER,0,1,1,1,1,,,,,,,,,,,,,,,,,,,,,,,,,,,,,,,,,,,,,,,,,,,,,,,,,,,,,,,,,,,,,,,,,,,,,,,,,,,,,,,,,,,,,,,,,,,,,,,,,,,,,,,,,,,,,,,,,,,,,,,
,8791,CAB,30/12/2004,001,2023-09-27_15h50.58.995,OS3_Mult_verification,2022.2.4,Win32,59.31549914,,,,,,,,,,,,,,,,,,,,,,,,,,,,,,,,,,,,,,,,,,,,,,,Egner,,,,,,,,,,,,,,,0,0,0,0,1,digitSpan_stim/Egner.xlsx,,,,,,,,,,,,,,,,,,,,,,,,,,,,,,,,,,,,,,,,,,,,,,,,,,,,,,,,,,,,,,,,,,,,,,,,,,,,,,,,,,,,,,,,,,,,,,,,,,,,,,,,,,,
,8791,CAB,30/12/2004,001,2023-09-27_15h50.58.995,OS3_Mult_verification,2022.2.4,Win32,59.31549914,,,,,,,,,,,,,,,,,,,,,,,,,,,,,,,,,,,,,97,1.748,1,"[""9"",""7"",""return""]","[1.1838999999994257,1.4185999999996284,1.7140000000000555]",,,,,,2,97,Audio/97.mp3,WAIS,0,0,0,0,1,,,,,,,,,,,,,,,,,,,,,,,,,,,,,,,,,,,,,,,,,,,,,,,,,,,,,,,,,,,,,,,,,,,,,,,,,,,,,,,,,,,,,,,,,,,,,,,,,,,,,,,,,,,,,,,,,,,,,,,
,8791,CAB,30/12/2004,001,2023-09-27_15h50.58.995,OS3_Mult_verification,2022.2.4,Win32,59.31549914,,,,,,,,,,,,,,,,,,,,,,,,,,,,,,,,,,,,,63,1.7708,1,"[""6"",""3"",""return""]","[1.350500000000011,1.4672000000001617,1.7336000000005924]",,,,,,2,63,Audio/63.mp3,WAIS,0,1,1,1,1,,,,,,,,,,,,,,,,,,,,,,,,,,,,,,,,,,,,,,,,,,,,,,,,,,,,,,,,,,,,,,,,,,,,,,,,,,,,,,,,,,,,,,,,,,,,,,,,,,,,,,,,,,,,,,,,,,,,,,,
,8791,CAB,30/12/2004,001,2023-09-27_15h50.58.995,OS3_Mult_verification,2022.2.4,Win32,59.31549914,,,,,,,,,,,,,,,,,,,,,,,,,,,,,,,,,,,,,,,,,,,,,,,,,,,,,,,,0,0,0,0,1,digitSpan_stim/twoWAIS.xlsx,,,,,,,,,,,,,,,,,,,,,,,,,,,,,,,,,,,,,,,,,,,,,,,,,,,,,,,,,,,,,,,,,,,,,,,,,,,,,,,,,,,,,,,,,,,,,,,,,,,,,,,,,,,,,,,,,
,8791,CAB,30/12/2004,001,2023-09-27_15h50.58.995,OS3_Mult_verification,2022.2.4,Win32,59.31549914,,,,,,,,,,,,,,,,,,,,,,,,,,,,,,,,,,,,,582,1.7992,1,"[""5"",""8"",""2"",""return""]","[0.8342000000002372,1.0337999999998146,1.4845999999996593,1.767700000000218]",,,,,,3,582,Audio/582.mp3,WAIS,0,0,0,0,1,,,,,,,,,,,,,,,,,,,,,,,,,,,,,,,,,,,,,,,,,,,,,,,,,,,,,,,,,,,,,,,,,,,,,,,,,,,,,,,,,,,,,,,,,,,,,,,,,,,,,,,,,,,,,,,,,,,,,,,
,8791,CAB,30/12/2004,001,2023-09-27_15h50.58.995,OS3_Mult_verification,2022.2.4,Win32,59.31549914,,,,,,,,,,,,,,,,,,,,,,,,,,,,,,,,,,,,,694,3.4315,1,"[""6"",""9"",""4"",""return""]","[2.519900000000348,2.8015000000000327,3.051100000000588,3.4004999999999654]",,,,,,3,694,Audio/694.mp3,WAIS,0,1,1,1,1,,,,,,,,,,,,,,,,,,,,,,,,,,,,,,,,,,,,,,,,,,,,,,,,,,,,,,,,,,,,,,,,,,,,,,,,,,,,,,,,,,,,,,,,,,,,,,,,,,,,,,,,,,,,,,,,,,,,,,,
,8791,CAB,30/12/2004,001,2023-09-27_15h50.58.995,OS3_Mult_verification,2022.2.4,Win32,59.31549914,,,,,,,,,,,,,,,,,,,,,,,,,,,,,,,,,,,,,,,,,,,,,,,,,,,,,,,,0,1,1,1,1,digitSpan_stim/threeWAIS.xlsx,,,,,,,,,,,,,,,,,,,,,,,,,,,,,,,,,,,,,,,,,,,,,,,,,,,,,,,,,,,,,,,,,,,,,,,,,,,,,,,,,,,,,,,,,,,,,,,,,,,,,,,,,,,,,,,,,
,8791,CAB,30/12/2004,001,2023-09-27_15h50.58.995,OS3_Mult_verification,2022.2.4,Win32,59.31549914,,,,,,,,,,,,,,,,,,,,,,,,,,,,,,,,,,,,,7286,2.3994,1,"[""7"",""2"",""8"",""6"",""return""]","[0.9020999999996775,1.184700000000248,1.5033999999994876,1.802299999999832,2.368200000000229]",,,,,,4,7286,Audio/7286.mp3,WAIS,0,0,0,0,1,,,,,,,,,,,,,,,,,,,,,,,,,,,,,,,,,,,,,,,,,,,,,,,,,,,,,,,,,,,,,,,,,,,,,,,,,,,,,,,,,,,,,,,,,,,,,,,,,,,,,,,,,,,,,,,,,,,,,,,
,8791,CAB,30/12/2004,001,2023-09-27_15h50.58.995,OS3_Mult_verification,2022.2.4,Win32,59.31549914,,,,,,,,,,,,,,,,,,,,,,,,,,,,,,,,,,,,,6439,2.6323,1,"[""6"",""4"",""3"",""9"",""return""]","[1.2338999999993803,1.684099999999603,2.118099999999572,2.3181999999992513,2.6005999999996448]",,,,,,4,6439,Audio/6439.mp3,WAIS,0,1,1,1,1,,,,,,,,,,,,,,,,,,,,,,,,,,,,,,,,,,,,,,,,,,,,,,,,,,,,,,,,,,,,,,,,,,,,,,,,,,,,,,,,,,,,,,,,,,,,,,,,,,,,,,,,,,,,,,,,,,,,,,,
,8791,CAB,30/12/2004,001,2023-09-27_15h50.58.995,OS3_Mult_verification,2022.2.4,Win32,59.31549914,,,,,,,,,,,,,,,,,,,,,,,,,,,,,,,,,,,,,,,,,,,,,,,,,,,,,,,,0,2,2,2,1,digitSpan_stim/fourWAIS.xlsx,,,,,,,,,,,,,,,,,,,,,,,,,,,,,,,,,,,,,,,,,,,,,,,,,,,,,,,,,,,,,,,,,,,,,,,,,,,,,,,,,,,,,,,,,,,,,,,,,,,,,,,,,,,,,,,,,
,8791,CAB,30/12/2004,001,2023-09-27_15h50.58.995,OS3_Mult_verification,2022.2.4,Win32,59.31549914,,,,,,,,,,,,,,,,,,,,,,,,,,,,,,,,,,,,,42731,2.8329,1,"[""4"",""2"",""7"",""3"",""1"",""return""]","[1.3180000000000973,1.6676000000005615,2.0182000000002063,2.2172999999999092,2.4682000000002517,2.795100000000616]",,,,,,5,42731,Audio/42731.mp3,WAIS,0,0,0,0,1,,,,,,,,,,,,,,,,,,,,,,,,,,,,,,,,,,,,,,,,,,,,,,,,,,,,,,,,,,,,,,,,,,,,,,,,,,,,,,,,,,,,,,,,,,,,,,,,,,,,,,,,,,,,,,,,,,,,,,,
,8791,CAB,30/12/2004,001,2023-09-27_15h50.58.995,OS3_Mult_verification,2022.2.4,Win32,59.31549914,,,,,,,,,,,,,,,,,,,,,,,,,,,,,,,,,,,,,75836,2.7657,1,"[""7"",""5"",""8"",""3"",""6"",""return""]","[0.7672999999998638,1.0851000000005797,1.517400000000407,2.0014000000004444,2.35770000000025,2.7339000000004035]",,,,,,5,75836,Audio/75836.mp3,WAIS,0,1,1,1,1,,,,,,,,,,,,,,,,,,,,,,,,,,,,,,,,,,,,,,,,,,,,,,,,,,,,,,,,,,,,,,,,,,,,,,,,,,,,,,,,,,,,,,,,,,,,,,,,,,,,,,,,,,,,,,,,,,,,,,,
,8791,CAB,30/12/2004,001,2023-09-27_15h50.58.995,OS3_Mult_verification,2022.2.4,Win32,59.31549914,,,,,,,,,,,,,,,,,,,,,,,,,,,,,,,,,,,,,,,,,,,,,,,,,,,,,,,,0,3,3,3,1,digitSpan_stim/fiveWAIS.xlsx,,,,,,,,,,,,,,,,,,,,,,,,,,,,,,,,,,,,,,,,,,,,,,,,,,,,,,,,,,,,,,,,,,,,,,,,,,,,,,,,,,,,,,,,,,,,,,,,,,,,,,,,,,,,,,,,,
,8791,CAB,30/12/2004,001,2023-09-27_15h50.58.995,OS3_Mult_verification,2022.2.4,Win32,59.31549914,,,,,,,,,,,,,,,,,,,,,,,,,,,,,,,,,,,,,394287,8.6491,0,"[""3"",""9"",""4"",""2"",""8"",""7"",""return""]","[3.5022999999997637,4.2343999999993684,5.21989999999937,5.734299999999735,6.200999999999908,6.600799999999822,8.617299999999773]",,,,,,6,392487,Audio/392487.mp3,WAIS,0,0,0,0,1,,,,,,,,,,,,,,,,,,,,,,,,,,,,,,,,,,,,,,,,,,,,,,,,,,,,,,,,,,,,,,,,,,,,,,,,,,,,,,,,,,,,,,,,,,,,,,,,,,,,,,,,,,,,,,,,,,,,,,,
,8791,CAB,30/12/2004,001,2023-09-27_15h50.58.995,OS3_Mult_verification,2022.2.4,Win32,59.31549914,,,,,,,,,,,,,,,,,,,,,,,,,,,,,,,,,,,,,619473,6.9685,1,"[""6"",""1"",""9"",""4"",""3"",""backspace"",""7"",""3"",""return""]","[1.201200000000199,1.9171000000005733,2.617100000000619,3.2501000000005433,3.834500000000048,4.717400000000453,5.434100000000626,5.716600000000653,6.933400000000461]",,,,,,6,619473,Audio/619473.mp3,WAIS,0,1,1,1,1,,,,,,,,,,,,,,,,,,,,,,,,,,,,,,,,,,,,,,,,,,,,,,,,,,,,,,,,,,,,,,,,,,,,,,,,,,,,,,,,,,,,,,,,,,,,,,,,,,,,,,,,,,,,,,,,,,,,,,,
,8791,CAB,30/12/2004,001,2023-09-27_15h50.58.995,OS3_Mult_verification,2022.2.4,Win32,59.31549914,,,,,,,,,,,,,,,,,,,,,,,,,,,,,,,,,,,,,,,,,,,,,,,,,,,,,,,,0,4,4,4,1,digitSpan_stim/sixWAIS.xlsx,,,,,,,,,,,,,,,,,,,,,,,,,,,,,,,,,,,,,,,,,,,,,,,,,,,,,,,,,,,,,,,,,,,,,,,,,,,,,,,,,,,,,,,,,,,,,,,,,,,,,,,,,,,,,,,,,
,8791,CAB,30/12/2004,001,2023-09-27_15h50.58.995,OS3_Mult_verification,2022.2.4,Win32,59.31549914,,,,,,,,,,,,,,,,,,,,,,,,,,,,,,,,,,,,,6197428,6.031,0,"[""6"",""1"",""9"",""7"",""4"",""2"",""8"",""return""]","[1.5674999999999955,2.585600000000568,3.051900000000387,3.7684000000003834,4.401700000000119,4.652100000000587,5.351100000000542,6.000499999999988]",,,,,,7,6917428,Audio/6917428.mp3,WAIS,0,0,0,0,1,,,,,,,,,,,,,,,,,,,,,,,,,,,,,,,,,,,,,,,,,,,,,,,,,,,,,,,,,,,,,,,,,,,,,,,,,,,,,,,,,,,,,,,,,,,,,,,,,,,,,,,,,,,,,,,,,,,,,,,
,8791,CAB,30/12/2004,001,2023-09-27_15h50.58.995,OS3_Mult_verification,2022.2.4,Win32,59.31549914,,,,,,,,,,,,,,,,,,,,,,,,,,,,,,,,,,,,,4179386,4.7648,1,"[""4"",""1"",""7"",""9"",""3"",""8"",""6"",""return""]","[0.9677999999997837,1.3845000000000027,1.9009000000003198,2.767599999999561,3.284200000000169,3.70159999999953,4.242299999999773,4.733799999999746]",,,,,,7,4179386,Audio/4179386.mp3,WAIS,0,1,1,1,1,,,,,,,,,,,,,,,,,,,,,,,,,,,,,,,,,,,,,,,,,,,,,,,,,,,,,,,,,,,,,,,,,,,,,,,,,,,,,,,,,,,,,,,,,,,,,,,,,,,,,,,,,,,,,,,,,,,,,,,
,8791,CAB,30/12/2004,001,2023-09-27_15h50.58.995,OS3_Mult_verification,2022.2.4,Win32,59.31549914,,,,,,,,,,,,,,,,,,,,,,,,,,,,,,,,,,,,,,,,,,,,,,,,,,,,,,,,0,5,5,5,1,digitSpan_stim/sevenWAIS.xlsx,,,,,,,,,,,,,,,,,,,,,,,,,,,,,,,,,,,,,,,,,,,,,,,,,,,,,,,,,,,,,,,,,,,,,,,,,,,,,,,,,,,,,,,,,,,,,,,,,,,,,,,,,,,,,,,,,
,8791,CAB,30/12/2004,001,2023-09-27_15h50.58.995,OS3_Mult_verification,2022.2.4,Win32,59.31549914,,,,,,,,,,,,,,,,,,,,,,,,,,,,,,,,,,,,,38214917,11.6051,0,"[""3"",""8"",""2"",""1"",""4"",""9"",""1"",""backspace"",""1"",""7"",""return""]","[1.2349999999999,1.9182999999998174,2.416399999999385,3.0709999999999127,5.784299999999803,6.383999999999901,7.634200000000192,9.517399999999384,10.833200000000147,11.200799999999731,11.565999999999917]",,,,,,8,38296174,Audio/38296174.mp3,WAIS,0,0,0,0,1,,,,,,,,,,,,,,,,,,,,,,,,,,,,,,,,,,,,,,,,,,,,,,,,,,,,,,,,,,,,,,,,,,,,,,,,,,,,,,,,,,,,,,,,,,,,,,,,,,,,,,,,,,,,,,,,,,,,,,,
,8791,CAB,30/12/2004,001,2023-09-27_15h50.58.995,OS3_Mult_verification,2022.2.4,Win32,59.31549914,,,,,,,,,,,,,,,,,,,,,,,,,,,,,,,,,,,,,58132487,5.2144,0,"[""5"",""8"",""1"",""3"",""2"",""4"",""8"",""7"",""return""]","[0.23439999999948213,1.1352999999999156,1.5672999999998183,2.0505999999996902,2.4675000000000864,3.4677999999998974,4.385899999999538,4.768500000000017,5.184000000000083]",,,,,,8,58132647,Audio/58132647.mp3,WAIS,0,1,1,1,1,,,,,,,,,,,,,,,,,,,,,,,,,,,,,,,,,,,,,,,,,,,,,,,,,,,,,,,,,,,,,,,,,,,,,,,,,,,,,,,,,,,,,,,,,,,,,,,,,,,,,,,,,,,,,,,,,,,,,,,
,8791,CAB,30/12/2004,001,2023-09-27_15h50.58.995,OS3_Mult_verification,2022.2.4,Win32,59.31549914,,,,,,,,,,,,,,,,,,,,,,,,,,,,,,,,,,,,,,,,,,,,,,,WAIS,,,,,,,,,,,,,,,0,1,1,1,1,digitSpan_stim/WAIS.xlsx,,,,,,,,,,,,,,,,,,,,,,,,,,,,,,,,,,,,,,,,,,,,,,,,,,,,,,,,,,,,,,,,,,,,,,,,,,,,,,,,,,,,,,,,,,,,,,,,,,,,,,,,,,,
,8791,CAB,30/12/2004,001,2023-09-27_15h50.58.995,OS3_Mult_verification,2022.2.4,Win32,59.31549914,,,,,,,,,,,,,,,,,,,,,,,,,,,,,,,,,,,,,,,,,,,,,,,,,,,,,,,,,,,,,,,,,,,,0,0,0,0,1,,,,,,,,,,,,,,,,,,,,,,,,,,,,,,,,,,,,,,,,,,,,,,,,,,,,,,,,,,,,,,,,,,,,,,,,,,,,,,,,,,,,,,,,,,,,,,,,,,,,,,
,8791,CAB,30/12/2004,001,2023-09-27_15h50.58.995,OS3_Mult_verification,2022.2.4,Win32,59.31549914,,,,,,,,,,,,,,,,,,,,,,,,,,,,,,,,,,,,,,,,,,,,,,,,,,,,,,,,,,,,,,,,,,,,,,,,,0,0,0,0,1,0,0,1,,,,,,,,,,,,,,,,,,,,,,,,,,,,,,,,,,,,,,,,,,,,,,,,,,,,,,,,,,,,,,,,,,,,,,,,,,,,,,,,,,,,,,,,,,,,,,
,8791,CAB,30/12/2004,001,2023-09-27_15h50.58.995,OS3_Mult_verification,2022.2.4,Win32,59.31549914,,,,,,,,,,,,,,,,space,3.3033,,,,,,,,,,,,,,,,,,,,,,,,,,,,,,,,,,,,,,,,,,,,,,,,,,,,,,,,,,,,,,,,right,1,1.6004,0,0,0,1,1,practice,4,3,4 | 3,1,0.05,0.065,incongruent,right,,,,,,,,,,,,,,,,,,,,,,,,,,,,,,,,,,,,,,,,,,,,,,,,,,,,,,,,,,,,,,,,,,,,,,,,,,,,,
,8791,CAB,30/12/2004,001,2023-09-27_15h50.58.995,OS3_Mult_verification,2022.2.4,Win32,59.31549914,,,,,,,,,,,,,,,,,,,,,,,,,,,,,,,,,,,,,,,,,,,,,,,,,,,,,,,,,,,,,,,,,,,,,,,,,,,,,,,,,left,1,0.7526,0,1,1,0,1,practice,9,8,9 | 8,1,0.065,0.05,congruent,left,,,,,,,,,,,,,,,,,,,,,,,,,,,,,,,,,,,,,,,,,,,,,,,,,,,,,,,,,,,,,,,,,,,,,,,,,,,,,
,8791,CAB,30/12/2004,001,2023-09-27_15h50.58.995,OS3_Mult_verification,2022.2.4,Win32,59.31549914,,,,,,,,,,,,,,,,,,,,,,,,,,,,,,,,,,,,,,,,,,,,,,,,,,,,,,,,,,,,,,,,,,,,,,,,,,,,,,,,,right,1,0.5618,0,2,2,2,1,practice,9,9,9 | 9,0,0.05,0.065,neutral,right,,,,,,,,,,,,,,,,,,,,,,,,,,,,,,,,,,,,,,,,,,,,,,,,,,,,,,,,,,,,,,,,,,,,,,,,,,,,,
,8791,CAB,30/12/2004,001,2023-09-27_15h50.58.995,OS3_Mult_verification,2022.2.4,Win32,59.31549914,,,,,,,,,,,,,,,,,,,,,,,,,,,,,,,,,,,,,,,,,,,,,,,,,,,,,,,,,,,,,,,,,,,,,,,,,,,,,,,,,right,1,0.6576,,,,,,physical,1,3,1 | 3,2,0.05,0.065,congruent,right,0,0,0,8,1,,,,,,,,,,,,,,,,,,,,,,,,,,,,,,,,,,,,,,,,,,,,,,,,,,,,,,,,,,,,,,,,,,,,,,,,
,8791,CAB,30/12/2004,001,2023-09-27_15h50.58.995,OS3_Mult_verification,2022.2.4,Win32,59.31549914,,,,,,,,,,,,,,,,,,,,,,,,,,,,,,,,,,,,,,,,,,,,,,,,,,,,,,,,,,,,,,,,,,,,,,,,,,,,,,,,,left,1,0.5916,,,,,,physical,4,4,4 | 4,0,0.065,0.05,neutral,left,0,1,1,53,1,,,,,,,,,,,,,,,,,,,,,,,,,,,,,,,,,,,,,,,,,,,,,,,,,,,,,,,,,,,,,,,,,,,,,,,,
,8791,CAB,30/12/2004,001,2023-09-27_15h50.58.995,OS3_Mult_verification,2022.2.4,Win32,59.31549914,,,,,,,,,,,,,,,,,,,,,,,,,,,,,,,,,,,,,,,,,,,,,,,,,,,,,,,,,,,,,,,,,,,,,,,,,,,,,,,,,right,1,0.4998,,,,,,physical,8,9,8 | 9,1,0.05,0.065,congruent,right,0,2,2,3,1,,,,,,,,,,,,,,,,,,,,,,,,,,,,,,,,,,,,,,,,,,,,,,,,,,,,,,,,,,,,,,,,,,,,,,,,
,8791,CAB,30/12/2004,001,2023-09-27_15h50.58.995,OS3_Mult_verification,2022.2.4,Win32,59.31549914,,,,,,,,,,,,,,,,,,,,,,,,,,,,,,,,,,,,,,,,,,,,,,,,,,,,,,,,,,,,,,,,,,,,,,,,,,,,,,,,,right,1,0.6122,,,,,,physical,4,3,4 | 3,1,0.05,0.065,incongruent,right,0,3,3,29,1,,,,,,,,,,,,,,,,,,,,,,,,,,,,,,,,,,,,,,,,,,,,,,,,,,,,,,,,,,,,,,,,,,,,,,,,
,8791,CAB,30/12/2004,001,2023-09-27_15h50.58.995,OS3_Mult_verification,2022.2.4,Win32,59.31549914,,,,,,,,,,,,,,,,,,,,,,,,,,,,,,,,,,,,,,,,,,,,,,,,,,,,,,,,,,,,,,,,,,,,,,,,,,,,,,,,,right,1,0.6016,,,,,,physical,2,7,2 | 7,5,0.05,0.065,congruent,right,0,4,4,17,1,,,,,,,,,,,,,,,,,,,,,,,,,,,,,,,,,,,,,,,,,,,,,,,,,,,,,,,,,,,,,,,,,,,,,,,,
,8791,CAB,30/12/2004,001,2023-09-27_15h50.58.995,OS3_Mult_verification,2022.2.4,Win32,59.31549914,,,,,,,,,,,,,,,,,,,,,,,,,,,,,,,,,,,,,,,,,,,,,,,,,,,,,,,,,,,,,,,,,,,,,,,,,,,,,,,,,right,1,0.6864,,,,,,physical,4,4,4 | 4,0,0.05,0.065,neutral,right,0,5,5,61,1,,,,,,,,,,,,,,,,,,,,,,,,,,,,,,,,,,,,,,,,,,,,,,,,,,,,,,,,,,,,,,,,,,,,,,,,
,8791,CAB,30/12/2004,001,2023-09-27_15h50.58.995,OS3_Mult_verification,2022.2.4,Win32,59.31549914,,,,,,,,,,,,,,,,,,,,,,,,,,,,,,,,,,,,,,,,,,,,,,,,,,,,,,,,,,,,,,,,,,,,,,,,,,,,,,,,,left,1,0.8129,,,,,,physical,6,8,6 | 8,2,0.065,0.05,incongruent,left,0,6,6,34,1,,,,,,,,,,,,,,,,,,,,,,,,,,,,,,,,,,,,,,,,,,,,,,,,,,,,,,,,,,,,,,,,,,,,,,,,
,8791,CAB,30/12/2004,001,2023-09-27_15h50.58.995,OS3_Mult_verification,2022.2.4,Win32,59.31549914,,,,,,,,,,,,,,,,,,,,,,,,,,,,,,,,,,,,,,,,,,,,,,,,,,,,,,,,,,,,,,,,,,,,,,,,,,,,,,,,,right,1,0.4492,,,,,,physical,7,9,7 | 9,2,0.05,0.065,congruent,right,0,7,7,11,1,,,,,,,,,,,,,,,,,,,,,,,,,,,,,,,,,,,,,,,,,,,,,,,,,,,,,,,,,,,,,,,,,,,,,,,,
,8791,CAB,30/12/2004,001,2023-09-27_15h50.58.995,OS3_Mult_verification,2022.2.4,Win32,59.31549914,,,,,,,,,,,,,,,,,,,,,,,,,,,,,,,,,,,,,,,,,,,,,,,,,,,,,,,,,,,,,,,,,,,,,,,,,,,,,,,,,right,1,0.5424,,,,,,physical,4,9,4 | 9,5,0.05,0.065,congruent,right,0,8,8,19,1,,,,,,,,,,,,,,,,,,,,,,,,,,,,,,,,,,,,,,,,,,,,,,,,,,,,,,,,,,,,,,,,,,,,,,,,
,8791,CAB,30/12/2004,001,2023-09-27_15h50.58.995,OS3_Mult_verification,2022.2.4,Win32,59.31549914,,,,,,,,,,,,,,,,,,,,,,,,,,,,,,,,,,,,,,,,,,,,,,,,,,,,,,,,,,,,,,,,,,,,,,,,,,,,,,,,,left,1,0.8332,,,,,,physical,1,2,1 | 2,1,0.065,0.05,incongruent,left,0,9,9,24,1,,,,,,,,,,,,,,,,,,,,,,,,,,,,,,,,,,,,,,,,,,,,,,,,,,,,,,,,,,,,,,,,,,,,,,,,
,8791,CAB,30/12/2004,001,2023-09-27_15h50.58.995,OS3_Mult_verification,2022.2.4,Win32,59.31549914,,,,,,,,,,,,,,,,,,,,,,,,,,,,,,,,,,,,,,,,,,,,,,,,,,,,,,,,,,,,,,,,,,,,,,,,,,,,,,,,,right,1,0.3793,,,,,,physical,7,6,7 | 6,1,0.05,0.065,incongruent,right,0,10,10,30,1,,,,,,,,,,,,,,,,,,,,,,,,,,,,,,,,,,,,,,,,,,,,,,,,,,,,,,,,,,,,,,,,,,,,,,,,
,8791,CAB,30/12/2004,001,2023-09-27_15h50.58.995,OS3_Mult_verification,2022.2.4,Win32,59.31549914,,,,,,,,,,,,,,,,,,,,,,,,,,,,,,,,,,,,,,,,,,,,,,,,,,,,,,,,,,,,,,,,,,,,,,,,,,,,,,,,,right,1,0.7491,,,,,,physical,8,3,8 | 3,5,0.05,0.065,incongruent,right,0,11,11,46,1,,,,,,,,,,,,,,,,,,,,,,,,,,,,,,,,,,,,,,,,,,,,,,,,,,,,,,,,,,,,,,,,,,,,,,,,
,8791,CAB,30/12/2004,001,2023-09-27_15h50.58.995,OS3_Mult_verification,2022.2.4,Win32,59.31549914,,,,,,,,,,,,,,,,,,,,,,,,,,,,,,,,,,,,,,,,,,,,,,,,,,,,,,,,,,,,,,,,,,,,,,,,,,,,,,,,,right,1,0.8138,,,,,,physical,7,2,7 | 2,5,0.05,0.065,incongruent,right,0,12,12,45,1,,,,,,,,,,,,,,,,,,,,,,,,,,,,,,,,,,,,,,,,,,,,,,,,,,,,,,,,,,,,,,,,,,,,,,,,
,8791,CAB,30/12/2004,001,2023-09-27_15h50.58.995,OS3_Mult_verification,2022.2.4,Win32,59.31549914,,,,,,,,,,,,,,,,,,,,,,,,,,,,,,,,,,,,,,,,,,,,,,,,,,,,,,,,,,,,,,,,,,,,,,,,,,,,,,,,,left,1,0.6362,,,,,,physical,1,1,1 | 1,0,0.065,0.05,neutral,left,0,13,13,64,1,,,,,,,,,,,,,,,,,,,,,,,,,,,,,,,,,,,,,,,,,,,,,,,,,,,,,,,,,,,,,,,,,,,,,,,,
,8791,CAB,30/12/2004,001,2023-09-27_15h50.58.995,OS3_Mult_verification,2022.2.4,Win32,59.31549914,,,,,,,,,,,,,,,,,,,,,,,,,,,,,,,,,,,,,,,,,,,,,,,,,,,,,,,,,,,,,,,,,,,,,,,,,,,,,,,,,left,1,0.6974,,,,,,physical,2,4,2 | 4,2,0.065,0.05,incongruent,left,0,14,14,33,1,,,,,,,,,,,,,,,,,,,,,,,,,,,,,,,,,,,,,,,,,,,,,,,,,,,,,,,,,,,,,,,,,,,,,,,,
,8791,CAB,30/12/2004,001,2023-09-27_15h50.58.995,OS3_Mult_verification,2022.2.4,Win32,59.31549914,,,,,,,,,,,,,,,,,,,,,,,,,,,,,,,,,,,,,,,,,,,,,,,,,,,,,,,,,,,,,,,,,,,,,,,,,,,,,,,,,right,1,0.6434,,,,,,physical,9,4,9 | 4,5,0.05,0.065,incongruent,right,0,15,15,47,1,,,,,,,,,,,,,,,,,,,,,,,,,,,,,,,,,,,,,,,,,,,,,,,,,,,,,,,,,,,,,,,,,,,,,,,,
,8791,CAB,30/12/2004,001,2023-09-27_15h50.58.995,OS3_Mult_verification,2022.2.4,Win32,59.31549914,,,,,,,,,,,,,,,,,,,,,,,,,,,,,,,,,,,,,,,,,,,,,,,,,,,,,,,,,,,,,,,,,,,,,,,,,,,,,,,,,right,1,0.5673,,,,,,physical,3,3,3 | 3,0,0.05,0.065,neutral,right,0,16,16,60,1,,,,,,,,,,,,,,,,,,,,,,,,,,,,,,,,,,,,,,,,,,,,,,,,,,,,,,,,,,,,,,,,,,,,,,,,
,8791,CAB,30/12/2004,001,2023-09-27_15h50.58.995,OS3_Mult_verification,2022.2.4,Win32,59.31549914,,,,,,,,,,,,,,,,,,,,,,,,,,,,,,,,,,,,,,,,,,,,,,,,,,,,,,,,,,,,,,,,,,,,,,,,,,,,,,,,,right,1,0.5693,,,,,,physical,3,4,3 | 4,1,0.05,0.065,congruent,right,0,17,17,1,1,,,,,,,,,,,,,,,,,,,,,,,,,,,,,,,,,,,,,,,,,,,,,,,,,,,,,,,,,,,,,,,,,,,,,,,,
,8791,CAB,30/12/2004,001,2023-09-27_15h50.58.995,OS3_Mult_verification,2022.2.4,Win32,59.31549914,,,,,,,,,,,,,,,,,,,,,,,,,,,,,,,,,,,,,,,,,,,,,,,,,,,,,,,,,,,,,,,,,,,,,,,,,,,,,,,,,left,1,0.6256,,,,,,physical,3,8,3 | 8,5,0.065,0.05,incongruent,left,0,18,18,42,1,,,,,,,,,,,,,,,,,,,,,,,,,,,,,,,,,,,,,,,,,,,,,,,,,,,,,,,,,,,,,,,,,,,,,,,,
,8791,CAB,30/12/2004,001,2023-09-27_15h50.58.995,OS3_Mult_verification,2022.2.4,Win32,59.31549914,,,,,,,,,,,,,,,,,,,,,,,,,,,,,,,,,,,,,,,,,,,,,,,,,,,,,,,,,,,,,,,,,,,,,,,,,,,,,,,,,right,1,0.7446,,,,,,physical,2,1,2 | 1,1,0.05,0.065,incongruent,right,0,19,19,28,1,,,,,,,,,,,,,,,,,,,,,,,,,,,,,,,,,,,,,,,,,,,,,,,,,,,,,,,,,,,,,,,,,,,,,,,,
,8791,CAB,30/12/2004,001,2023-09-27_15h50.58.995,OS3_Mult_verification,2022.2.4,Win32,59.31549914,,,,,,,,,,,,,,,,,,,,,,,,,,,,,,,,,,,,,,,,,,,,,,,,,,,,,,,,,,,,,,,,,,,,,,,,,,,,,,,,,left,1,0.6311,,,,,,physical,8,9,8 | 9,1,0.065,0.05,incongruent,left,0,20,20,27,1,,,,,,,,,,,,,,,,,,,,,,,,,,,,,,,,,,,,,,,,,,,,,,,,,,,,,,,,,,,,,,,,,,,,,,,,
,8791,CAB,30/12/2004,001,2023-09-27_15h50.58.995,OS3_Mult_verification,2022.2.4,Win32,59.31549914,,,,,,,,,,,,,,,,,,,,,,,,,,,,,,,,,,,,,,,,,,,,,,,,,,,,,,,,,,,,,,,,,,,,,,,,,,,,,,,,,left,1,0.6827,,,,,,physical,4,9,4 | 9,5,0.065,0.05,incongruent,left,0,21,21,43,1,,,,,,,,,,,,,,,,,,,,,,,,,,,,,,,,,,,,,,,,,,,,,,,,,,,,,,,,,,,,,,,,,,,,,,,,
,8791,CAB,30/12/2004,001,2023-09-27_15h50.58.995,OS3_Mult_verification,2022.2.4,Win32,59.31549914,,,,,,,,,,,,,,,,,,,,,,,,,,,,,,,,,,,,,,,,,,,,,,,,,,,,,,,,,,,,,,,,,,,,,,,,,,,,,,,,,left,1,0.6863,,,,,,physical,7,2,7 | 2,5,0.065,0.05,congruent,left,0,22,22,21,1,,,,,,,,,,,,,,,,,,,,,,,,,,,,,,,,,,,,,,,,,,,,,,,,,,,,,,,,,,,,,,,,,,,,,,,,
,8791,CAB,30/12/2004,001,2023-09-27_15h50.58.995,OS3_Mult_verification,2022.2.4,Win32,59.31549914,,,,,,,,,,,,,,,,,,,,,,,,,,,,,,,,,,,,,,,,,,,,,,,,,,,,,,,,,,,,,,,,,,,,,,,,,,,,,,,,,right,1,0.6205,,,,,,physical,9,9,9 | 9,0,0.05,0.065,neutral,right,0,23,23,71,1,,,,,,,,,,,,,,,,,,,,,,,,,,,,,,,,,,,,,,,,,,,,,,,,,,,,,,,,,,,,,,,,,,,,,,,,
,8791,CAB,30/12/2004,001,2023-09-27_15h50.58.995,OS3_Mult_verification,2022.2.4,Win32,59.31549914,,,,,,,,,,,,,,,,,,,,,,,,,,,,,,,,,,,,,,,,,,,,,,,,,,,,,,,,,,,,,,,,,,,,,,,,,,,,,,,,,right,1,1.4021,,,,,,physical,4,2,4 | 2,2,0.05,0.065,incongruent,right,0,24,24,37,1,,,,,,,,,,,,,,,,,,,,,,,,,,,,,,,,,,,,,,,,,,,,,,,,,,,,,,,,,,,,,,,,,,,,,,,,
,8791,CAB,30/12/2004,001,2023-09-27_15h50.58.995,OS3_Mult_verification,2022.2.4,Win32,59.31549914,,,,,,,,,,,,,,,,,,,,,,,,,,,,,,,,,,,,,,,,,,,,,,,,,,,,,,,,,,,,,,,,,,,,,,,,,,,,,,,,,right,1,1.065,,,,,,physical,2,2,2 | 2,0,0.05,0.065,neutral,right,0,25,25,57,1,,,,,,,,,,,,,,,,,,,,,,,,,,,,,,,,,,,,,,,,,,,,,,,,,,,,,,,,,,,,,,,,,,,,,,,,
,8791,CAB,30/12/2004,001,2023-09-27_15h50.58.995,OS3_Mult_verification,2022.2.4,Win32,59.31549914,,,,,,,,,,,,,,,,,,,,,,,,,,,,,,,,,,,,,,,,,,,,,,,,,,,,,,,,,,,,,,,,,,,,,,,,,,,,,,,,,right,1,0.7929,,,,,,physical,9,8,9 | 8,1,0.05,0.065,incongruent,right,0,26,26,31,1,,,,,,,,,,,,,,,,,,,,,,,,,,,,,,,,,,,,,,,,,,,,,,,,,,,,,,,,,,,,,,,,,,,,,,,,
,8791,CAB,30/12/2004,001,2023-09-27_15h50.58.995,OS3_Mult_verification,2022.2.4,Win32,59.31549914,,,,,,,,,,,,,,,,,,,,,,,,,,,,,,,,,,,,,,,,,,,,,,,,,,,,,,,,,,,,,,,,,,,,,,,,,,,,,,,,,right,1,0.614,,,,,,physical,7,7,7 | 7,0,0.05,0.065,neutral,right,0,27,27,59,1,,,,,,,,,,,,,,,,,,,,,,,,,,,,,,,,,,,,,,,,,,,,,,,,,,,,,,,,,,,,,,,,,,,,,,,,
,8791,CAB,30/12/2004,001,2023-09-27_15h50.58.995,OS3_Mult_verification,2022.2.4,Win32,59.31549914,,,,,,,,,,,,,,,,,,,,,,,,,,,,,,,,,,,,,,,,,,,,,,,,,,,,,,,,,,,,,,,,,,,,,,,,,,,,,,,,,right,1,0.7067,,,,,,physical,1,1,1 | 1,0,0.05,0.065,neutral,right,0,28,28,56,1,,,,,,,,,,,,,,,,,,,,,,,,,,,,,,,,,,,,,,,,,,,,,,,,,,,,,,,,,,,,,,,,,,,,,,,,
,8791,CAB,30/12/2004,001,2023-09-27_15h50.58.995,OS3_Mult_verification,2022.2.4,Win32,59.31549914,,,,,,,,,,,,,,,,,,,,,,,,,,,,,,,,,,,,,,,,,,,,,,,,,,,,,,,,,,,,,,,,,,,,,,,,,,,,,,,,,left,1,0.7674,,,,,,physical,4,2,4 | 2,2,0.065,0.05,congruent,left,0,29,29,13,1,,,,,,,,,,,,,,,,,,,,,,,,,,,,,,,,,,,,,,,,,,,,,,,,,,,,,,,,,,,,,,,,,,,,,,,,
,8791,CAB,30/12/2004,001,2023-09-27_15h50.58.995,OS3_Mult_verification,2022.2.4,Win32,59.31549914,,,,,,,,,,,,,,,,,,,,,,,,,,,,,,,,,,,,,,,,,,,,,,,,,,,,,,,,,,,,,,,,,,,,,,,,,,,,,,,,,left,1,0.8001,,,,,,physical,7,6,7 | 6,1,0.065,0.05,congruent,left,0,30,30,6,1,,,,,,,,,,,,,,,,,,,,,,,,,,,,,,,,,,,,,,,,,,,,,,,,,,,,,,,,,,,,,,,,,,,,,,,,
,8791,CAB,30/12/2004,001,2023-09-27_15h50.58.995,OS3_Mult_verification,2022.2.4,Win32,59.31549914,,,,,,,,,,,,,,,,,,,,,,,,,,,,,,,,,,,,,,,,,,,,,,,,,,,,,,,,,,,,,,,,,,,,,,,,,,,,,,,,,left,1,0.6607,,,,,,physical,7,9,7 | 9,2,0.065,0.05,incongruent,left,0,31,31,35,1,,,,,,,,,,,,,,,,,,,,,,,,,,,,,,,,,,,,,,,,,,,,,,,,,,,,,,,,,,,,,,,,,,,,,,,,
,8791,CAB,30/12/2004,001,2023-09-27_15h50.58.995,OS3_Mult_verification,2022.2.4,Win32,59.31549914,,,,,,,,,,,,,,,,,,,,,,,,,,,,,,,,,,,,,,,,,,,,,,,,,,,,,,,,,,,,,,,,,,,,,,,,,,,,,,,,,left,1,0.7724,,,,,,physical,8,6,8 | 6,2,0.065,0.05,congruent,left,0,32,32,14,1,,,,,,,,,,,,,,,,,,,,,,,,,,,,,,,,,,,,,,,,,,,,,,,,,,,,,,,,,,,,,,,,,,,,,,,,
,8791,CAB,30/12/2004,001,2023-09-27_15h50.58.995,OS3_Mult_verification,2022.2.4,Win32,59.31549914,,,,,,,,,,,,,,,,,,,,,,,,,,,,,,,,,,,,,,,,,,,,,,,,,,,,,,,,,,,,,,,,,,,,,,,,,,,,,,,,,left,1,0.5949,,,,,,physical,9,9,9 | 9,0,0.065,0.05,neutral,left,0,33,33,55,1,,,,,,,,,,,,,,,,,,,,,,,,,,,,,,,,,,,,,,,,,,,,,,,,,,,,,,,,,,,,,,,,,,,,,,,,
,8791,CAB,30/12/2004,001,2023-09-27_15h50.58.995,OS3_Mult_verification,2022.2.4,Win32,59.31549914,,,,,,,,,,,,,,,,,,,,,,,,,,,,,,,,,,,,,,,,,,,,,,,,,,,,,,,,,,,,,,,,,,,,,,,,,,,,,,,,,left,1,0.6079,,,,,,physical,6,7,6 | 7,1,0.065,0.05,incongruent,left,0,34,34,26,1,,,,,,,,,,,,,,,,,,,,,,,,,,,,,,,,,,,,,,,,,,,,,,,,,,,,,,,,,,,,,,,,,,,,,,,,
,8791,CAB,30/12/2004,001,2023-09-27_15h50.58.995,OS3_Mult_verification,2022.2.4,Win32,59.31549914,,,,,,,,,,,,,,,,,,,,,,,,,,,,,,,,,,,,,,,,,,,,,,,,,,,,,,,,,,,,,,,,,,,,,,,,,,,,,,,,,right,1,0.5701,,,,,,physical,2,4,2 | 4,2,0.05,0.065,congruent,right,0,35,35,9,1,,,,,,,,,,,,,,,,,,,,,,,,,,,,,,,,,,,,,,,,,,,,,,,,,,,,,,,,,,,,,,,,,,,,,,,,
,8791,CAB,30/12/2004,001,2023-09-27_15h50.58.995,OS3_Mult_verification,2022.2.4,Win32,59.31549914,,,,,,,,,,,,,,,,,,,,,,,,,,,,,,,,,,,,,,,,,,,,,,,,,,,,,,,,,,,,,,,,,,,,,,,,,,,,,,,,,right,1,0.5934,,,,,,physical,1,6,1 | 6,5,0.05,0.065,congruent,right,0,36,36,16,1,,,,,,,,,,,,,,,,,,,,,,,,,,,,,,,,,,,,,,,,,,,,,,,,,,,,,,,,,,,,,,,,,,,,,,,,
,8791,CAB,30/12/2004,001,2023-09-27_15h50.58.995,OS3_Mult_verification,2022.2.4,Win32,59.31549914,,,,,,,,,,,,,,,,,,,,,,,,,,,,,,,,,,,,,,,,,,,,,,,,,,,,,,,,,,,,,,,,,,,,,,,,,,,,,,,,,left,1,0.629,,,,,,physical,3,3,3 | 3,0,0.065,0.05,neutral,left,0,37,37,49,1,,,,,,,,,,,,,,,,,,,,,,,,,,,,,,,,,,,,,,,,,,,,,,,,,,,,,,,,,,,,,,,,,,,,,,,,
,8791,CAB,30/12/2004,001,2023-09-27_15h50.58.995,OS3_Mult_verification,2022.2.4,Win32,59.31549914,,,,,,,,,,,,,,,,,,,,,,,,,,,,,,,,,,,,,,,,,,,,,,,,,,,,,,,,,,,,,,,,,,,,,,,,,,,,,,,,,left,1,0.9789,,,,,,physical,9,7,9 | 7,2,0.065,0.05,congruent,left,0,38,38,15,1,,,,,,,,,,,,,,,,,,,,,,,,,,,,,,,,,,,,,,,,,,,,,,,,,,,,,,,,,,,,,,,,,,,,,,,,
,8791,CAB,30/12/2004,001,2023-09-27_15h50.58.995,OS3_Mult_verification,2022.2.4,Win32,59.31549914,,,,,,,,,,,,,,,,,,,,,,,,,,,,,,,,,,,,,,,,,,,,,,,,,,,,,,,,,,,,,,,,,,,,,,,,,,,,,,,,,left,1,0.586,,,,,,physical,8,3,8 | 3,5,0.065,0.05,congruent,left,0,39,39,22,1,,,,,,,,,,,,,,,,,,,,,,,,,,,,,,,,,,,,,,,,,,,,,,,,,,,,,,,,,,,,,,,,,,,,,,,,
,8791,CAB,30/12/2004,001,2023-09-27_15h50.58.995,OS3_Mult_verification,2022.2.4,Win32,59.31549914,,,,,,,,,,,,,,,,,,,,,,,,,,,,,,,,,,,,,,,,,,,,,,,,,,,,,,,,,,,,,,,,,,,,,,,,,,,,,,,,,left,1,0.9674,,,,,,physical,3,4,3 | 4,1,0.065,0.05,incongruent,left,0,40,40,25,1,,,,,,,,,,,,,,,,,,,,,,,,,,,,,,,,,,,,,,,,,,,,,,,,,,,,,,,,,,,,,,,,,,,,,,,,
,8791,CAB,30/12/2004,001,2023-09-27_15h50.58.995,OS3_Mult_verification,2022.2.4,Win32,59.31549914,,,,,,,,,,,,,,,,,,,,,,,,,,,,,,,,,,,,,,,,,,,,,,,,,,,,,,,,,,,,,,,,,,,,,,,,,,,,,,,,,right,1,0.5837,,,,,,physical,6,1,6 | 1,5,0.05,0.065,incongruent,right,0,41,41,44,1,,,,,,,,,,,,,,,,,,,,,,,,,,,,,,,,,,,,,,,,,,,,,,,,,,,,,,,,,,,,,,,,,,,,,,,,
,8791,CAB,30/12/2004,001,2023-09-27_15h50.58.995,OS3_Mult_verification,2022.2.4,Win32,59.31549914,,,,,,,,,,,,,,,,,,,,,,,,,,,,,,,,,,,,,,,,,,,,,,,,,,,,,,,,,,,,,,,,,,,,,,,,,,,,,,,,,right,1,0.5378,,,,,,physical,9,7,9 | 7,2,0.05,0.065,incongruent,right,0,42,42,39,1,,,,,,,,,,,,,,,,,,,,,,,,,,,,,,,,,,,,,,,,,,,,,,,,,,,,,,,,,,,,,,,,,,,,,,,,
,8791,CAB,30/12/2004,001,2023-09-27_15h50.58.995,OS3_Mult_verification,2022.2.4,Win32,59.31549914,,,,,,,,,,,,,,,,,,,,,,,,,,,,,,,,,,,,,,,,,,,,,,,,,,,,,,,,,,,,,,,,,,,,,,,,,,,,,,,,,left,1,0.6792,,,,,,physical,6,6,6 | 6,0,0.065,0.05,neutral,left,0,43,43,68,1,,,,,,,,,,,,,,,,,,,,,,,,,,,,,,,,,,,,,,,,,,,,,,,,,,,,,,,,,,,,,,,,,,,,,,,,
,8791,CAB,30/12/2004,001,2023-09-27_15h50.58.995,OS3_Mult_verification,2022.2.4,Win32,59.31549914,,,,,,,,,,,,,,,,,,,,,,,,,,,,,,,,,,,,,,,,,,,,,,,,,,,,,,,,,,,,,,,,,,,,,,,,,,,,,,,,,right,1,0.5527,,,,,,physical,9,9,9 | 9,0,0.05,0.065,neutral,right,0,44,44,63,1,,,,,,,,,,,,,,,,,,,,,,,,,,,,,,,,,,,,,,,,,,,,,,,,,,,,,,,,,,,,,,,,,,,,,,,,
,8791,CAB,30/12/2004,001,2023-09-27_15h50.58.995,OS3_Mult_verification,2022.2.4,Win32,59.31549914,,,,,,,,,,,,,,,,,,,,,,,,,,,,,,,,,,,,,,,,,,,,,,,,,,,,,,,,,,,,,,,,,,,,,,,,,,,,,,,,,right,1,0.6378,,,,,,physical,3,8,3 | 8,5,0.05,0.065,congruent,right,0,45,45,18,1,,,,,,,,,,,,,,,,,,,,,,,,,,,,,,,,,,,,,,,,,,,,,,,,,,,,,,,,,,,,,,,,,,,,,,,,
,8791,CAB,30/12/2004,001,2023-09-27_15h50.58.995,OS3_Mult_verification,2022.2.4,Win32,59.31549914,,,,,,,,,,,,,,,,,,,,,,,,,,,,,,,,,,,,,,,,,,,,,,,,,,,,,,,,,,,,,,,,,,,,,,,,,,,,,,,,,left,1,0.5213,,,,,,physical,7,7,7 | 7,0,0.065,0.05,neutral,left,0,46,46,54,1,,,,,,,,,,,,,,,,,,,,,,,,,,,,,,,,,,,,,,,,,,,,,,,,,,,,,,,,,,,,,,,,,,,,,,,,
,8791,CAB,30/12/2004,001,2023-09-27_15h50.58.995,OS3_Mult_verification,2022.2.4,Win32,59.31549914,,,,,,,,,,,,,,,,,,,,,,,,,,,,,,,,,,,,,,,,,,,,,,,,,,,,,,,,,,,,,,,,,,,,,,,,,,,,,,,,,right,1,0.4268,,,,,,physical,8,8,8 | 8,0,0.05,0.065,neutral,right,0,47,47,62,1,,,,,,,,,,,,,,,,,,,,,,,,,,,,,,,,,,,,,,,,,,,,,,,,,,,,,,,,,,,,,,,,,,,,,,,,
,8791,CAB,30/12/2004,001,2023-09-27_15h50.58.995,OS3_Mult_verification,2022.2.4,Win32,59.31549914,,,,,,,,,,,,,,,,,,,,,,,,,,,,,,,,,,,,,,,,,,,,,,,,,,,,,,,,,,,,,,,,,,,,,,,,,,,,,,,,,left,1,0.5074,,,,,,physical,6,1,6 | 1,5,0.065,0.05,congruent,left,0,48,48,20,1,,,,,,,,,,,,,,,,,,,,,,,,,,,,,,,,,,,,,,,,,,,,,,,,,,,,,,,,,,,,,,,,,,,,,,,,
,8791,CAB,30/12/2004,001,2023-09-27_15h50.58.995,OS3_Mult_verification,2022.2.4,Win32,59.31549914,,,,,,,,,,,,,,,,,,,,,,,,,,,,,,,,,,,,,,,,,,,,,,,,,,,,,,,,,,,,,,,,,,,,,,,,,,,,,,,,,right,1,0.5422,,,,,,physical,2,2,2 | 2,0,0.05,0.065,neutral,right,0,49,49,65,1,,,,,,,,,,,,,,,,,,,,,,,,,,,,,,,,,,,,,,,,,,,,,,,,,,,,,,,,,,,,,,,,,,,,,,,,
,8791,CAB,30/12/2004,001,2023-09-27_15h50.58.995,OS3_Mult_verification,2022.2.4,Win32,59.31549914,,,,,,,,,,,,,,,,,,,,,,,,,,,,,,,,,,,,,,,,,,,,,,,,,,,,,,,,,,,,,,,,,,,,,,,,,,,,,,,,,left,1,0.5196,,,,,,physical,1,3,1 | 3,2,0.065,0.05,incongruent,left,0,50,50,32,1,,,,,,,,,,,,,,,,,,,,,,,,,,,,,,,,,,,,,,,,,,,,,,,,,,,,,,,,,,,,,,,,,,,,,,,,
,8791,CAB,30/12/2004,001,2023-09-27_15h50.58.995,OS3_Mult_verification,2022.2.4,Win32,59.31549914,,,,,,,,,,,,,,,,,,,,,,,,,,,,,,,,,,,,,,,,,,,,,,,,,,,,,,,,,,,,,,,,,,,,,,,,,,,,,,,,,left,1,0.9857,,,,,,physical,8,8,8 | 8,0,0.065,0.05,neutral,left,0,51,51,51,1,,,,,,,,,,,,,,,,,,,,,,,,,,,,,,,,,,,,,,,,,,,,,,,,,,,,,,,,,,,,,,,,,,,,,,,,
,8791,CAB,30/12/2004,001,2023-09-27_15h50.58.995,OS3_Mult_verification,2022.2.4,Win32,59.31549914,,,,,,,,,,,,,,,,,,,,,,,,,,,,,,,,,,,,,,,,,,,,,,,,,,,,,,,,,,,,,,,,,,,,,,,,,,,,,,,,,right,1,0.5099,,,,,,physical,8,6,8 | 6,2,0.05,0.065,incongruent,right,0,52,52,38,1,,,,,,,,,,,,,,,,,,,,,,,,,,,,,,,,,,,,,,,,,,,,,,,,,,,,,,,,,,,,,,,,,,,,,,,,
,8791,CAB,30/12/2004,001,2023-09-27_15h50.58.995,OS3_Mult_verification,2022.2.4,Win32,59.31549914,,,,,,,,,,,,,,,,,,,,,,,,,,,,,,,,,,,,,,,,,,,,,,,,,,,,,,,,,,,,,,,,,,,,,,,,,,,,,,,,,right,1,0.557,,,,,,physical,7,7,7 | 7,0,0.05,0.065,neutral,right,0,53,53,69,1,,,,,,,,,,,,,,,,,,,,,,,,,,,,,,,,,,,,,,,,,,,,,,,,,,,,,,,,,,,,,,,,,,,,,,,,
,8791,CAB,30/12/2004,001,2023-09-27_15h50.58.995,OS3_Mult_verification,2022.2.4,Win32,59.31549914,,,,,,,,,,,,,,,,,,,,,,,,,,,,,,,,,,,,,,,,,,,,,,,,,,,,,,,,,,,,,,,,,,,,,,,,,,,,,,,,,right,1,0.64,,,,,,physical,1,2,1 | 2,1,0.05,0.065,congruent,right,0,54,54,0,1,,,,,,,,,,,,,,,,,,,,,,,,,,,,,,,,,,,,,,,,,,,,,,,,,,,,,,,,,,,,,,,,,,,,,,,,
,8791,CAB,30/12/2004,001,2023-09-27_15h50.58.995,OS3_Mult_verification,2022.2.4,Win32,59.31549914,,,,,,,,,,,,,,,,,,,,,,,,,,,,,,,,,,,,,,,,,,,,,,,,,,,,,,,,,,,,,,,,,,,,,,,,,,,,,,,,,right,1,0.6494,,,,,,physical,6,6,6 | 6,0,0.05,0.065,neutral,right,0,55,55,58,1,,,,,,,,,,,,,,,,,,,,,,,,,,,,,,,,,,,,,,,,,,,,,,,,,,,,,,,,,,,,,,,,,,,,,,,,
,8791,CAB,30/12/2004,001,2023-09-27_15h50.58.995,OS3_Mult_verification,2022.2.4,Win32,59.31549914,,,,,,,,,,,,,,,,,,,,,,,,,,,,,,,,,,,,,,,,,,,,,,,,,,,,,,,,,,,,,,,,,,,,,,,,,,,,,,,,,right,1,0.6488,,,,,,physical,4,4,4 | 4,0,0.05,0.065,neutral,right,0,56,56,67,1,,,,,,,,,,,,,,,,,,,,,,,,,,,,,,,,,,,,,,,,,,,,,,,,,,,,,,,,,,,,,,,,,,,,,,,,
,8791,CAB,30/12/2004,001,2023-09-27_15h50.58.995,OS3_Mult_verification,2022.2.4,Win32,59.31549914,,,,,,,,,,,,,,,,,,,,,,,,,,,,,,,,,,,,,,,,,,,,,,,,,,,,,,,,,,,,,,,,,,,,,,,,,,,,,,,,,left,1,0.5985,,,,,,physical,2,7,2 | 7,5,0.065,0.05,incongruent,left,0,57,57,41,1,,,,,,,,,,,,,,,,,,,,,,,,,,,,,,,,,,,,,,,,,,,,,,,,,,,,,,,,,,,,,,,,,,,,,,,,
,8791,CAB,30/12/2004,001,2023-09-27_15h50.58.995,OS3_Mult_verification,2022.2.4,Win32,59.31549914,,,,,,,,,,,,,,,,,,,,,,,,,,,,,,,,,,,,,,,,,,,,,,,,,,,,,,,,,,,,,,,,,,,,,,,,,,,,,,,,,right,1,0.5476,,,,,,physical,6,7,6 | 7,1,0.05,0.065,congruent,right,0,58,58,2,1,,,,,,,,,,,,,,,,,,,,,,,,,,,,,,,,,,,,,,,,,,,,,,,,,,,,,,,,,,,,,,,,,,,,,,,,
,8791,CAB,30/12/2004,001,2023-09-27_15h50.58.995,OS3_Mult_verification,2022.2.4,Win32,59.31549914,,,,,,,,,,,,,,,,,,,,,,,,,,,,,,,,,,,,,,,,,,,,,,,,,,,,,,,,,,,,,,,,,,,,,,,,,,,,,,,,,left,1,0.7291,,,,,,physical,2,2,2 | 2,0,0.065,0.05,neutral,left,0,59,59,52,1,,,,,,,,,,,,,,,,,,,,,,,,,,,,,,,,,,,,,,,,,,,,,,,,,,,,,,,,,,,,,,,,,,,,,,,,
,8791,CAB,30/12/2004,001,2023-09-27_15h50.58.995,OS3_Mult_verification,2022.2.4,Win32,59.31549914,,,,,,,,,,,,,,,,,,,,,,,,,,,,,,,,,,,,,,,,,,,,,,,,,,,,,,,,,,,,,,,,,,,,,,,,,,,,,,,,,left,1,0.6611,,,,,,physical,1,1,1 | 1,0,0.065,0.05,neutral,left,0,60,60,48,1,,,,,,,,,,,,,,,,,,,,,,,,,,,,,,,,,,,,,,,,,,,,,,,,,,,,,,,,,,,,,,,,,,,,,,,,
,8791,CAB,30/12/2004,001,2023-09-27_15h50.58.995,OS3_Mult_verification,2022.2.4,Win32,59.31549914,,,,,,,,,,,,,,,,,,,,,,,,,,,,,,,,,,,,,,,,,,,,,,,,,,,,,,,,,,,,,,,,,,,,,,,,,,,,,,,,,left,1,0.579,,,,,,physical,8,8,8 | 8,0,0.065,0.05,neutral,left,0,61,61,70,1,,,,,,,,,,,,,,,,,,,,,,,,,,,,,,,,,,,,,,,,,,,,,,,,,,,,,,,,,,,,,,,,,,,,,,,,
,8791,CAB,30/12/2004,001,2023-09-27_15h50.58.995,OS3_Mult_verification,2022.2.4,Win32,59.31549914,,,,,,,,,,,,,,,,,,,,,,,,,,,,,,,,,,,,,,,,,,,,,,,,,,,,,,,,,,,,,,,,,,,,,,,,,,,,,,,,,left,1,0.5897,,,,,,physical,9,8,9 | 8,1,0.065,0.05,congruent,left,0,62,62,7,1,,,,,,,,,,,,,,,,,,,,,,,,,,,,,,,,,,,,,,,,,,,,,,,,,,,,,,,,,,,,,,,,,,,,,,,,
,8791,CAB,30/12/2004,001,2023-09-27_15h50.58.995,OS3_Mult_verification,2022.2.4,Win32,59.31549914,,,,,,,,,,,,,,,,,,,,,,,,,,,,,,,,,,,,,,,,,,,,,,,,,,,,,,,,,,,,,,,,,,,,,,,,,,,,,,,,,left,1,0.862,,,,,,physical,1,6,1 | 6,5,0.065,0.05,incongruent,left,0,63,63,40,1,,,,,,,,,,,,,,,,,,,,,,,,,,,,,,,,,,,,,,,,,,,,,,,,,,,,,,,,,,,,,,,,,,,,,,,,
,8791,CAB,30/12/2004,001,2023-09-27_15h50.58.995,OS3_Mult_verification,2022.2.4,Win32,59.31549914,,,,,,,,,,,,,,,,,,,,,,,,,,,,,,,,,,,,,,,,,,,,,,,,,,,,,,,,,,,,,,,,,,,,,,,,,,,,,,,,,left,1,0.9394,,,,,,physical,9,4,9 | 4,5,0.065,0.05,congruent,left,0,64,64,23,1,,,,,,,,,,,,,,,,,,,,,,,,,,,,,,,,,,,,,,,,,,,,,,,,,,,,,,,,,,,,,,,,,,,,,,,,
,8791,CAB,30/12/2004,001,2023-09-27_15h50.58.995,OS3_Mult_verification,2022.2.4,Win32,59.31549914,,,,,,,,,,,,,,,,,,,,,,,,,,,,,,,,,,,,,,,,,,,,,,,,,,,,,,,,,,,,,,,,,,,,,,,,,,,,,,,,,right,1,0.4784,,,,,,physical,3,1,3 | 1,2,0.05,0.065,incongruent,right,0,65,65,36,1,,,,,,,,,,,,,,,,,,,,,,,,,,,,,,,,,,,,,,,,,,,,,,,,,,,,,,,,,,,,,,,,,,,,,,,,
,8791,CAB,30/12/2004,001,2023-09-27_15h50.58.995,OS3_Mult_verification,2022.2.4,Win32,59.31549914,,,,,,,,,,,,,,,,,,,,,,,,,,,,,,,,,,,,,,,,,,,,,,,,,,,,,,,,,,,,,,,,,,,,,,,,,,,,,,,,,left,1,0.6818,,,,,,physical,2,1,2 | 1,1,0.065,0.05,congruent,left,0,66,66,4,1,,,,,,,,,,,,,,,,,,,,,,,,,,,,,,,,,,,,,,,,,,,,,,,,,,,,,,,,,,,,,,,,,,,,,,,,
,8791,CAB,30/12/2004,001,2023-09-27_15h50.58.995,OS3_Mult_verification,2022.2.4,Win32,59.31549914,,,,,,,,,,,,,,,,,,,,,,,,,,,,,,,,,,,,,,,,,,,,,,,,,,,,,,,,,,,,,,,,,,,,,,,,,,,,,,,,,left,1,0.5964,,,,,,physical,3,1,3 | 1,2,0.065,0.05,congruent,left,0,67,67,12,1,,,,,,,,,,,,,,,,,,,,,,,,,,,,,,,,,,,,,,,,,,,,,,,,,,,,,,,,,,,,,,,,,,,,,,,,
,8791,CAB,30/12/2004,001,2023-09-27_15h50.58.995,OS3_Mult_verification,2022.2.4,Win32,59.31549914,,,,,,,,,,,,,,,,,,,,,,,,,,,,,,,,,,,,,,,,,,,,,,,,,,,,,,,,,,,,,,,,,,,,,,,,,,,,,,,,,left,1,0.6262,,,,,,physical,4,3,4 | 3,1,0.065,0.05,congruent,left,0,68,68,5,1,,,,,,,,,,,,,,,,,,,,,,,,,,,,,,,,,,,,,,,,,,,,,,,,,,,,,,,,,,,,,,,,,,,,,,,,
,8791,CAB,30/12/2004,001,2023-09-27_15h50.58.995,OS3_Mult_verification,2022.2.4,Win32,59.31549914,,,,,,,,,,,,,,,,,,,,,,,,,,,,,,,,,,,,,,,,,,,,,,,,,,,,,,,,,,,,,,,,,,,,,,,,,,,,,,,,,left,1,1.1049,,,,,,physical,6,6,6 | 6,0,0.065,0.05,neutral,left,0,69,69,50,1,,,,,,,,,,,,,,,,,,,,,,,,,,,,,,,,,,,,,,,,,,,,,,,,,,,,,,,,,,,,,,,,,,,,,,,,
,8791,CAB,30/12/2004,001,2023-09-27_15h50.58.995,OS3_Mult_verification,2022.2.4,Win32,59.31549914,,,,,,,,,,,,,,,,,,,,,,,,,,,,,,,,,,,,,,,,,,,,,,,,,,,,,,,,,,,,,,,,,,,,,,,,,,,,,,,,,right,1,0.5917,,,,,,physical,6,8,6 | 8,2,0.05,0.065,congruent,right,0,70,70,10,1,,,,,,,,,,,,,,,,,,,,,,,,,,,,,,,,,,,,,,,,,,,,,,,,,,,,,,,,,,,,,,,,,,,,,,,,
,8791,CAB,30/12/2004,001,2023-09-27_15h50.58.995,OS3_Mult_verification,2022.2.4,Win32,59.31549914,,,,,,,,,,,,,,,,,,,,,,,,,,,,,,,,,,,,,,,,,,,,,,,,,,,,,,,,,,,,,,,,,,,,,,,,,,,,,,,,,left,1,0.5137,,,,,,physical,3,3,3 | 3,0,0.065,0.05,neutral,left,0,71,71,66,1,,,,,,,,,,,,,,,,,,,,,,,,,,,,,,,,,,,,,,,,,,,,,,,,,,,,,,,,,,,,,,,,,,,,,,,,
,8791,CAB,30/12/2004,001,2023-09-27_15h50.58.995,OS3_Mult_verification,2022.2.4,Win32,59.31549914,,,,,,,,,,,,,,,,,,,,,,,,,,,,,,,,,,,,,,,,,,,,,,,,,,,,,,,,,,,,,,,,,,,,,,,,,,,,,,,,,,,,,,,,,,,,,,,,,,,,,,,0,0,0,1,1,stroop_stim/physical.xlsx,stroop_stim/prac_physical.xlsx,PHYSICALLY larger (larger font size).,images/physicallyLarger.png,,,,,,,,,,,,,,,,,,,,,,,,,,,,,,,,,,,,,,,,,,,,,,,,,,,,,,,,,,,,,,,
,8791,CAB,30/12/2004,001,2023-09-27_15h50.58.995,OS3_Mult_verification,2022.2.4,Win32,59.31549914,,,,,,,,,,,,,,,,space,7.782,,,,,,,,,,,,,,,,,,,,,,,,,,,,,,,,,,,,,,,,,,,,,,,,,,,,,,,,,,,,,,,,right,1,1.183,0,0,0,1,1,practice,7,8,7 | 8,1,0.065,0.05,incongruent,right,,,,,,,,,,,,,,,,,,,,,,,,,,,,,,,,,,,,,,,,,,,,,,,,,,,,,,,,,,,,,,,,,,,,,,,,,,,,,
,8791,CAB,30/12/2004,001,2023-09-27_15h50.58.995,OS3_Mult_verification,2022.2.4,Win32,59.31549914,,,,,,,,,,,,,,,,,,,,,,,,,,,,,,,,,,,,,,,,,,,,,,,,,,,,,,,,,,,,,,,,,,,,,,,,,,,,,,,,,right,1,0.8219,0,1,1,0,1,practice,1,2,1 | 2,1,0.05,0.065,congruent,right,,,,,,,,,,,,,,,,,,,,,,,,,,,,,,,,,,,,,,,,,,,,,,,,,,,,,,,,,,,,,,,,,,,,,,,,,,,,,
,8791,CAB,30/12/2004,001,2023-09-27_15h50.58.995,OS3_Mult_verification,2022.2.4,Win32,59.31549914,,,,,,,,,,,,,,,,,,,,,,,,,,,,,,,,,,,,,,,,,,,,,,,,,,,,,,,,,,,,,,,,,,,,,,,,,,,,,,,,,right,1,0.9845,0,2,2,2,1,practice,4,9,4 | 9,5,0.06,0.06,neutral,right,,,,,,,,,,,,,,,,,,,,,,,,,,,,,,,,,,,,,,,,,,,,,,,,,,,,,,,,,,,,,,,,,,,,,,,,,,,,,
,8791,CAB,30/12/2004,001,2023-09-27_15h50.58.995,OS3_Mult_verification,2022.2.4,Win32,59.31549914,,,,,,,,,,,,,,,,,,,,,,,,,,,,,,,,,,,,,,,,,,,,,,,,,,,,,,,,,,,,,,,,,,,,,,,,,,,,,,,,,right,1,1.1809,,,,,,magnitude,6,8,6 | 8,2,0.06,0.06,neutral,right,0,0,0,58,1,,,,,,,,,,,,,,,,,,,,,,,,,,,,,,,,,,,,,,,,,,,,,,,,,,,,,,,,,,,,,,,,,,,,,,,,
,8791,CAB,30/12/2004,001,2023-09-27_15h50.58.995,OS3_Mult_verification,2022.2.4,Win32,59.31549914,,,,,,,,,,,,,,,,,,,,,,,,,,,,,,,,,,,,,,,,,,,,,,,,,,,,,,,,,,,,,,,,,,,,,,,,,,,,,,,,,left,1,0.5928,,,,,,magnitude,6,1,6 | 1,5,0.065,0.05,congruent,left,0,1,1,20,1,,,,,,,,,,,,,,,,,,,,,,,,,,,,,,,,,,,,,,,,,,,,,,,,,,,,,,,,,,,,,,,,,,,,,,,,
,8791,CAB,30/12/2004,001,2023-09-27_15h50.58.995,OS3_Mult_verification,2022.2.4,Win32,59.31549914,,,,,,,,,,,,,,,,,,,,,,,,,,,,,,,,,,,,,,,,,,,,,,,,,,,,,,,,,,,,,,,,,,,,,,,,,,,,,,,,,right,1,0.497,,,,,,magnitude,2,4,2 | 4,2,0.06,0.06,neutral,right,0,2,2,57,1,,,,,,,,,,,,,,,,,,,,,,,,,,,,,,,,,,,,,,,,,,,,,,,,,,,,,,,,,,,,,,,,,,,,,,,,
,8791,CAB,30/12/2004,001,2023-09-27_15h50.58.995,OS3_Mult_verification,2022.2.4,Win32,59.31549914,,,,,,,,,,,,,,,,,,,,,,,,,,,,,,,,,,,,,,,,,,,,,,,,,,,,,,,,,,,,,,,,,,,,,,,,,,,,,,,,,left,1,0.7324,,,,,,magnitude,7,2,7 | 2,5,0.06,0.06,neutral,left,0,3,3,69,1,,,,,,,,,,,,,,,,,,,,,,,,,,,,,,,,,,,,,,,,,,,,,,,,,,,,,,,,,,,,,,,,,,,,,,,,
,8791,CAB,30/12/2004,001,2023-09-27_15h50.58.995,OS3_Mult_verification,2022.2.4,Win32,59.31549914,,,,,,,,,,,,,,,,,,,,,,,,,,,,,,,,,,,,,,,,,,,,,,,,,,,,,,,,,,,,,,,,,,,,,,,,,,,,,,,,,right,0,0.6512,,,,,,magnitude,2,1,2 | 1,1,0.05,0.065,incongruent,left,0,4,4,28,1,,,,,,,,,,,,,,,,,,,,,,,,,,,,,,,,,,,,,,,,,,,,,,,,,,,,,,,,,,,,,,,,,,,,,,,,
,8791,CAB,30/12/2004,001,2023-09-27_15h50.58.995,OS3_Mult_verification,2022.2.4,Win32,59.31549914,,,,,,,,,,,,,,,,,,,,,,,,,,,,,,,,,,,,,,,,,,,,,,,,,,,,,,,,,,,,,,,,,,,,,,,,,,,,,,,,,left,0,1.1607,,,,,,magnitude,2,4,2 | 4,2,0.065,0.05,incongruent,right,0,5,5,33,1,,,,,,,,,,,,,,,,,,,,,,,,,,,,,,,,,,,,,,,,,,,,,,,,,,,,,,,,,,,,,,,,,,,,,,,,
,8791,CAB,30/12/2004,001,2023-09-27_15h50.58.995,OS3_Mult_verification,2022.2.4,Win32,59.31549914,,,,,,,,,,,,,,,,,,,,,,,,,,,,,,,,,,,,,,,,,,,,,,,,,,,,,,,,,,,,,,,,,,,,,,,,,,,,,,,,,right,1,1.9691,,,,,,magnitude,6,8,6 | 8,2,0.065,0.05,incongruent,right,0,6,6,34,1,,,,,,,,,,,,,,,,,,,,,,,,,,,,,,,,,,,,,,,,,,,,,,,,,,,,,,,,,,,,,,,,,,,,,,,,
,8791,CAB,30/12/2004,001,2023-09-27_15h50.58.995,OS3_Mult_verification,2022.2.4,Win32,59.31549914,,,,,,,,,,,,,,,,,,,,,,,,,,,,,,,,,,,,,,,,,,,,,,,,,,,,,,,,,,,,,,,,,,,,,,,,,,,,,,,,,right,1,1.1738,,,,,,magnitude,7,9,7 | 9,2,0.05,0.065,congruent,right,0,7,7,11,1,,,,,,,,,,,,,,,,,,,,,,,,,,,,,,,,,,,,,,,,,,,,,,,,,,,,,,,,,,,,,,,,,,,,,,,,
,8791,CAB,30/12/2004,001,2023-09-27_15h50.58.995,OS3_Mult_verification,2022.2.4,Win32,59.31549914,,,,,,,,,,,,,,,,,,,,,,,,,,,,,,,,,,,,,,,,,,,,,,,,,,,,,,,,,,,,,,,,,,,,,,,,,,,,,,,,,left,1,1.0617,,,,,,magnitude,4,3,4 | 3,1,0.05,0.065,incongruent,left,0,8,8,29,1,,,,,,,,,,,,,,,,,,,,,,,,,,,,,,,,,,,,,,,,,,,,,,,,,,,,,,,,,,,,,,,,,,,,,,,,
,8791,CAB,30/12/2004,001,2023-09-27_15h50.58.995,OS3_Mult_verification,2022.2.4,Win32,59.31549914,,,,,,,,,,,,,,,,,,,,,,,,,,,,,,,,,,,,,,,,,,,,,,,,,,,,,,,,,,,,,,,,,,,,,,,,,,,,,,,,,right,1,1.227,,,,,,magnitude,4,9,4 | 9,5,0.065,0.05,incongruent,right,0,9,9,43,1,,,,,,,,,,,,,,,,,,,,,,,,,,,,,,,,,,,,,,,,,,,,,,,,,,,,,,,,,,,,,,,,,,,,,,,,
,8791,CAB,30/12/2004,001,2023-09-27_15h50.58.995,OS3_Mult_verification,2022.2.4,Win32,59.31549914,,,,,,,,,,,,,,,,,,,,,,,,,,,,,,,,,,,,,,,,,,,,,,,,,,,,,,,,,,,,,,,,,,,,,,,,,,,,,,,,,left,1,1.0676,,,,,,magnitude,8,3,8 | 3,5,0.05,0.065,incongruent,left,0,10,10,46,1,,,,,,,,,,,,,,,,,,,,,,,,,,,,,,,,,,,,,,,,,,,,,,,,,,,,,,,,,,,,,,,,,,,,,,,,
,8791,CAB,30/12/2004,001,2023-09-27_15h50.58.995,OS3_Mult_verification,2022.2.4,Win32,59.31549914,,,,,,,,,,,,,,,,,,,,,,,,,,,,,,,,,,,,,,,,,,,,,,,,,,,,,,,,,,,,,,,,,,,,,,,,,,,,,,,,,right,1,1.0122,,,,,,magnitude,1,6,1 | 6,5,0.05,0.065,congruent,right,0,11,11,16,1,,,,,,,,,,,,,,,,,,,,,,,,,,,,,,,,,,,,,,,,,,,,,,,,,,,,,,,,,,,,,,,,,,,,,,,,
,8791,CAB,30/12/2004,001,2023-09-27_15h50.58.995,OS3_Mult_verification,2022.2.4,Win32,59.31549914,,,,,,,,,,,,,,,,,,,,,,,,,,,,,,,,,,,,,,,,,,,,,,,,,,,,,,,,,,,,,,,,,,,,,,,,,,,,,,,,,left,1,0.7241,,,,,,magnitude,8,3,8 | 3,5,0.065,0.05,congruent,left,0,12,12,22,1,,,,,,,,,,,,,,,,,,,,,,,,,,,,,,,,,,,,,,,,,,,,,,,,,,,,,,,,,,,,,,,,,,,,,,,,
,8791,CAB,30/12/2004,001,2023-09-27_15h50.58.995,OS3_Mult_verification,2022.2.4,Win32,59.31549914,,,,,,,,,,,,,,,,,,,,,,,,,,,,,,,,,,,,,,,,,,,,,,,,,,,,,,,,,,,,,,,,,,,,,,,,,,,,,,,,,right,1,0.7807,,,,,,magnitude,6,7,6 | 7,1,0.06,0.06,neutral,right,0,13,13,50,1,,,,,,,,,,,,,,,,,,,,,,,,,,,,,,,,,,,,,,,,,,,,,,,,,,,,,,,,,,,,,,,,,,,,,,,,
,8791,CAB,30/12/2004,001,2023-09-27_15h50.58.995,OS3_Mult_verification,2022.2.4,Win32,59.31549914,,,,,,,,,,,,,,,,,,,,,,,,,,,,,,,,,,,,,,,,,,,,,,,,,,,,,,,,,,,,,,,,,,,,,,,,,,,,,,,,,right,1,1.5932,,,,,,magnitude,6,8,6 | 8,2,0.05,0.065,congruent,right,0,14,14,10,1,,,,,,,,,,,,,,,,,,,,,,,,,,,,,,,,,,,,,,,,,,,,,,,,,,,,,,,,,,,,,,,,,,,,,,,,
,8791,CAB,30/12/2004,001,2023-09-27_15h50.58.995,OS3_Mult_verification,2022.2.4,Win32,59.31549914,,,,,,,,,,,,,,,,,,,,,,,,,,,,,,,,,,,,,,,,,,,,,,,,,,,,,,,,,,,,,,,,,,,,,,,,,,,,,,,,,left,1,0.8472,,,,,,magnitude,3,1,3 | 1,2,0.06,0.06,neutral,left,0,15,15,60,1,,,,,,,,,,,,,,,,,,,,,,,,,,,,,,,,,,,,,,,,,,,,,,,,,,,,,,,,,,,,,,,,,,,,,,,,
,8791,CAB,30/12/2004,001,2023-09-27_15h50.58.995,OS3_Mult_verification,2022.2.4,Win32,59.31549914,,,,,,,,,,,,,,,,,,,,,,,,,,,,,,,,,,,,,,,,,,,,,,,,,,,,,,,,,,,,,,,,,,,,,,,,,,,,,,,,,right,1,0.6921,,,,,,magnitude,1,6,1 | 6,5,0.06,0.06,neutral,right,0,16,16,64,1,,,,,,,,,,,,,,,,,,,,,,,,,,,,,,,,,,,,,,,,,,,,,,,,,,,,,,,,,,,,,,,,,,,,,,,,
,8791,CAB,30/12/2004,001,2023-09-27_15h50.58.995,OS3_Mult_verification,2022.2.4,Win32,59.31549914,,,,,,,,,,,,,,,,,,,,,,,,,,,,,,,,,,,,,,,,,,,,,,,,,,,,,,,,,,,,,,,,,,,,,,,,,,,,,,,,,left,1,0.7651,,,,,,magnitude,4,2,4 | 2,2,0.065,0.05,congruent,left,0,17,17,13,1,,,,,,,,,,,,,,,,,,,,,,,,,,,,,,,,,,,,,,,,,,,,,,,,,,,,,,,,,,,,,,,,,,,,,,,,
,8791,CAB,30/12/2004,001,2023-09-27_15h50.58.995,OS3_Mult_verification,2022.2.4,Win32,59.31549914,,,,,,,,,,,,,,,,,,,,,,,,,,,,,,,,,,,,,,,,,,,,,,,,,,,,,,,,,,,,,,,,,,,,,,,,,,,,,,,,,left,1,0.8078,,,,,,magnitude,8,6,8 | 6,2,0.065,0.05,congruent,left,0,18,18,14,1,,,,,,,,,,,,,,,,,,,,,,,,,,,,,,,,,,,,,,,,,,,,,,,,,,,,,,,,,,,,,,,,,,,,,,,,
,8791,CAB,30/12/2004,001,2023-09-27_15h50.58.995,OS3_Mult_verification,2022.2.4,Win32,59.31549914,,,,,,,,,,,,,,,,,,,,,,,,,,,,,,,,,,,,,,,,,,,,,,,,,,,,,,,,,,,,,,,,,,,,,,,,,,,,,,,,,right,1,0.8131,,,,,,magnitude,1,3,1 | 3,2,0.05,0.065,congruent,right,0,19,19,8,1,,,,,,,,,,,,,,,,,,,,,,,,,,,,,,,,,,,,,,,,,,,,,,,,,,,,,,,,,,,,,,,,,,,,,,,,
,8791,CAB,30/12/2004,001,2023-09-27_15h50.58.995,OS3_Mult_verification,2022.2.4,Win32,59.31549914,,,,,,,,,,,,,,,,,,,,,,,,,,,,,,,,,,,,,,,,,,,,,,,,,,,,,,,,,,,,,,,,,,,,,,,,,,,,,,,,,right,1,0.5689,,,,,,magnitude,1,3,1 | 3,2,0.06,0.06,neutral,right,0,20,20,56,1,,,,,,,,,,,,,,,,,,,,,,,,,,,,,,,,,,,,,,,,,,,,,,,,,,,,,,,,,,,,,,,,,,,,,,,,
,8791,CAB,30/12/2004,001,2023-09-27_15h50.58.995,OS3_Mult_verification,2022.2.4,Win32,59.31549914,,,,,,,,,,,,,,,,,,,,,,,,,,,,,,,,,,,,,,,,,,,,,,,,,,,,,,,,,,,,,,,,,,,,,,,,,,,,,,,,,right,1,1.0364,,,,,,magnitude,1,2,1 | 2,1,0.06,0.06,neutral,right,0,21,21,48,1,,,,,,,,,,,,,,,,,,,,,,,,,,,,,,,,,,,,,,,,,,,,,,,,,,,,,,,,,,,,,,,,,,,,,,,,
,8791,CAB,30/12/2004,001,2023-09-27_15h50.58.995,OS3_Mult_verification,2022.2.4,Win32,59.31549914,,,,,,,,,,,,,,,,,,,,,,,,,,,,,,,,,,,,,,,,,,,,,,,,,,,,,,,,,,,,,,,,,,,,,,,,,,,,,,,,,right,1,1.0428,,,,,,magnitude,4,9,4 | 9,5,0.06,0.06,neutral,right,0,22,22,67,1,,,,,,,,,,,,,,,,,,,,,,,,,,,,,,,,,,,,,,,,,,,,,,,,,,,,,,,,,,,,,,,,,,,,,,,,
,8791,CAB,30/12/2004,001,2023-09-27_15h50.58.995,OS3_Mult_verification,2022.2.4,Win32,59.31549914,,,,,,,,,,,,,,,,,,,,,,,,,,,,,,,,,,,,,,,,,,,,,,,,,,,,,,,,,,,,,,,,,,,,,,,,,,,,,,,,,left,1,0.7126,,,,,,magnitude,3,1,3 | 1,2,0.05,0.065,incongruent,left,0,23,23,36,1,,,,,,,,,,,,,,,,,,,,,,,,,,,,,,,,,,,,,,,,,,,,,,,,,,,,,,,,,,,,,,,,,,,,,,,,
,8791,CAB,30/12/2004,001,2023-09-27_15h50.58.995,OS3_Mult_verification,2022.2.4,Win32,59.31549914,,,,,,,,,,,,,,,,,,,,,,,,,,,,,,,,,,,,,,,,,,,,,,,,,,,,,,,,,,,,,,,,,,,,,,,,,,,,,,,,,left,1,1.0162,,,,,,magnitude,7,2,7 | 2,5,0.065,0.05,congruent,left,0,24,24,21,1,,,,,,,,,,,,,,,,,,,,,,,,,,,,,,,,,,,,,,,,,,,,,,,,,,,,,,,,,,,,,,,,,,,,,,,,
,8791,CAB,30/12/2004,001,2023-09-27_15h50.58.995,OS3_Mult_verification,2022.2.4,Win32,59.31549914,,,,,,,,,,,,,,,,,,,,,,,,,,,,,,,,,,,,,,,,,,,,,,,,,,,,,,,,,,,,,,,,,,,,,,,,,,,,,,,,,right,1,1.0191,,,,,,magnitude,1,3,1 | 3,2,0.065,0.05,incongruent,right,0,25,25,32,1,,,,,,,,,,,,,,,,,,,,,,,,,,,,,,,,,,,,,,,,,,,,,,,,,,,,,,,,,,,,,,,,,,,,,,,,
,8791,CAB,30/12/2004,001,2023-09-27_15h50.58.995,OS3_Mult_verification,2022.2.4,Win32,59.31549914,,,,,,,,,,,,,,,,,,,,,,,,,,,,,,,,,,,,,,,,,,,,,,,,,,,,,,,,,,,,,,,,,,,,,,,,,,,,,,,,,right,1,1.7774,,,,,,magnitude,3,4,3 | 4,1,0.05,0.065,congruent,right,0,26,26,1,1,,,,,,,,,,,,,,,,,,,,,,,,,,,,,,,,,,,,,,,,,,,,,,,,,,,,,,,,,,,,,,,,,,,,,,,,
,8791,CAB,30/12/2004,001,2023-09-27_15h50.58.995,OS3_Mult_verification,2022.2.4,Win32,59.31549914,,,,,,,,,,,,,,,,,,,,,,,,,,,,,,,,,,,,,,,,,,,,,,,,,,,,,,,,,,,,,,,,,,,,,,,,,,,,,,,,,right,1,0.8675,,,,,,magnitude,7,9,7 | 9,2,0.065,0.05,incongruent,right,0,27,27,35,1,,,,,,,,,,,,,,,,,,,,,,,,,,,,,,,,,,,,,,,,,,,,,,,,,,,,,,,,,,,,,,,,,,,,,,,,
,8791,CAB,30/12/2004,001,2023-09-27_15h50.58.995,OS3_Mult_verification,2022.2.4,Win32,59.31549914,,,,,,,,,,,,,,,,,,,,,,,,,,,,,,,,,,,,,,,,,,,,,,,,,,,,,,,,,,,,,,,,,,,,,,,,,,,,,,,,,right,1,1.2981,,,,,,magnitude,1,6,1 | 6,5,0.065,0.05,incongruent,right,0,28,28,40,1,,,,,,,,,,,,,,,,,,,,,,,,,,,,,,,,,,,,,,,,,,,,,,,,,,,,,,,,,,,,,,,,,,,,,,,,
,8791,CAB,30/12/2004,001,2023-09-27_15h50.58.995,OS3_Mult_verification,2022.2.4,Win32,59.31549914,,,,,,,,,,,,,,,,,,,,,,,,,,,,,,,,,,,,,,,,,,,,,,,,,,,,,,,,,,,,,,,,,,,,,,,,,,,,,,,,,left,1,0.9497,,,,,,magnitude,9,4,9 | 4,5,0.05,0.065,incongruent,left,0,29,29,47,1,,,,,,,,,,,,,,,,,,,,,,,,,,,,,,,,,,,,,,,,,,,,,,,,,,,,,,,,,,,,,,,,,,,,,,,,
,8791,CAB,30/12/2004,001,2023-09-27_15h50.58.995,OS3_Mult_verification,2022.2.4,Win32,59.31549914,,,,,,,,,,,,,,,,,,,,,,,,,,,,,,,,,,,,,,,,,,,,,,,,,,,,,,,,,,,,,,,,,,,,,,,,,,,,,,,,,left,1,0.5221,,,,,,magnitude,9,4,9 | 4,5,0.06,0.06,neutral,left,0,30,30,71,1,,,,,,,,,,,,,,,,,,,,,,,,,,,,,,,,,,,,,,,,,,,,,,,,,,,,,,,,,,,,,,,,,,,,,,,,
,8791,CAB,30/12/2004,001,2023-09-27_15h50.58.995,OS3_Mult_verification,2022.2.4,Win32,59.31549914,,,,,,,,,,,,,,,,,,,,,,,,,,,,,,,,,,,,,,,,,,,,,,,,,,,,,,,,,,,,,,,,,,,,,,,,,,,,,,,,,right,1,1.2301,,,,,,magnitude,2,4,2 | 4,2,0.05,0.065,congruent,right,0,31,31,9,1,,,,,,,,,,,,,,,,,,,,,,,,,,,,,,,,,,,,,,,,,,,,,,,,,,,,,,,,,,,,,,,,,,,,,,,,
,8791,CAB,30/12/2004,001,2023-09-27_15h50.58.995,OS3_Mult_verification,2022.2.4,Win32,59.31549914,,,,,,,,,,,,,,,,,,,,,,,,,,,,,,,,,,,,,,,,,,,,,,,,,,,,,,,,,,,,,,,,,,,,,,,,,,,,,,,,,right,1,1.213,,,,,,magnitude,8,9,8 | 9,1,0.06,0.06,neutral,right,0,32,32,51,1,,,,,,,,,,,,,,,,,,,,,,,,,,,,,,,,,,,,,,,,,,,,,,,,,,,,,,,,,,,,,,,,,,,,,,,,
,8791,CAB,30/12/2004,001,2023-09-27_15h50.58.995,OS3_Mult_verification,2022.2.4,Win32,59.31549914,,,,,,,,,,,,,,,,,,,,,,,,,,,,,,,,,,,,,,,,,,,,,,,,,,,,,,,,,,,,,,,,,,,,,,,,,,,,,,,,,left,1,0.8085,,,,,,magnitude,8,3,8 | 3,5,0.06,0.06,neutral,left,0,33,33,70,1,,,,,,,,,,,,,,,,,,,,,,,,,,,,,,,,,,,,,,,,,,,,,,,,,,,,,,,,,,,,,,,,,,,,,,,,
,8791,CAB,30/12/2004,001,2023-09-27_15h50.58.995,OS3_Mult_verification,2022.2.4,Win32,59.31549914,,,,,,,,,,,,,,,,,,,,,,,,,,,,,,,,,,,,,,,,,,,,,,,,,,,,,,,,,,,,,,,,,,,,,,,,,,,,,,,,,left,1,0.9379,,,,,,magnitude,7,6,7 | 6,1,0.06,0.06,neutral,left,0,34,34,54,1,,,,,,,,,,,,,,,,,,,,,,,,,,,,,,,,,,,,,,,,,,,,,,,,,,,,,,,,,,,,,,,,,,,,,,,,
,8791,CAB,30/12/2004,001,2023-09-27_15h50.58.995,OS3_Mult_verification,2022.2.4,Win32,59.31549914,,,,,,,,,,,,,,,,,,,,,,,,,,,,,,,,,,,,,,,,,,,,,,,,,,,,,,,,,,,,,,,,,,,,,,,,,,,,,,,,,left,1,0.672,,,,,,magnitude,9,4,9 | 4,5,0.065,0.05,congruent,left,0,35,35,23,1,,,,,,,,,,,,,,,,,,,,,,,,,,,,,,,,,,,,,,,,,,,,,,,,,,,,,,,,,,,,,,,,,,,,,,,,
,8791,CAB,30/12/2004,001,2023-09-27_15h50.58.995,OS3_Mult_verification,2022.2.4,Win32,59.31549914,,,,,,,,,,,,,,,,,,,,,,,,,,,,,,,,,,,,,,,,,,,,,,,,,,,,,,,,,,,,,,,,,,,,,,,,,,,,,,,,,right,1,1.0787,,,,,,magnitude,2,7,2 | 7,5,0.06,0.06,neutral,right,0,36,36,65,1,,,,,,,,,,,,,,,,,,,,,,,,,,,,,,,,,,,,,,,,,,,,,,,,,,,,,,,,,,,,,,,,,,,,,,,,
,8791,CAB,30/12/2004,001,2023-09-27_15h50.58.995,OS3_Mult_verification,2022.2.4,Win32,59.31549914,,,,,,,,,,,,,,,,,,,,,,,,,,,,,,,,,,,,,,,,,,,,,,,,,,,,,,,,,,,,,,,,,,,,,,,,,,,,,,,,,left,1,1.092,,,,,,magnitude,9,8,9 | 8,1,0.06,0.06,neutral,left,0,37,37,55,1,,,,,,,,,,,,,,,,,,,,,,,,,,,,,,,,,,,,,,,,,,,,,,,,,,,,,,,,,,,,,,,,,,,,,,,,
