windowSize,participant,group,DOB (DD/MM/YEAR),session,date,expName,psychopyVersion,OS,frameRate,typing_instr_resp.keys,typing_instr_resp.rt,typing_response,typing_rt,typing_score,typingSpeed_input_resp.keys,typingSpeed_input_resp.rt,typing_speed_trials.thisRepN,typing_speed_trials.thisTrialN,typing_speed_trials.thisN,typing_speed_trials.thisIndex,typing_speed_trials.ran,typing_speed_stim,typing_report_resp.keys,typing_report_resp.rt,vpt_trial_resp1.keys,vpt_trial_resp1.rt,typedResponse,fluency_rt,fluency_score,fluencyInputResp.keys,fluencyInputResp.rt,fluencyPracLoop.thisRepN,fluencyPracLoop.thisTrialN,fluencyPracLoop.thisN,fluencyPracLoop.thisIndex,fluencyPracLoop.ran,problem,answers,fluencyLoop.thisRepN,fluencyLoop.thisTrialN,fluencyLoop.thisN,fluencyLoop.thisIndex,fluencyLoop.ran,vptCorrect,vpt_rt,respMouse.x,respMouse.y,respMouse.leftButton,respMouse.midButton,respMouse.rightButton,vptPracticeLoop.thisRepN,vptPracticeLoop.thisTrialN,vptPracticeLoop.thisN,vptPracticeLoop.thisIndex,vptPracticeLoop.ran,trialType,tiles,rows,cols,vptTrialLoop.thisRepN,vptTrialLoop.thisTrialN,vptTrialLoop.thisN,vptTrialLoop.thisIndex,vptTrialLoop.ran,noOfBlocks,TASK_B.thisRepN,TASK_B.thisTrialN,TASK_B.thisN,TASK_B.thisIndex,TASK_B.ran,controlTaskOrder.thisRepN,controlTaskOrder.thisTrialN,controlTaskOrder.thisN,controlTaskOrder.thisIndex,controlTaskOrder.ran,nRepsTask1,nRepsTask2,nRepsTask3,sampleAudio_resp.keys,sampleAudio_resp.rt,subjResponse,audio_rt,DS_score,inputResp.keys,inputResp.rt,audioPracticeLoop.thisRepN,audioPracticeLoop.thisTrialN,audioPracticeLoop.thisN,audioPracticeLoop.thisIndex,audioPracticeLoop.ran,digitSpan,digits_audioStim,soundsFile,typeDS,audioTrials_Loop.thisRepN,audioTrials_Loop.thisTrialN,audioTrials_Loop.thisN,audioTrials_Loop.thisIndex,audioTrials_Loop.ran,audioBlocks_loop.thisRepN,audioBlocks_loop.thisTrialN,audioBlocks_loop.thisN,audioBlocks_loop.thisIndex,audioBlocks_loop.ran,ConditionFile,digitSpanTask_loop.thisRepN,digitSpanTask_loop.thisTrialN,digitSpanTask_loop.thisN,digitSpanTask_loop.thisIndex,digitSpanTask_loop.ran,dsFile,TASK_C.thisRepN,TASK_C.thisTrialN,TASK_C.thisN,TASK_C.thisIndex,TASK_C.ran,stroopResp.keys,stroopResp.corr,stroopResp.rt,stroopPracLoop.thisRepN,stroopPracLoop.thisTrialN,stroopPracLoop.thisN,stroopPracLoop.thisIndex,stroopPracLoop.ran,stroopCond,leftNo,rightNo,displayProblem,numDistance,leftNo_size,rightNo_size,Dims,keyAnswer,stroopLoop.thisRepN,stroopLoop.thisTrialN,stroopLoop.thisN,stroopLoop.thisIndex,stroopLoop.ran,stroopBlocks.thisRepN,stroopBlocks.thisTrialN,stroopBlocks.thisN,stroopBlocks.thisIndex,stroopBlocks.ran,stroop_condition,stroop_pracFile,ActionInst,instrImage,TASK_A.thisRepN,TASK_A.thisTrialN,TASK_A.thisN,TASK_A.thisIndex,TASK_A.ran,veriStim_resp.keys,veriStim_resp.corr,veriStim_resp.rt,verificationPracLoop.thisRepN,verificationPracLoop.thisTrialN,verificationPracLoop.thisN,verificationPracLoop.thisIndex,verificationPracLoop.ran,mult_problem,mult_answer,mult_type,error_distance,interferenceScore,problemType,interferenceLevel,problemSize,img_leftButton,img_rightButton,veriLoop.thisRepN,veriLoop.thisTrialN,veriLoop.thisN,veriLoop.thisIndex,veriLoop.ran,veriBlock.thisRepN,veriBlock.thisTrialN,veriBlock.thisN,veriBlock.thisIndex,veriBlock.ran,verificationFiles,end_resp.keys,end_resp.rt
"[1280,595]",8845,BCA,22/05/2003,001,2023-10-06_20h53.12.091,OS3_Mult_verification,2022.2.4,Win32,59.98440405,,,,,,,,,,,,,,,,,,,,,,,,,,,,,,,,,,,,,,,,,,,,,,,,,,,,,,,,,,,,,,,,,,,,,,,,,,,,,,,,,,,,,,,,,,,,,,,,,,,,,,,,,,,,,,,,,,,,,,,,,,,,,,,,,,,,,,,,,,,,,,,,,,,,,,,,,,,,,,,,,,,,,,,,,,,,,,
,8845,BCA,22/05/2003,001,2023-10-06_20h53.12.091,OS3_Mult_verification,2022.2.4,Win32,59.98440405,,,,,,,,,,,,,,,,,,,,,,,,,,,,,,,,,,,,,,,,,,,,,,,,,,,,,,,,,,,,,,,,,,,,,,,,,,,,,,,,,,,,,,,,,,,,,,,,,,,,,,,,,,,,,,,,,,,,,,,,,,,,,,,,,,,,,,,,,,,,,,,,,,,,,,,,,,,,,,,,,,,,,,,,,,,,,,
,8845,BCA,22/05/2003,001,2023-10-06_20h53.12.091,OS3_Mult_verification,2022.2.4,Win32,59.98440405,space,20.7137,,,,,,,,,,,,,,,,,,,,,,,,,,,,,,,,,,,,,,,,,,,,,,,,,,,,,,,,,,,,,,,,,,,,,,,,,,,,,,,,,,,,,,,,,,,,,,,,,,,,,,,,,,,,,,,,,,,,,,,,,,,,,,,,,,,,,,,,,,,,,,,,,,,,,,,,,,,,,,,,,,,,,,,,,,,,
,8845,BCA,22/05/2003,001,2023-10-06_20h53.12.091,OS3_Mult_verification,2022.2.4,Win32,59.98440405,,,10,1.9658,1,"[""1"",""0"",""return""]","[1.1664999999999992,1.2995999999642365,1.9325999999642391]",0,0,0,4,1,10,,,,,,,,,,,,,,,,,,,,,,,,,,,,,,,,,,,,,,,,,,,,,,,,,,,,,,,,,,,,,,,,,,,,,,,,,,,,,,,,,,,,,,,,,,,,,,,,,,,,,,,,,,,,,,,,,,,,,,,,,,,,,,,,,,,,,,,,,,,,,,,,,,,,,,,,,,,,,,,,,
,8845,BCA,22/05/2003,001,2023-10-06_20h53.12.091,OS3_Mult_verification,2022.2.4,Win32,59.98440405,,,64,2,1,"[""6"",""4"",""return""]","[1.5490000000000066,1.8125999999642346,1.965199999988073]",0,1,1,28,1,64,,,,,,,,,,,,,,,,,,,,,,,,,,,,,,,,,,,,,,,,,,,,,,,,,,,,,,,,,,,,,,,,,,,,,,,,,,,,,,,,,,,,,,,,,,,,,,,,,,,,,,,,,,,,,,,,,,,,,,,,,,,,,,,,,,,,,,,,,,,,,,,,,,,,,,,,,,,,,,,,,
,8845,BCA,22/05/2003,001,2023-10-06_20h53.12.091,OS3_Mult_verification,2022.2.4,Win32,59.98440405,,,72,2.0701,1,"[""7"",""2"",""return""]","[1.2164999999999964,1.8299999999999983,2.0295999999642333]",0,2,2,29,1,72,,,,,,,,,,,,,,,,,,,,,,,,,,,,,,,,,,,,,,,,,,,,,,,,,,,,,,,,,,,,,,,,,,,,,,,,,,,,,,,,,,,,,,,,,,,,,,,,,,,,,,,,,,,,,,,,,,,,,,,,,,,,,,,,,,,,,,,,,,,,,,,,,,,,,,,,,,,,,,,,,
,8845,BCA,22/05/2003,001,2023-10-06_20h53.12.091,OS3_Mult_verification,2022.2.4,Win32,59.98440405,,,28,1.5199,1,"[""2"",""8"",""return""]","[0.830199999988082,1.274000000000008,1.469899999976171]",0,3,3,15,1,28,,,,,,,,,,,,,,,,,,,,,,,,,,,,,,,,,,,,,,,,,,,,,,,,,,,,,,,,,,,,,,,,,,,,,,,,,,,,,,,,,,,,,,,,,,,,,,,,,,,,,,,,,,,,,,,,,,,,,,,,,,,,,,,,,,,,,,,,,,,,,,,,,,,,,,,,,,,,,,,,,
,8845,BCA,22/05/2003,001,2023-10-06_20h53.12.091,OS3_Mult_verification,2022.2.4,Win32,59.98440405,,,9,1.3206,1,"[""9"",""return""]","[1.1331999999880793,1.2825999999642335]",0,4,4,3,1,9,,,,,,,,,,,,,,,,,,,,,,,,,,,,,,,,,,,,,,,,,,,,,,,,,,,,,,,,,,,,,,,,,,,,,,,,,,,,,,,,,,,,,,,,,,,,,,,,,,,,,,,,,,,,,,,,,,,,,,,,,,,,,,,,,,,,,,,,,,,,,,,,,,,,,,,,,,,,,,,,,
,8845,BCA,22/05/2003,001,2023-10-06_20h53.12.091,OS3_Mult_verification,2022.2.4,Win32,59.98440405,,,42,1.4541,1,"[""4"",""2"",""return""]","[1.015399999976168,1.2507999999523207,1.416000000000011]",0,5,5,21,1,42,,,,,,,,,,,,,,,,,,,,,,,,,,,,,,,,,,,,,,,,,,,,,,,,,,,,,,,,,,,,,,,,,,,,,,,,,,,,,,,,,,,,,,,,,,,,,,,,,,,,,,,,,,,,,,,,,,,,,,,,,,,,,,,,,,,,,,,,,,,,,,,,,,,,,,,,,,,,,,,,,
,8845,BCA,22/05/2003,001,2023-10-06_20h53.12.091,OS3_Mult_verification,2022.2.4,Win32,59.98440405,,,12,1.1484,1,"[""1"",""2"",""return""]","[0.704600000023845,0.9661999999880777,1.1079000000357553]",0,6,6,5,1,12,,,,,,,,,,,,,,,,,,,,,,,,,,,,,,,,,,,,,,,,,,,,,,,,,,,,,,,,,,,,,,,,,,,,,,,,,,,,,,,,,,,,,,,,,,,,,,,,,,,,,,,,,,,,,,,,,,,,,,,,,,,,,,,,,,,,,,,,,,,,,,,,,,,,,,,,,,,,,,,,,
,8845,BCA,22/05/2003,001,2023-10-06_20h53.12.091,OS3_Mult_verification,2022.2.4,Win32,59.98440405,,,16,1.2326,1,"[""1"",""6"",""return""]","[0.6496999999880728,1.0216999999880727,1.188300000011921]",0,7,7,8,1,16,,,,,,,,,,,,,,,,,,,,,,,,,,,,,,,,,,,,,,,,,,,,,,,,,,,,,,,,,,,,,,,,,,,,,,,,,,,,,,,,,,,,,,,,,,,,,,,,,,,,,,,,,,,,,,,,,,,,,,,,,,,,,,,,,,,,,,,,,,,,,,,,,,,,,,,,,,,,,,,,,
,8845,BCA,22/05/2003,001,2023-10-06_20h53.12.091,OS3_Mult_verification,2022.2.4,Win32,59.98440405,,,14,1.2873,1,"[""1"",""4"",""return""]","[0.667500000000004,1.0823000000119265,1.2495999999642464]",0,8,8,6,1,14,,,,,,,,,,,,,,,,,,,,,,,,,,,,,,,,,,,,,,,,,,,,,,,,,,,,,,,,,,,,,,,,,,,,,,,,,,,,,,,,,,,,,,,,,,,,,,,,,,,,,,,,,,,,,,,,,,,,,,,,,,,,,,,,,,,,,,,,,,,,,,,,,,,,,,,,,,,,,,,,,
,8845,BCA,22/05/2003,001,2023-10-06_20h53.12.091,OS3_Mult_verification,2022.2.4,Win32,59.98440405,,,54,1.387,1,"[""5"",""4"",""return""]","[0.9488000000119143,1.1499000000357569,1.3484999999999872]",0,9,9,25,1,54,,,,,,,,,,,,,,,,,,,,,,,,,,,,,,,,,,,,,,,,,,,,,,,,,,,,,,,,,,,,,,,,,,,,,,,,,,,,,,,,,,,,,,,,,,,,,,,,,,,,,,,,,,,,,,,,,,,,,,,,,,,,,,,,,,,,,,,,,,,,,,,,,,,,,,,,,,,,,,,,,
,8845,BCA,22/05/2003,001,2023-10-06_20h53.12.091,OS3_Mult_verification,2022.2.4,Win32,59.98440405,,,35,1.4483,1,"[""3"",""5"",""return""]","[0.8993999999761542,1.2011999999880771,1.406599999964243]",0,10,10,18,1,35,,,,,,,,,,,,,,,,,,,,,,,,,,,,,,,,,,,,,,,,,,,,,,,,,,,,,,,,,,,,,,,,,,,,,,,,,,,,,,,,,,,,,,,,,,,,,,,,,,,,,,,,,,,,,,,,,,,,,,,,,,,,,,,,,,,,,,,,,,,,,,,,,,,,,,,,,,,,,,,,,
,8845,BCA,22/05/2003,001,2023-10-06_20h53.12.091,OS3_Mult_verification,2022.2.4,Win32,59.98440405,,,27,1.337,1,"[""2"",""7"",""return""]","[0.7546999999880768,1.1380000000000052,1.2944000000357647]",0,11,11,14,1,27,,,,,,,,,,,,,,,,,,,,,,,,,,,,,,,,,,,,,,,,,,,,,,,,,,,,,,,,,,,,,,,,,,,,,,,,,,,,,,,,,,,,,,,,,,,,,,,,,,,,,,,,,,,,,,,,,,,,,,,,,,,,,,,,,,,,,,,,,,,,,,,,,,,,,,,,,,,,,,,,,
,8845,BCA,22/05/2003,001,2023-10-06_20h53.12.091,OS3_Mult_verification,2022.2.4,Win32,59.98440405,,,56,1.3959,1,"[""5"",""6"",""return""]","[0.9668000000119292,1.1563000000119246,1.3501000000238434]",0,12,12,26,1,56,,,,,,,,,,,,,,,,,,,,,,,,,,,,,,,,,,,,,,,,,,,,,,,,,,,,,,,,,,,,,,,,,,,,,,,,,,,,,,,,,,,,,,,,,,,,,,,,,,,,,,,,,,,,,,,,,,,,,,,,,,,,,,,,,,,,,,,,,,,,,,,,,,,,,,,,,,,,,,,,,
,8845,BCA,22/05/2003,001,2023-10-06_20h53.12.091,OS3_Mult_verification,2022.2.4,Win32,59.98440405,,,25,1.4032,1,"[""2"",""5"",""return""]","[0.7826999999880826,1.2160999999642428,1.353399999976162]",0,13,13,13,1,25,,,,,,,,,,,,,,,,,,,,,,,,,,,,,,,,,,,,,,,,,,,,,,,,,,,,,,,,,,,,,,,,,,,,,,,,,,,,,,,,,,,,,,,,,,,,,,,,,,,,,,,,,,,,,,,,,,,,,,,,,,,,,,,,,,,,,,,,,,,,,,,,,,,,,,,,,,,,,,,,,
,8845,BCA,22/05/2003,001,2023-10-06_20h53.12.091,OS3_Mult_verification,2022.2.4,Win32,59.98440405,,,18,1.2892,1,"[""1"",""8"",""return""]","[0.6162000000476837,1.0993000000119224,1.2497000000476817]",0,14,14,9,1,18,,,,,,,,,,,,,,,,,,,,,,,,,,,,,,,,,,,,,,,,,,,,,,,,,,,,,,,,,,,,,,,,,,,,,,,,,,,,,,,,,,,,,,,,,,,,,,,,,,,,,,,,,,,,,,,,,,,,,,,,,,,,,,,,,,,,,,,,,,,,,,,,,,,,,,,,,,,,,,,,,
,8845,BCA,22/05/2003,001,2023-10-06_20h53.12.091,OS3_Mult_verification,2022.2.4,Win32,59.98440405,,,20,1.3315,1,"[""2"",""0"",""return""]","[0.7066000000238404,1.1151999999880786,1.2886999999880828]",0,15,15,10,1,20,,,,,,,,,,,,,,,,,,,,,,,,,,,,,,,,,,,,,,,,,,,,,,,,,,,,,,,,,,,,,,,,,,,,,,,,,,,,,,,,,,,,,,,,,,,,,,,,,,,,,,,,,,,,,,,,,,,,,,,,,,,,,,,,,,,,,,,,,,,,,,,,,,,,,,,,,,,,,,,,,
,8845,BCA,22/05/2003,001,2023-10-06_20h53.12.091,OS3_Mult_verification,2022.2.4,Win32,59.98440405,,,63,1.9025,1,"[""6"",""3"",""return""]","[1.0494999999999948,1.6991999999880676,1.865800000011916]",0,16,16,27,1,63,,,,,,,,,,,,,,,,,,,,,,,,,,,,,,,,,,,,,,,,,,,,,,,,,,,,,,,,,,,,,,,,,,,,,,,,,,,,,,,,,,,,,,,,,,,,,,,,,,,,,,,,,,,,,,,,,,,,,,,,,,,,,,,,,,,,,,,,,,,,,,,,,,,,,,,,,,,,,,,,,
,8845,BCA,22/05/2003,001,2023-10-06_20h53.12.091,OS3_Mult_verification,2022.2.4,Win32,59.98440405,,,81,1.6537,1,"[""8"",""1"",""return""]","[0.916100000023846,1.3659999999999997,1.6153000000119135]",0,17,17,30,1,81,,,,,,,,,,,,,,,,,,,,,,,,,,,,,,,,,,,,,,,,,,,,,,,,,,,,,,,,,,,,,,,,,,,,,,,,,,,,,,,,,,,,,,,,,,,,,,,,,,,,,,,,,,,,,,,,,,,,,,,,,,,,,,,,,,,,,,,,,,,,,,,,,,,,,,,,,,,,,,,,,
,8845,BCA,22/05/2003,001,2023-10-06_20h53.12.091,OS3_Mult_verification,2022.2.4,Win32,59.98440405,,,24,1.1158,1,"[""2"",""4"",""return""]","[0.6538000000119268,0.9163999999761643,1.0831999999880821]",0,18,18,12,1,24,,,,,,,,,,,,,,,,,,,,,,,,,,,,,,,,,,,,,,,,,,,,,,,,,,,,,,,,,,,,,,,,,,,,,,,,,,,,,,,,,,,,,,,,,,,,,,,,,,,,,,,,,,,,,,,,,,,,,,,,,,,,,,,,,,,,,,,,,,,,,,,,,,,,,,,,,,,,,,,,,
,8845,BCA,22/05/2003,001,2023-10-06_20h53.12.091,OS3_Mult_verification,2022.2.4,Win32,59.98440405,,,40,1.765,1,"[""4"",""0"",""return""]","[0.9000999999642403,1.5326999999880826,1.7292999999523175]",0,19,19,20,1,40,,,,,,,,,,,,,,,,,,,,,,,,,,,,,,,,,,,,,,,,,,,,,,,,,,,,,,,,,,,,,,,,,,,,,,,,,,,,,,,,,,,,,,,,,,,,,,,,,,,,,,,,,,,,,,,,,,,,,,,,,,,,,,,,,,,,,,,,,,,,,,,,,,,,,,,,,,,,,,,,,
,8845,BCA,22/05/2003,001,2023-10-06_20h53.12.091,OS3_Mult_verification,2022.2.4,Win32,59.98440405,,,45,1.2324,1,"[""4"",""5"",""return""]","[0.866500000000002,1.0668000000119235,1.1996000000238496]",0,20,20,22,1,45,,,,,,,,,,,,,,,,,,,,,,,,,,,,,,,,,,,,,,,,,,,,,,,,,,,,,,,,,,,,,,,,,,,,,,,,,,,,,,,,,,,,,,,,,,,,,,,,,,,,,,,,,,,,,,,,,,,,,,,,,,,,,,,,,,,,,,,,,,,,,,,,,,,,,,,,,,,,,,,,,
,8845,BCA,22/05/2003,001,2023-10-06_20h53.12.091,OS3_Mult_verification,2022.2.4,Win32,59.98440405,,,4,0.849,1,"[""4"",""return""]","[0.588100000023843,0.8155000000000001]",0,21,21,0,1,4,,,,,,,,,,,,,,,,,,,,,,,,,,,,,,,,,,,,,,,,,,,,,,,,,,,,,,,,,,,,,,,,,,,,,,,,,,,,,,,,,,,,,,,,,,,,,,,,,,,,,,,,,,,,,,,,,,,,,,,,,,,,,,,,,,,,,,,,,,,,,,,,,,,,,,,,,,,,,,,,,
,8845,BCA,22/05/2003,001,2023-10-06_20h53.12.091,OS3_Mult_verification,2022.2.4,Win32,59.98440405,,,30,1.9314,1,"[""3"",""0"",""return""]","[1.3149999999999977,1.6995000000000005,1.8904000000357684]",0,22,22,16,1,30,,,,,,,,,,,,,,,,,,,,,,,,,,,,,,,,,,,,,,,,,,,,,,,,,,,,,,,,,,,,,,,,,,,,,,,,,,,,,,,,,,,,,,,,,,,,,,,,,,,,,,,,,,,,,,,,,,,,,,,,,,,,,,,,,,,,,,,,,,,,,,,,,,,,,,,,,,,,,,,,,
,8845,BCA,22/05/2003,001,2023-10-06_20h53.12.091,OS3_Mult_verification,2022.2.4,Win32,59.98440405,,,6,1.1454,1,"[""6"",""return""]","[0.9162000000476809,1.109499999999997]",0,23,23,1,1,6,,,,,,,,,,,,,,,,,,,,,,,,,,,,,,,,,,,,,,,,,,,,,,,,,,,,,,,,,,,,,,,,,,,,,,,,,,,,,,,,,,,,,,,,,,,,,,,,,,,,,,,,,,,,,,,,,,,,,,,,,,,,,,,,,,,,,,,,,,,,,,,,,,,,,,,,,,,,,,,,,
,8845,BCA,22/05/2003,001,2023-10-06_20h53.12.091,OS3_Mult_verification,2022.2.4,Win32,59.98440405,,,49,1.4034,1,"[""4"",""9"",""return""]","[0.8811999999880697,1.197399999976156,1.366399999976153]",0,24,24,24,1,49,,,,,,,,,,,,,,,,,,,,,,,,,,,,,,,,,,,,,,,,,,,,,,,,,,,,,,,,,,,,,,,,,,,,,,,,,,,,,,,,,,,,,,,,,,,,,,,,,,,,,,,,,,,,,,,,,,,,,,,,,,,,,,,,,,,,,,,,,,,,,,,,,,,,,,,,,,,,,,,,,
,8845,BCA,22/05/2003,001,2023-10-06_20h53.12.091,OS3_Mult_verification,2022.2.4,Win32,59.98440405,,,48,1.3873,1,"[""4"",""8"",""return""]","[0.8329999999999984,1.1498999999761566,1.3491999999880733]",0,25,25,23,1,48,,,,,,,,,,,,,,,,,,,,,,,,,,,,,,,,,,,,,,,,,,,,,,,,,,,,,,,,,,,,,,,,,,,,,,,,,,,,,,,,,,,,,,,,,,,,,,,,,,,,,,,,,,,,,,,,,,,,,,,,,,,,,,,,,,,,,,,,,,,,,,,,,,,,,,,,,,,,,,,,,
,8845,BCA,22/05/2003,001,2023-10-06_20h53.12.091,OS3_Mult_verification,2022.2.4,Win32,59.98440405,,,21,1.5981,1,"[""2"",""1"",""return""]","[1.1090999999642293,1.3660999999642343,1.5541999999880716]",0,26,26,11,1,21,,,,,,,,,,,,,,,,,,,,,,,,,,,,,,,,,,,,,,,,,,,,,,,,,,,,,,,,,,,,,,,,,,,,,,,,,,,,,,,,,,,,,,,,,,,,,,,,,,,,,,,,,,,,,,,,,,,,,,,,,,,,,,,,,,,,,,,,,,,,,,,,,,,,,,,,,,,,,,,,,
,8845,BCA,22/05/2003,001,2023-10-06_20h53.12.091,OS3_Mult_verification,2022.2.4,Win32,59.98440405,,,15,1.1771,1,"[""1"",""5"",""return""]","[0.6491999999880846,0.9661999999880777,1.1400000000000006]",0,27,27,7,1,15,,,,,,,,,,,,,,,,,,,,,,,,,,,,,,,,,,,,,,,,,,,,,,,,,,,,,,,,,,,,,,,,,,,,,,,,,,,,,,,,,,,,,,,,,,,,,,,,,,,,,,,,,,,,,,,,,,,,,,,,,,,,,,,,,,,,,,,,,,,,,,,,,,,,,,,,,,,,,,,,,
,8845,BCA,22/05/2003,001,2023-10-06_20h53.12.091,OS3_Mult_verification,2022.2.4,Win32,59.98440405,,,36,1.471,1,"[""3"",""6"",""return""]","[0.7873999999761594,1.216800000011915,1.4329999999999927]",0,28,28,19,1,36,,,,,,,,,,,,,,,,,,,,,,,,,,,,,,,,,,,,,,,,,,,,,,,,,,,,,,,,,,,,,,,,,,,,,,,,,,,,,,,,,,,,,,,,,,,,,,,,,,,,,,,,,,,,,,,,,,,,,,,,,,,,,,,,,,,,,,,,,,,,,,,,,,,,,,,,,,,,,,,,,
,8845,BCA,22/05/2003,001,2023-10-06_20h53.12.091,OS3_Mult_verification,2022.2.4,Win32,59.98440405,,,32,1.4035,1,"[""3"",""2"",""return""]","[0.8472999999523125,1.18039999997616,1.3658999999761505]",0,29,29,17,1,32,,,,,,,,,,,,,,,,,,,,,,,,,,,,,,,,,,,,,,,,,,,,,,,,,,,,,,,,,,,,,,,,,,,,,,,,,,,,,,,,,,,,,,,,,,,,,,,,,,,,,,,,,,,,,,,,,,,,,,,,,,,,,,,,,,,,,,,,,,,,,,,,,,,,,,,,,,,,,,,,,
,8845,BCA,22/05/2003,001,2023-10-06_20h53.12.091,OS3_Mult_verification,2022.2.4,Win32,59.98440405,,,8,1.3037,1,"[""8"",""return""]","[1.0594999999999999,1.263800000011912]",0,30,30,2,1,8,,,,,,,,,,,,,,,,,,,,,,,,,,,,,,,,,,,,,,,,,,,,,,,,,,,,,,,,,,,,,,,,,,,,,,,,,,,,,,,,,,,,,,,,,,,,,,,,,,,,,,,,,,,,,,,,,,,,,,,,,,,,,,,,,,,,,,,,,,,,,,,,,,,,,,,,,,,,,,,,,
,8845,BCA,22/05/2003,001,2023-10-06_20h53.12.091,OS3_Mult_verification,2022.2.4,Win32,59.98440405,,,25,1.6198,1,"[""2"",""5"",""return""]","[1.1328999999761606,1.3715000000000117,1.5661999999880862]",1,0,31,13,1,25,,,,,,,,,,,,,,,,,,,,,,,,,,,,,,,,,,,,,,,,,,,,,,,,,,,,,,,,,,,,,,,,,,,,,,,,,,,,,,,,,,,,,,,,,,,,,,,,,,,,,,,,,,,,,,,,,,,,,,,,,,,,,,,,,,,,,,,,,,,,,,,,,,,,,,,,,,,,,,,,,
,8845,BCA,22/05/2003,001,2023-10-06_20h53.12.091,OS3_Mult_verification,2022.2.4,Win32,59.98440405,,,45,1.2601,1,"[""4"",""5"",""return""]","[0.8391999999880682,1.0501999999880667,1.2224999999999966]",1,1,32,22,1,45,,,,,,,,,,,,,,,,,,,,,,,,,,,,,,,,,,,,,,,,,,,,,,,,,,,,,,,,,,,,,,,,,,,,,,,,,,,,,,,,,,,,,,,,,,,,,,,,,,,,,,,,,,,,,,,,,,,,,,,,,,,,,,,,,,,,,,,,,,,,,,,,,,,,,,,,,,,,,,,,,
,8845,BCA,22/05/2003,001,2023-10-06_20h53.12.091,OS3_Mult_verification,2022.2.4,Win32,59.98440405,,,15,1.3035,1,"[""1"",""5"",""return""]","[0.7671999999880796,1.0761000000238425,1.266999999999996]",1,2,33,7,1,15,,,,,,,,,,,,,,,,,,,,,,,,,,,,,,,,,,,,,,,,,,,,,,,,,,,,,,,,,,,,,,,,,,,,,,,,,,,,,,,,,,,,,,,,,,,,,,,,,,,,,,,,,,,,,,,,,,,,,,,,,,,,,,,,,,,,,,,,,,,,,,,,,,,,,,,,,,,,,,,,,
,8845,BCA,22/05/2003,001,2023-10-06_20h53.12.091,OS3_Mult_verification,2022.2.4,Win32,59.98440405,,,14,1.2332,1,"[""1"",""4"",""return""]","[0.6331999999880793,0.9803999999761572,1.1993000000119167]",1,3,34,6,1,14,,,,,,,,,,,,,,,,,,,,,,,,,,,,,,,,,,,,,,,,,,,,,,,,,,,,,,,,,,,,,,,,,,,,,,,,,,,,,,,,,,,,,,,,,,,,,,,,,,,,,,,,,,,,,,,,,,,,,,,,,,,,,,,,,,,,,,,,,,,,,,,,,,,,,,,,,,,,,,,,,
,8845,BCA,22/05/2003,001,2023-10-06_20h53.12.091,OS3_Mult_verification,2022.2.4,Win32,59.98440405,,,8,1.2375,1,"[""8"",""return""]","[0.9808999999761596,1.1877999999523183]",1,4,35,2,1,8,,,,,,,,,,,,,,,,,,,,,,,,,,,,,,,,,,,,,,,,,,,,,,,,,,,,,,,,,,,,,,,,,,,,,,,,,,,,,,,,,,,,,,,,,,,,,,,,,,,,,,,,,,,,,,,,,,,,,,,,,,,,,,,,,,,,,,,,,,,,,,,,,,,,,,,,,,,,,,,,,
,8845,BCA,22/05/2003,001,2023-10-06_20h53.12.091,OS3_Mult_verification,2022.2.4,Win32,59.98440405,,,54,1.3038,1,"[""5"",""4"",""return""]","[0.8998999999761566,1.0995999999642407,1.2636999999880771]",1,5,36,25,1,54,,,,,,,,,,,,,,,,,,,,,,,,,,,,,,,,,,,,,,,,,,,,,,,,,,,,,,,,,,,,,,,,,,,,,,,,,,,,,,,,,,,,,,,,,,,,,,,,,,,,,,,,,,,,,,,,,,,,,,,,,,,,,,,,,,,,,,,,,,,,,,,,,,,,,,,,,,,,,,,,,
,8845,BCA,22/05/2003,001,2023-10-06_20h53.12.091,OS3_Mult_verification,2022.2.4,Win32,59.98440405,,,21,1.1655,1,"[""2"",""1"",""return""]","[0.7665999999642423,0.9375999999642346,1.1242999999523136]",1,6,37,11,1,21,,,,,,,,,,,,,,,,,,,,,,,,,,,,,,,,,,,,,,,,,,,,,,,,,,,,,,,,,,,,,,,,,,,,,,,,,,,,,,,,,,,,,,,,,,,,,,,,,,,,,,,,,,,,,,,,,,,,,,,,,,,,,,,,,,,,,,,,,,,,,,,,,,,,,,,,,,,,,,,,,
,8845,BCA,22/05/2003,001,2023-10-06_20h53.12.091,OS3_Mult_verification,2022.2.4,Win32,59.98440405,,,81,1.6539,1,"[""8"",""1"",""return""]","[0.999400000035763,1.4152000000476903,1.6133000000119182]",1,7,38,30,1,81,,,,,,,,,,,,,,,,,,,,,,,,,,,,,,,,,,,,,,,,,,,,,,,,,,,,,,,,,,,,,,,,,,,,,,,,,,,,,,,,,,,,,,,,,,,,,,,,,,,,,,,,,,,,,,,,,,,,,,,,,,,,,,,,,,,,,,,,,,,,,,,,,,,,,,,,,,,,,,,,,
,8845,BCA,22/05/2003,001,2023-10-06_20h53.12.091,OS3_Mult_verification,2022.2.4,Win32,59.98440405,,,42,1.671,1,"[""4"",""2"",""return""]","[1.1223000000119185,1.432100000023837,1.6321999999880745]",1,8,39,21,1,42,,,,,,,,,,,,,,,,,,,,,,,,,,,,,,,,,,,,,,,,,,,,,,,,,,,,,,,,,,,,,,,,,,,,,,,,,,,,,,,,,,,,,,,,,,,,,,,,,,,,,,,,,,,,,,,,,,,,,,,,,,,,,,,,,,,,,,,,,,,,,,,,,,,,,,,,,,,,,,,,,
,8845,BCA,22/05/2003,001,2023-10-06_20h53.12.091,OS3_Mult_verification,2022.2.4,Win32,59.98440405,,,35,1.1879,1,"[""3"",""5"",""return""]","[0.7406999999880668,1.0001999999880695,1.1500000000000057]",1,9,40,18,1,35,,,,,,,,,,,,,,,,,,,,,,,,,,,,,,,,,,,,,,,,,,,,,,,,,,,,,,,,,,,,,,,,,,,,,,,,,,,,,,,,,,,,,,,,,,,,,,,,,,,,,,,,,,,,,,,,,,,,,,,,,,,,,,,,,,,,,,,,,,,,,,,,,,,,,,,,,,,,,,,,,
,8845,BCA,22/05/2003,001,2023-10-06_20h53.12.091,OS3_Mult_verification,2022.2.4,Win32,59.98440405,,,72,1.6823,1,"[""7"",""2"",""return""]","[0.9326999999880741,1.4208000000119227,1.649000000000001]",1,10,41,29,1,72,,,,,,,,,,,,,,,,,,,,,,,,,,,,,,,,,,,,,,,,,,,,,,,,,,,,,,,,,,,,,,,,,,,,,,,,,,,,,,,,,,,,,,,,,,,,,,,,,,,,,,,,,,,,,,,,,,,,,,,,,,,,,,,,,,,,,,,,,,,,,,,,,,,,,,,,,,,,,,,,,
,8845,BCA,22/05/2003,001,2023-10-06_20h53.12.091,OS3_Mult_verification,2022.2.4,Win32,59.98440405,,,36,1.2819,1,"[""3"",""6"",""return""]","[0.7503000000119187,1.051199999988043,1.2503000000119044]",1,11,42,19,1,36,,,,,,,,,,,,,,,,,,,,,,,,,,,,,,,,,,,,,,,,,,,,,,,,,,,,,,,,,,,,,,,,,,,,,,,,,,,,,,,,,,,,,,,,,,,,,,,,,,,,,,,,,,,,,,,,,,,,,,,,,,,,,,,,,,,,,,,,,,,,,,,,,,,,,,,,,,,,,,,,,
,8845,BCA,22/05/2003,001,2023-10-06_20h53.12.091,OS3_Mult_verification,2022.2.4,Win32,59.98440405,,,48,1.5153,1,"[""4"",""8"",""return""]","[0.8831999999880793,1.2661000000238403,1.4708999999761545]",1,12,43,23,1,48,,,,,,,,,,,,,,,,,,,,,,,,,,,,,,,,,,,,,,,,,,,,,,,,,,,,,,,,,,,,,,,,,,,,,,,,,,,,,,,,,,,,,,,,,,,,,,,,,,,,,,,,,,,,,,,,,,,,,,,,,,,,,,,,,,,,,,,,,,,,,,,,,,,,,,,,,,,,,,,,,
,8845,BCA,22/05/2003,001,2023-10-06_20h53.12.091,OS3_Mult_verification,2022.2.4,Win32,59.98440405,,,56,1.1158,1,"[""5"",""6"",""return""]","[0.7676000000238332,0.948199999988077,1.0829999999999984]",1,13,44,26,1,56,,,,,,,,,,,,,,,,,,,,,,,,,,,,,,,,,,,,,,,,,,,,,,,,,,,,,,,,,,,,,,,,,,,,,,,,,,,,,,,,,,,,,,,,,,,,,,,,,,,,,,,,,,,,,,,,,,,,,,,,,,,,,,,,,,,,,,,,,,,,,,,,,,,,,,,,,,,,,,,,,
,8845,BCA,22/05/2003,001,2023-10-06_20h53.12.091,OS3_Mult_verification,2022.2.4,Win32,59.98440405,,,6,0.9486,1,"[""6"",""return""]","[0.7172000000476828,0.9046000000238337]",1,14,45,1,1,6,,,,,,,,,,,,,,,,,,,,,,,,,,,,,,,,,,,,,,,,,,,,,,,,,,,,,,,,,,,,,,,,,,,,,,,,,,,,,,,,,,,,,,,,,,,,,,,,,,,,,,,,,,,,,,,,,,,,,,,,,,,,,,,,,,,,,,,,,,,,,,,,,,,,,,,,,,,,,,,,,
,8845,BCA,22/05/2003,001,2023-10-06_20h53.12.091,OS3_Mult_verification,2022.2.4,Win32,59.98440405,,,32,1.3038,1,"[""3"",""2"",""return""]","[0.8752000000476698,1.0661000000238232,1.2504000000357394]",1,15,46,17,1,32,,,,,,,,,,,,,,,,,,,,,,,,,,,,,,,,,,,,,,,,,,,,,,,,,,,,,,,,,,,,,,,,,,,,,,,,,,,,,,,,,,,,,,,,,,,,,,,,,,,,,,,,,,,,,,,,,,,,,,,,,,,,,,,,,,,,,,,,,,,,,,,,,,,,,,,,,,,,,,,,,
,8845,BCA,22/05/2003,001,2023-10-06_20h53.12.091,OS3_Mult_verification,2022.2.4,Win32,59.98440405,,,16,1.2484,1,"[""1"",""6"",""return""]","[0.7153999999761709,1.0325999999642477,1.2025999999642352]",1,16,47,8,1,16,,,,,,,,,,,,,,,,,,,,,,,,,,,,,,,,,,,,,,,,,,,,,,,,,,,,,,,,,,,,,,,,,,,,,,,,,,,,,,,,,,,,,,,,,,,,,,,,,,,,,,,,,,,,,,,,,,,,,,,,,,,,,,,,,,,,,,,,,,,,,,,,,,,,,,,,,,,,,,,,,
,8845,BCA,22/05/2003,001,2023-10-06_20h53.12.091,OS3_Mult_verification,2022.2.4,Win32,59.98440405,,,49,1.3766,1,"[""4"",""9"",""return""]","[0.7994999999999948,1.1663000000119155,1.3339000000357544]",1,17,48,24,1,49,,,,,,,,,,,,,,,,,,,,,,,,,,,,,,,,,,,,,,,,,,,,,,,,,,,,,,,,,,,,,,,,,,,,,,,,,,,,,,,,,,,,,,,,,,,,,,,,,,,,,,,,,,,,,,,,,,,,,,,,,,,,,,,,,,,,,,,,,,,,,,,,,,,,,,,,,,,,,,,,,
,8845,BCA,22/05/2003,001,2023-10-06_20h53.12.091,OS3_Mult_verification,2022.2.4,Win32,59.98440405,,,30,1.3366,1,"[""3"",""0"",""return""]","[0.7171999999880541,1.0574999999999761,1.2839999999999918]",1,18,49,16,1,30,,,,,,,,,,,,,,,,,,,,,,,,,,,,,,,,,,,,,,,,,,,,,,,,,,,,,,,,,,,,,,,,,,,,,,,,,,,,,,,,,,,,,,,,,,,,,,,,,,,,,,,,,,,,,,,,,,,,,,,,,,,,,,,,,,,,,,,,,,,,,,,,,,,,,,,,,,,,,,,,,
,8845,BCA,22/05/2003,001,2023-10-06_20h53.12.091,OS3_Mult_verification,2022.2.4,Win32,59.98440405,,,40,1.3692,1,"[""4"",""0"",""return""]","[0.8166000000238398,1.1281999999880838,1.3164000000357419]",1,19,50,20,1,40,,,,,,,,,,,,,,,,,,,,,,,,,,,,,,,,,,,,,,,,,,,,,,,,,,,,,,,,,,,,,,,,,,,,,,,,,,,,,,,,,,,,,,,,,,,,,,,,,,,,,,,,,,,,,,,,,,,,,,,,,,,,,,,,,,,,,,,,,,,,,,,,,,,,,,,,,,,,,,,,,
,8845,BCA,22/05/2003,001,2023-10-06_20h53.12.091,OS3_Mult_verification,2022.2.4,Win32,59.98440405,,,18,1.4519,1,"[""1"",""8"",""return""]","[0.6700000000000159,1.1831000000238419,1.4065000000000225]",1,20,51,9,1,18,,,,,,,,,,,,,,,,,,,,,,,,,,,,,,,,,,,,,,,,,,,,,,,,,,,,,,,,,,,,,,,,,,,,,,,,,,,,,,,,,,,,,,,,,,,,,,,,,,,,,,,,,,,,,,,,,,,,,,,,,,,,,,,,,,,,,,,,,,,,,,,,,,,,,,,,,,,,,,,,,
,8845,BCA,22/05/2003,001,2023-10-06_20h53.12.091,OS3_Mult_verification,2022.2.4,Win32,59.98440405,,,10,1.4154,1,"[""1"",""0"",""return""]","[0.6343999999761536,1.071399999976137,1.3826000000238423]",1,21,52,4,1,10,,,,,,,,,,,,,,,,,,,,,,,,,,,,,,,,,,,,,,,,,,,,,,,,,,,,,,,,,,,,,,,,,,,,,,,,,,,,,,,,,,,,,,,,,,,,,,,,,,,,,,,,,,,,,,,,,,,,,,,,,,,,,,,,,,,,,,,,,,,,,,,,,,,,,,,,,,,,,,,,,
,8845,BCA,22/05/2003,001,2023-10-06_20h53.12.091,OS3_Mult_verification,2022.2.4,Win32,59.98440405,,,20,1.2157,1,"[""2"",""0"",""return""]","[0.6164000000357532,0.9831000000238248,1.1724000000357648]",1,22,53,10,1,20,,,,,,,,,,,,,,,,,,,,,,,,,,,,,,,,,,,,,,,,,,,,,,,,,,,,,,,,,,,,,,,,,,,,,,,,,,,,,,,,,,,,,,,,,,,,,,,,,,,,,,,,,,,,,,,,,,,,,,,,,,,,,,,,,,,,,,,,,,,,,,,,,,,,,,,,,,,,,,,,,
,8845,BCA,22/05/2003,001,2023-10-06_20h53.12.091,OS3_Mult_verification,2022.2.4,Win32,59.98440405,,,24,1.2535,1,"[""2"",""4"",""return""]","[0.8004000000357507,1.066199999988072,1.2164999999999964]",1,23,54,12,1,24,,,,,,,,,,,,,,,,,,,,,,,,,,,,,,,,,,,,,,,,,,,,,,,,,,,,,,,,,,,,,,,,,,,,,,,,,,,,,,,,,,,,,,,,,,,,,,,,,,,,,,,,,,,,,,,,,,,,,,,,,,,,,,,,,,,,,,,,,,,,,,,,,,,,,,,,,,,,,,,,,
,8845,BCA,22/05/2003,001,2023-10-06_20h53.12.091,OS3_Mult_verification,2022.2.4,Win32,59.98440405,,,9,1.2442,1,"[""9"",""return""]","[1.0483000000119205,1.2028999999761822]",1,24,55,3,1,9,,,,,,,,,,,,,,,,,,,,,,,,,,,,,,,,,,,,,,,,,,,,,,,,,,,,,,,,,,,,,,,,,,,,,,,,,,,,,,,,,,,,,,,,,,,,,,,,,,,,,,,,,,,,,,,,,,,,,,,,,,,,,,,,,,,,,,,,,,,,,,,,,,,,,,,,,,,,,,,,,
,8845,BCA,22/05/2003,001,2023-10-06_20h53.12.091,OS3_Mult_verification,2022.2.4,Win32,59.98440405,,,27,1.4204,1,"[""2"",""7"",""return""]","[0.8578000000119061,1.2155999999642404,1.382399999976144]",1,25,56,14,1,27,,,,,,,,,,,,,,,,,,,,,,,,,,,,,,,,,,,,,,,,,,,,,,,,,,,,,,,,,,,,,,,,,,,,,,,,,,,,,,,,,,,,,,,,,,,,,,,,,,,,,,,,,,,,,,,,,,,,,,,,,,,,,,,,,,,,,,,,,,,,,,,,,,,,,,,,,,,,,,,,,
,8845,BCA,22/05/2003,001,2023-10-06_20h53.12.091,OS3_Mult_verification,2022.2.4,Win32,59.98440405,,,4,0.9603,1,"[""4"",""return""]","[0.7334999999999923,0.9221999999880666]",1,26,57,0,1,4,,,,,,,,,,,,,,,,,,,,,,,,,,,,,,,,,,,,,,,,,,,,,,,,,,,,,,,,,,,,,,,,,,,,,,,,,,,,,,,,,,,,,,,,,,,,,,,,,,,,,,,,,,,,,,,,,,,,,,,,,,,,,,,,,,,,,,,,,,,,,,,,,,,,,,,,,,,,,,,,,
,8845,BCA,22/05/2003,001,2023-10-06_20h53.12.091,OS3_Mult_verification,2022.2.4,Win32,59.98440405,,,12,1.0541,1,"[""1"",""2"",""return""]","[0.6546999999880825,0.8376999999880752,1.016799999952326]",1,27,58,5,1,12,,,,,,,,,,,,,,,,,,,,,,,,,,,,,,,,,,,,,,,,,,,,,,,,,,,,,,,,,,,,,,,,,,,,,,,,,,,,,,,,,,,,,,,,,,,,,,,,,,,,,,,,,,,,,,,,,,,,,,,,,,,,,,,,,,,,,,,,,,,,,,,,,,,,,,,,,,,,,,,,,
,8845,BCA,22/05/2003,001,2023-10-06_20h53.12.091,OS3_Mult_verification,2022.2.4,Win32,59.98440405,,,64,1.4864,1,"[""6"",""4"",""return""]","[1.0395999999642527,1.2827999999523172,1.4490999999642327]",1,28,59,28,1,64,,,,,,,,,,,,,,,,,,,,,,,,,,,,,,,,,,,,,,,,,,,,,,,,,,,,,,,,,,,,,,,,,,,,,,,,,,,,,,,,,,,,,,,,,,,,,,,,,,,,,,,,,,,,,,,,,,,,,,,,,,,,,,,,,,,,,,,,,,,,,,,,,,,,,,,,,,,,,,,,,
,8845,BCA,22/05/2003,001,2023-10-06_20h53.12.091,OS3_Mult_verification,2022.2.4,Win32,59.98440405,,,28,1.2532,1,"[""2"",""8"",""return""]","[0.6676000000238389,1.048699999988088,1.1996999999880984]",1,29,60,15,1,28,,,,,,,,,,,,,,,,,,,,,,,,,,,,,,,,,,,,,,,,,,,,,,,,,,,,,,,,,,,,,,,,,,,,,,,,,,,,,,,,,,,,,,,,,,,,,,,,,,,,,,,,,,,,,,,,,,,,,,,,,,,,,,,,,,,,,,,,,,,,,,,,,,,,,,,,,,,,,,,,,
,8845,BCA,22/05/2003,001,2023-10-06_20h53.12.091,OS3_Mult_verification,2022.2.4,Win32,59.98440405,,,63,1.82,1,"[""6"",""3"",""return""]","[1.1169000000357698,1.6047000000476999,1.7801000000238503]",1,30,61,27,1,63,,,,,,,,,,,,,,,,,,,,,,,,,,,,,,,,,,,,,,,,,,,,,,,,,,,,,,,,,,,,,,,,,,,,,,,,,,,,,,,,,,,,,,,,,,,,,,,,,,,,,,,,,,,,,,,,,,,,,,,,,,,,,,,,,,,,,,,,,,,,,,,,,,,,,,,,,,,,,,,,,
,8845,BCA,22/05/2003,001,2023-10-06_20h53.12.091,OS3_Mult_verification,2022.2.4,Win32,59.98440405,,,,,,,,,,,,,,space,4.4212,,,,,,,,,,,,,,,,,,,,,,,,,,,,,,,,,,,,,,,,,,,,,,,,,,,,,,,,,,,,,,,,,,,,,,,,,,,,,,,,,,,,,,,,,,,,,,,,,,,,,,,,,,,,,,,,,,,,,,,,,,,,,,,,,,,,,,,,,,,,,,,,,,,,,,,,,,,,,,,
,8845,BCA,22/05/2003,001,2023-10-06_20h53.12.091,OS3_Mult_verification,2022.2.4,Win32,59.98440405,,,,,,,,,,,,,,,,,,,,,,,,,,,,,,,,,,,,,,,,,,,,,,,,,,,,,,,,,,,,,,,,,,,,,,,,,,,,,,,,,,,,,,,,,,,,,,,,,,,,,,,,,,,,,,,,,,,,,,,,,,,,,,,,,,,,,,,,,,,,,,,,,,,,,,,,,,,,,,,,,,,,,,,,,,,,,,
,8845,BCA,22/05/2003,001,2023-10-06_20h53.12.091,OS3_Mult_verification,2022.2.4,Win32,59.98440405,,,,,,,,,,,,,,,,space,3.1478,,,,,,,,,,,,,,,,,,,,,,,,,,,,,,,,,,,,,,,,,,,,,,,,,,,,,,,,,,,,,,,,,,,,,,,,,,,,,,,,,,,,,,,,,,,,,,,,,,,,,,,,,,,,,,,,,,,,,,,,,,,,,,,,,,,,,,,,,,,,,,,,,,,,,,,,,,,,,
,8845,BCA,22/05/2003,001,2023-10-06_20h53.12.091,OS3_Mult_verification,2022.2.4,Win32,59.98440405,,,,,,,,,,,,,,,,,,20,3.2569,1,"[""2"",""0"",""return""]","[2.0499000000357626,2.2154999999999916,2.959300000011922]",0,0,0,1,1,2 × 10 =,20,,,,,,,,,,,,,,,,,,,,,,,,,,,,,,,,,,,,,,,,,,,,,,,,,,,,,,,,,,,,,,,,,,,,,,,,,,,,,,,,,,,,,,,,,,,,,,,,,,,,,,,,,,,,,,,,,,,,,,,,,,,,,,,,,,,,,,,,,,,,,,,,,
,8845,BCA,22/05/2003,001,2023-10-06_20h53.12.091,OS3_Mult_verification,2022.2.4,Win32,59.98440405,,,,,,,,,,,,,,,,,,7,1.8807,1,"[""7"",""return""]","[1.4156999999880782,1.581899999976173]",0,1,1,0,1,1 × 7 =,7,,,,,,,,,,,,,,,,,,,,,,,,,,,,,,,,,,,,,,,,,,,,,,,,,,,,,,,,,,,,,,,,,,,,,,,,,,,,,,,,,,,,,,,,,,,,,,,,,,,,,,,,,,,,,,,,,,,,,,,,,,,,,,,,,,,,,,,,,,,,,,,,,
,8845,BCA,22/05/2003,001,2023-10-06_20h53.12.091,OS3_Mult_verification,2022.2.4,Win32,59.98440405,,,,,,,,,,,,,,,,,,22,1.7927,1,"[""2"",""2"",""return""]","[1.1015000000000157,1.2736000000238334,1.4883000000119182]",0,2,2,2,1,2 × 11 =,22,,,,,,,,,,,,,,,,,,,,,,,,,,,,,,,,,,,,,,,,,,,,,,,,,,,,,,,,,,,,,,,,,,,,,,,,,,,,,,,,,,,,,,,,,,,,,,,,,,,,,,,,,,,,,,,,,,,,,,,,,,,,,,,,,,,,,,,,,,,,,,,,,
,8845,BCA,22/05/2003,001,2023-10-06_20h53.12.091,OS3_Mult_verification,2022.2.4,Win32,59.98440405,,,,,,,,,,,,,,,,,,,,,,,,,,,,,,,,,,,,,,,,,,,,,,,,,,,,,,,,,,,,,,,,,,,,,,,,,,,,,,,,,,,,,,,,,,,,,,,,,,,,,,,,,,,,,,,,,,,,,,,,,,,,,,,,,,,,,,,,,,,,,,,,,,,,,,,,,,,,,,,,,,,,,,,,,,,,,,
,8845,BCA,22/05/2003,001,2023-10-06_20h53.12.091,OS3_Mult_verification,2022.2.4,Win32,59.98440405,,,,,,,,,,,,,,,,,,,,,,,,,,,,,,,,,,,,,,,,,,,,,,,,,,,,,,,,,,,,,,,,,,,,,,,,,,,,,,,,,,,,,,,,,,,,,,,,,,,,,,,,,,,,,,,,,,,,,,,,,,,,,,,,,,,,,,,,,,,,,,,,,,,,,,,,,,,,,,,,,,,,,,,,,,,,,,
,8845,BCA,22/05/2003,001,2023-10-06_20h53.12.091,OS3_Mult_verification,2022.2.4,Win32,59.98440405,,,,,,,,,,,,,,,,,,6,1.7213,1,"[""6"",""return""]","[1.2826999999880684,1.432699999988074]",,,,,,2 × 3 =,6,0,0,0,0,1,,,,,,,,,,,,,,,,,,,,,,,,,,,,,,,,,,,,,,,,,,,,,,,,,,,,,,,,,,,,,,,,,,,,,,,,,,,,,,,,,,,,,,,,,,,,,,,,,,,,,,,,,,,,,,,,,,,,,,,,,,,,,,,,,,,,,,,,,,,,
,8845,BCA,22/05/2003,001,2023-10-06_20h53.12.091,OS3_Mult_verification,2022.2.4,Win32,59.98440405,,,,,,,,,,,,,,,,,,40,1.9651,1,"[""4"",""0"",""return""]","[1.0495000000000232,1.482500000000016,1.6656000000238578]",,,,,,5 × 8 =,40,0,1,1,1,1,,,,,,,,,,,,,,,,,,,,,,,,,,,,,,,,,,,,,,,,,,,,,,,,,,,,,,,,,,,,,,,,,,,,,,,,,,,,,,,,,,,,,,,,,,,,,,,,,,,,,,,,,,,,,,,,,,,,,,,,,,,,,,,,,,,,,,,,,,,,
,8845,BCA,22/05/2003,001,2023-10-06_20h53.12.091,OS3_Mult_verification,2022.2.4,Win32,59.98440405,,,,,,,,,,,,,,,,,,12,1.5979,1,"[""1"",""2"",""return""]","[0.9541999999880773,1.1491999999880989,1.2985000000000184]",,,,,,3 × 4 =,12,0,2,2,2,1,,,,,,,,,,,,,,,,,,,,,,,,,,,,,,,,,,,,,,,,,,,,,,,,,,,,,,,,,,,,,,,,,,,,,,,,,,,,,,,,,,,,,,,,,,,,,,,,,,,,,,,,,,,,,,,,,,,,,,,,,,,,,,,,,,,,,,,,,,,,
,8845,BCA,22/05/2003,001,2023-10-06_20h53.12.091,OS3_Mult_verification,2022.2.4,Win32,59.98440405,,,,,,,,,,,,,,,,,,15,2.0311,1,"[""1"",""5"",""return""]","[1.2517999999523113,1.5800000000000125,1.7321999999880688]",,,,,,5 × 3 =,15,0,3,3,3,1,,,,,,,,,,,,,,,,,,,,,,,,,,,,,,,,,,,,,,,,,,,,,,,,,,,,,,,,,,,,,,,,,,,,,,,,,,,,,,,,,,,,,,,,,,,,,,,,,,,,,,,,,,,,,,,,,,,,,,,,,,,,,,,,,,,,,,,,,,,,
,8845,BCA,22/05/2003,001,2023-10-06_20h53.12.091,OS3_Mult_verification,2022.2.4,Win32,59.98440405,,,,,,,,,,,,,,,,,,8,1.6148,1,"[""8"",""return""]","[1.1328000000119118,1.3041000000238512]",,,,,,2 × 4 =,8,0,4,4,4,1,,,,,,,,,,,,,,,,,,,,,,,,,,,,,,,,,,,,,,,,,,,,,,,,,,,,,,,,,,,,,,,,,,,,,,,,,,,,,,,,,,,,,,,,,,,,,,,,,,,,,,,,,,,,,,,,,,,,,,,,,,,,,,,,,,,,,,,,,,,,
,8845,BCA,22/05/2003,001,2023-10-06_20h53.12.091,OS3_Mult_verification,2022.2.4,Win32,59.98440405,,,,,,,,,,,,,,,,,,4,1.7487,1,"[""4"",""return""]","[1.2413000000119325,1.449300000011931]",,,,,,2 × 2 =,4,0,5,5,5,1,,,,,,,,,,,,,,,,,,,,,,,,,,,,,,,,,,,,,,,,,,,,,,,,,,,,,,,,,,,,,,,,,,,,,,,,,,,,,,,,,,,,,,,,,,,,,,,,,,,,,,,,,,,,,,,,,,,,,,,,,,,,,,,,,,,,,,,,,,,,
,8845,BCA,22/05/2003,001,2023-10-06_20h53.12.091,OS3_Mult_verification,2022.2.4,Win32,59.98440405,,,,,,,,,,,,,,,,,,20,1.9644,1,"[""2"",""0"",""return""]","[0.9669999999999845,1.466800000011915,1.6658000000118989]",,,,,,4 × 5 =,20,0,6,6,6,1,,,,,,,,,,,,,,,,,,,,,,,,,,,,,,,,,,,,,,,,,,,,,,,,,,,,,,,,,,,,,,,,,,,,,,,,,,,,,,,,,,,,,,,,,,,,,,,,,,,,,,,,,,,,,,,,,,,,,,,,,,,,,,,,,,,,,,,,,,,,
,8845,BCA,22/05/2003,001,2023-10-06_20h53.12.091,OS3_Mult_verification,2022.2.4,Win32,59.98440405,,,,,,,,,,,,,,,,,,9,1.6105,1,"[""9"",""return""]","[1.1001999999880638,1.3041000000238228]",,,,,,3 × 3 =,9,0,7,7,7,1,,,,,,,,,,,,,,,,,,,,,,,,,,,,,,,,,,,,,,,,,,,,,,,,,,,,,,,,,,,,,,,,,,,,,,,,,,,,,,,,,,,,,,,,,,,,,,,,,,,,,,,,,,,,,,,,,,,,,,,,,,,,,,,,,,,,,,,,,,,,
,8845,BCA,22/05/2003,001,2023-10-06_20h53.12.091,OS3_Mult_verification,2022.2.4,Win32,59.98440405,,,,,,,,,,,,,,,,,,10,1.7697,1,"[""1"",""0"",""return""]","[0.8998000000119362,1.2980000000000018,1.4593999999761706]",,,,,,5 × 2 =,10,0,8,8,8,1,,,,,,,,,,,,,,,,,,,,,,,,,,,,,,,,,,,,,,,,,,,,,,,,,,,,,,,,,,,,,,,,,,,,,,,,,,,,,,,,,,,,,,,,,,,,,,,,,,,,,,,,,,,,,,,,,,,,,,,,,,,,,,,,,,,,,,,,,,,,
,8845,BCA,22/05/2003,001,2023-10-06_20h53.12.091,OS3_Mult_verification,2022.2.4,Win32,59.98440405,,,,,,,,,,,,,,,,,,16,2.2079,1,"[""1"",""6"",""return""]","[1.01609999996424,1.698099999964228,1.9085000000000036]",,,,,,4 × 4 =,16,0,9,9,9,1,,,,,,,,,,,,,,,,,,,,,,,,,,,,,,,,,,,,,,,,,,,,,,,,,,,,,,,,,,,,,,,,,,,,,,,,,,,,,,,,,,,,,,,,,,,,,,,,,,,,,,,,,,,,,,,,,,,,,,,,,,,,,,,,,,,,,,,,,,,,
,8845,BCA,22/05/2003,001,2023-10-06_20h53.12.091,OS3_Mult_verification,2022.2.4,Win32,59.98440405,,,,,,,,,,,,,,,,,,24,1.7698,1,"[""2"",""4"",""return""]","[1.100500000000011,1.3140999999642418,1.4772999999523222]",,,,,,8 × 3 =,24,0,10,10,10,1,,,,,,,,,,,,,,,,,,,,,,,,,,,,,,,,,,,,,,,,,,,,,,,,,,,,,,,,,,,,,,,,,,,,,,,,,,,,,,,,,,,,,,,,,,,,,,,,,,,,,,,,,,,,,,,,,,,,,,,,,,,,,,,,,,,,,,,,,,,,
,8845,BCA,22/05/2003,001,2023-10-06_20h53.12.091,OS3_Mult_verification,2022.2.4,Win32,59.98440405,,,,,,,,,,,,,,,,,,30,1.8466,1,"[""3"",""0"",""return""]","[0.9496000000238496,1.34880000001192,1.54849999999999]",,,,,,6 × 5 =,30,0,11,11,11,1,,,,,,,,,,,,,,,,,,,,,,,,,,,,,,,,,,,,,,,,,,,,,,,,,,,,,,,,,,,,,,,,,,,,,,,,,,,,,,,,,,,,,,,,,,,,,,,,,,,,,,,,,,,,,,,,,,,,,,,,,,,,,,,,,,,,,,,,,,,,
,8845,BCA,22/05/2003,001,2023-10-06_20h53.12.091,OS3_Mult_verification,2022.2.4,Win32,59.98440405,,,,,,,,,,,,,,,,,,14,1.6318,1,"[""1"",""4"",""return""]","[0.8666000000238228,1.1415000000000077,1.33270000004768]",,,,,,7 × 2 =,14,0,12,12,12,1,,,,,,,,,,,,,,,,,,,,,,,,,,,,,,,,,,,,,,,,,,,,,,,,,,,,,,,,,,,,,,,,,,,,,,,,,,,,,,,,,,,,,,,,,,,,,,,,,,,,,,,,,,,,,,,,,,,,,,,,,,,,,,,,,,,,,,,,,,,,
,8845,BCA,22/05/2003,001,2023-10-06_20h53.12.091,OS3_Mult_verification,2022.2.4,Win32,59.98440405,,,,,,,,,,,,,,,,,,27,3.9297,1,"[""1"",""8"",""backspace"",""backspace"",""2"",""7"",""return""]","[0.8994999999999891,1.3209000000357491,2.4979999999999905,2.664199999988085,2.9148000000119225,3.413900000035767,3.628100000023835]",,,,,,3 × 9 =,27,0,13,13,13,1,,,,,,,,,,,,,,,,,,,,,,,,,,,,,,,,,,,,,,,,,,,,,,,,,,,,,,,,,,,,,,,,,,,,,,,,,,,,,,,,,,,,,,,,,,,,,,,,,,,,,,,,,,,,,,,,,,,,,,,,,,,,,,,,,,,,,,,,,,,,
,8845,BCA,22/05/2003,001,2023-10-06_20h53.12.091,OS3_Mult_verification,2022.2.4,Win32,59.98440405,,,,,,,,,,,,,,,,,,16,1.6593,1,"[""1"",""6"",""return""]","[0.7764999999999986,1.199800000011919,1.3660000000000139]",,,,,,2 × 8 =,16,0,14,14,14,1,,,,,,,,,,,,,,,,,,,,,,,,,,,,,,,,,,,,,,,,,,,,,,,,,,,,,,,,,,,,,,,,,,,,,,,,,,,,,,,,,,,,,,,,,,,,,,,,,,,,,,,,,,,,,,,,,,,,,,,,,,,,,,,,,,,,,,,,,,,,
,8845,BCA,22/05/2003,001,2023-10-06_20h53.12.091,OS3_Mult_verification,2022.2.4,Win32,59.98440405,,,,,,,,,,,,,,,,,,24,1.7931,1,"[""2"",""4"",""return""]","[1.082600000023831,1.3158999999761534,1.4865000000000066]",,,,,,4 × 6 =,24,0,15,15,15,1,,,,,,,,,,,,,,,,,,,,,,,,,,,,,,,,,,,,,,,,,,,,,,,,,,,,,,,,,,,,,,,,,,,,,,,,,,,,,,,,,,,,,,,,,,,,,,,,,,,,,,,,,,,,,,,,,,,,,,,,,,,,,,,,,,,,,,,,,,,,
,8845,BCA,22/05/2003,001,2023-10-06_20h53.12.091,OS3_Mult_verification,2022.2.4,Win32,59.98440405,,,,,,,,,,,,,,,,,,21,1.8301,1,"[""2"",""1"",""return""]","[1.1314999999999884,1.3176000000238162,1.5249000000357569]",,,,,,7 × 3 =,21,0,16,16,16,1,,,,,,,,,,,,,,,,,,,,,,,,,,,,,,,,,,,,,,,,,,,,,,,,,,,,,,,,,,,,,,,,,,,,,,,,,,,,,,,,,,,,,,,,,,,,,,,,,,,,,,,,,,,,,,,,,,,,,,,,,,,,,,,,,,,,,,,,,,,,
,8845,BCA,22/05/2003,001,2023-10-06_20h53.12.091,OS3_Mult_verification,2022.2.4,Win32,59.98440405,,,,,,,,,,,,,,,,,,27,5.0291,1,"[""1"",""8"",""backspace"",""backspace"",""2"",""7"",""return""]","[1.7196999999880802,2.143499999999989,2.925699999988069,3.4973000000119328,3.8143000000119116,4.513199999988075,4.720699999988085]",,,,,,9 × 3 =,27,0,17,17,17,1,,,,,,,,,,,,,,,,,,,,,,,,,,,,,,,,,,,,,,,,,,,,,,,,,,,,,,,,,,,,,,,,,,,,,,,,,,,,,,,,,,,,,,,,,,,,,,,,,,,,,,,,,,,,,,,,,,,,,,,,,,,,,,,,,,,,,,,,,,,,
,8845,BCA,22/05/2003,001,2023-10-06_20h53.12.091,OS3_Mult_verification,2022.2.4,Win32,59.98440405,,,,,,,,,,,,,,,,,,28,1.9782,1,"[""2"",""8"",""return""]","[1.0592999999523158,1.4826999999880854,1.682699999988074]",,,,,,4 × 7 =,28,0,18,18,18,1,,,,,,,,,,,,,,,,,,,,,,,,,,,,,,,,,,,,,,,,,,,,,,,,,,,,,,,,,,,,,,,,,,,,,,,,,,,,,,,,,,,,,,,,,,,,,,,,,,,,,,,,,,,,,,,,,,,,,,,,,,,,,,,,,,,,,,,,,,,,
,8845,BCA,22/05/2003,001,2023-10-06_20h53.12.091,OS3_Mult_verification,2022.2.4,Win32,59.98440405,,,,,,,,,,,,,,,,,,18,1.9316,1,"[""1"",""8"",""return""]","[0.9565000000000055,1.4663000000119268,1.629800000011926]",,,,,,2 × 9 =,18,0,19,19,19,1,,,,,,,,,,,,,,,,,,,,,,,,,,,,,,,,,,,,,,,,,,,,,,,,,,,,,,,,,,,,,,,,,,,,,,,,,,,,,,,,,,,,,,,,,,,,,,,,,,,,,,,,,,,,,,,,,,,,,,,,,,,,,,,,,,,,,,,,,,,,
,8845,BCA,22/05/2003,001,2023-10-06_20h53.12.091,OS3_Mult_verification,2022.2.4,Win32,59.98440405,,,,,,,,,,,,,,,,,,72,2.3816,1,"[""7"",""2"",""return""]","[1.4224999999999568,1.8650999999642295,2.0815000000000055]",,,,,,9 × 8 =,72,0,20,20,20,1,,,,,,,,,,,,,,,,,,,,,,,,,,,,,,,,,,,,,,,,,,,,,,,,,,,,,,,,,,,,,,,,,,,,,,,,,,,,,,,,,,,,,,,,,,,,,,,,,,,,,,,,,,,,,,,,,,,,,,,,,,,,,,,,,,,,,,,,,,,,
,8845,BCA,22/05/2003,001,2023-10-06_20h53.12.091,OS3_Mult_verification,2022.2.4,Win32,59.98440405,,,,,,,,,,,,,,,,,,42,3.4902,1,"[""4"",""2"",""return""]","[2.6861000000238846,3.030199999988099,3.1979000000358155]",,,,,,7 × 6 =,42,0,21,21,21,1,,,,,,,,,,,,,,,,,,,,,,,,,,,,,,,,,,,,,,,,,,,,,,,,,,,,,,,,,,,,,,,,,,,,,,,,,,,,,,,,,,,,,,,,,,,,,,,,,,,,,,,,,,,,,,,,,,,,,,,,,,,,,,,,,,,,,,,,,,,,
,8845,BCA,22/05/2003,001,2023-10-06_20h53.12.091,OS3_Mult_verification,2022.2.4,Win32,59.98440405,,,,,,,,,,,,,,,,,,54,2.2312,1,"[""5"",""4"",""return""]","[1.5825000000000387,1.7690000000000055,1.9320000000000164]",,,,,,6 × 9 =,54,0,22,22,22,1,,,,,,,,,,,,,,,,,,,,,,,,,,,,,,,,,,,,,,,,,,,,,,,,,,,,,,,,,,,,,,,,,,,,,,,,,,,,,,,,,,,,,,,,,,,,,,,,,,,,,,,,,,,,,,,,,,,,,,,,,,,,,,,,,,,,,,,,,,,,
,8845,BCA,22/05/2003,001,2023-10-06_20h53.12.091,OS3_Mult_verification,2022.2.4,Win32,59.98440405,,,,,,,,,,,,,,,,,,45,2.6794,1,"[""4"",""5"",""return""]","[2.054600000023811,2.248699999988048,2.370600000023842]",,,,,,9 × 5 =,45,0,23,23,23,1,,,,,,,,,,,,,,,,,,,,,,,,,,,,,,,,,,,,,,,,,,,,,,,,,,,,,,,,,,,,,,,,,,,,,,,,,,,,,,,,,,,,,,,,,,,,,,,,,,,,,,,,,,,,,,,,,,,,,,,,,,,,,,,,,,,,,,,,,,,,
,8845,BCA,22/05/2003,001,2023-10-06_20h53.12.091,OS3_Mult_verification,2022.2.4,Win32,59.98440405,,,,,,,,,,,,,,,,,,56,2.4104,1,"[""5"",""6"",""return""]","[1.7874000000357455,1.96550000000002,2.1154999999999973]",,,,,,8 × 7 =,56,0,24,24,24,1,,,,,,,,,,,,,,,,,,,,,,,,,,,,,,,,,,,,,,,,,,,,,,,,,,,,,,,,,,,,,,,,,,,,,,,,,,,,,,,,,,,,,,,,,,,,,,,,,,,,,,,,,,,,,,,,,,,,,,,,,,,,,,,,,,,,,,,,,,,,
,8845,BCA,22/05/2003,001,2023-10-06_20h53.12.091,OS3_Mult_verification,2022.2.4,Win32,59.98440405,,,,,,,,,,,,,,,,,,36,1.9805,1,"[""3"",""6"",""return""]","[1.29849999999999,1.526599999964219,1.682199999988086]",,,,,,6 × 6 =,36,0,25,25,25,1,,,,,,,,,,,,,,,,,,,,,,,,,,,,,,,,,,,,,,,,,,,,,,,,,,,,,,,,,,,,,,,,,,,,,,,,,,,,,,,,,,,,,,,,,,,,,,,,,,,,,,,,,,,,,,,,,,,,,,,,,,,,,,,,,,,,,,,,,,,,
,8845,BCA,22/05/2003,001,2023-10-06_20h53.12.091,OS3_Mult_verification,2022.2.4,Win32,59.98440405,,,,,,,,,,,,,,,,,,35,1.827,1,"[""3"",""5"",""return""]","[1.1062000000476928,1.322999999999979,1.5235000000000127]",,,,,,5 × 7 =,35,0,26,26,26,1,,,,,,,,,,,,,,,,,,,,,,,,,,,,,,,,,,,,,,,,,,,,,,,,,,,,,,,,,,,,,,,,,,,,,,,,,,,,,,,,,,,,,,,,,,,,,,,,,,,,,,,,,,,,,,,,,,,,,,,,,,,,,,,,,,,,,,,,,,,,
,8845,BCA,22/05/2003,001,2023-10-06_20h53.12.091,OS3_Mult_verification,2022.2.4,Win32,59.98440405,,,,,,,,,,,,,,,,,,36,1.8186,1,"[""3"",""6"",""return""]","[1.0833000000119455,1.3493000000119082,1.5314000000357737]",,,,,,4 × 9 =,36,0,27,27,27,1,,,,,,,,,,,,,,,,,,,,,,,,,,,,,,,,,,,,,,,,,,,,,,,,,,,,,,,,,,,,,,,,,,,,,,,,,,,,,,,,,,,,,,,,,,,,,,,,,,,,,,,,,,,,,,,,,,,,,,,,,,,,,,,,,,,,,,,,,,,,
,8845,BCA,22/05/2003,001,2023-10-06_20h53.12.091,OS3_Mult_verification,2022.2.4,Win32,59.98440405,,,,,,,,,,,,,,,,,,48,2.5476,1,"[""4"",""8"",""return""]","[1.6324999999999932,2.037499999999966,2.2487999999522685]",,,,,,8 × 6 =,48,0,28,28,28,1,,,,,,,,,,,,,,,,,,,,,,,,,,,,,,,,,,,,,,,,,,,,,,,,,,,,,,,,,,,,,,,,,,,,,,,,,,,,,,,,,,,,,,,,,,,,,,,,,,,,,,,,,,,,,,,,,,,,,,,,,,,,,,,,,,,,,,,,,,,,
,8845,BCA,22/05/2003,001,2023-10-06_20h53.12.091,OS3_Mult_verification,2022.2.4,Win32,59.98440405,,,,,,,,,,,,,,,,,,63,3.3136,1,"[""6"",""2"",""backspace"",""3"",""return""]","[1.4868000000118968,1.9818000000119014,2.6151999999880786,2.7791000000238455,3.0146000000238473]",,,,,,9 × 7 =,63,0,29,29,29,1,,,,,,,,,,,,,,,,,,,,,,,,,,,,,,,,,,,,,,,,,,,,,,,,,,,,,,,,,,,,,,,,,,,,,,,,,,,,,,,,,,,,,,,,,,,,,,,,,,,,,,,,,,,,,,,,,,,,,,,,,,,,,,,,,,,,,,,,,,,,
,8845,BCA,22/05/2003,001,2023-10-06_20h53.12.091,OS3_Mult_verification,2022.2.4,Win32,59.98440405,,,,,,,,,,,,,,,,,,12,1.6264,1,"[""1"",""2"",""return""]","[0.9067000000476924,1.1047000000476714,1.3319999999999936]",,,,,,4 × 3 =,12,0,30,30,30,1,,,,,,,,,,,,,,,,,,,,,,,,,,,,,,,,,,,,,,,,,,,,,,,,,,,,,,,,,,,,,,,,,,,,,,,,,,,,,,,,,,,,,,,,,,,,,,,,,,,,,,,,,,,,,,,,,,,,,,,,,,,,,,,,,,,,,,,,,,,,
,8845,BCA,22/05/2003,001,2023-10-06_20h53.12.091,OS3_Mult_verification,2022.2.4,Win32,59.98440405,,,,,,,,,,,,,,,,,,25,2.0313,1,"[""2"",""5"",""return""]","[1.282800000011946,1.4446999999880745,1.7330999999642245]",,,,,,5 × 5 =,25,0,31,31,31,1,,,,,,,,,,,,,,,,,,,,,,,,,,,,,,,,,,,,,,,,,,,,,,,,,,,,,,,,,,,,,,,,,,,,,,,,,,,,,,,,,,,,,,,,,,,,,,,,,,,,,,,,,,,,,,,,,,,,,,,,,,,,,,,,,,,,,,,,,,,,
,8845,BCA,22/05/2003,001,2023-10-06_20h53.12.091,OS3_Mult_verification,2022.2.4,Win32,59.98440405,,,,,,,,,,,,,,,,,,6,1.6478,1,"[""6"",""return""]","[1.1165000000000305,1.349300000011965]",,,,,,3 × 2 =,6,0,32,32,32,1,,,,,,,,,,,,,,,,,,,,,,,,,,,,,,,,,,,,,,,,,,,,,,,,,,,,,,,,,,,,,,,,,,,,,,,,,,,,,,,,,,,,,,,,,,,,,,,,,,,,,,,,,,,,,,,,,,,,,,,,,,,,,,,,,,,,,,,,,,,,
,8845,BCA,22/05/2003,001,2023-10-06_20h53.12.091,OS3_Mult_verification,2022.2.4,Win32,59.98440405,,,,,,,,,,,,,,,,,,20,2.1474,1,"[""2"",""0"",""return""]","[1.1496999999881155,1.6826000000238537,1.8489000000357692]",,,,,,5 × 4 =,20,0,33,33,33,1,,,,,,,,,,,,,,,,,,,,,,,,,,,,,,,,,,,,,,,,,,,,,,,,,,,,,,,,,,,,,,,,,,,,,,,,,,,,,,,,,,,,,,,,,,,,,,,,,,,,,,,,,,,,,,,,,,,,,,,,,,,,,,,,,,,,,,,,,,,,
,8845,BCA,22/05/2003,001,2023-10-06_20h53.12.091,OS3_Mult_verification,2022.2.4,Win32,59.98440405,,,,,,,,,,,,,,,,,,8,1.8311,1,"[""8"",""return""]","[1.3168000000119378,1.5324999999999704]",,,,,,4 × 2 =,8,0,34,34,34,1,,,,,,,,,,,,,,,,,,,,,,,,,,,,,,,,,,,,,,,,,,,,,,,,,,,,,,,,,,,,,,,,,,,,,,,,,,,,,,,,,,,,,,,,,,,,,,,,,,,,,,,,,,,,,,,,,,,,,,,,,,,,,,,,,,,,,,,,,,,,
,8845,BCA,22/05/2003,001,2023-10-06_20h53.12.091,OS3_Mult_verification,2022.2.4,Win32,59.98440405,,,,,,,,,,,,,,,,,,12,1.4993,1,"[""1"",""2"",""return""]","[0.8814000000357964,1.0488000000119655,1.1986999999880936]",,,,,,2 × 6 =,12,0,35,35,35,1,,,,,,,,,,,,,,,,,,,,,,,,,,,,,,,,,,,,,,,,,,,,,,,,,,,,,,,,,,,,,,,,,,,,,,,,,,,,,,,,,,,,,,,,,,,,,,,,,,,,,,,,,,,,,,,,,,,,,,,,,,,,,,,,,,,,,,,,,,,,
,8845,BCA,22/05/2003,001,2023-10-06_20h53.12.091,OS3_Mult_verification,2022.2.4,Win32,59.98440405,,,,,,,,,,,,,,,,,,15,1.7143,1,"[""1"",""5"",""return""]","[1.0161000000238687,1.2826999999880968,1.4158000000119273]",,,,,,3 × 5 =,15,0,36,36,36,1,,,,,,,,,,,,,,,,,,,,,,,,,,,,,,,,,,,,,,,,,,,,,,,,,,,,,,,,,,,,,,,,,,,,,,,,,,,,,,,,,,,,,,,,,,,,,,,,,,,,,,,,,,,,,,,,,,,,,,,,,,,,,,,,,,,,,,,,,,,,
,8845,BCA,22/05/2003,001,2023-10-06_20h53.12.091,OS3_Mult_verification,2022.2.4,Win32,59.98440405,,,,,,,,,,,,,,,,,,18,1.6596,1,"[""1"",""8"",""return""]","[0.7805999999642381,1.2152999999523217,1.3592999999523272]",,,,,,6 × 3 =,18,0,37,37,37,1,,,,,,,,,,,,,,,,,,,,,,,,,,,,,,,,,,,,,,,,,,,,,,,,,,,,,,,,,,,,,,,,,,,,,,,,,,,,,,,,,,,,,,,,,,,,,,,,,,,,,,,,,,,,,,,,,,,,,,,,,,,,,,,,,,,,,,,,,,,,
,8845,BCA,22/05/2003,001,2023-10-06_20h53.12.091,OS3_Mult_verification,2022.2.4,Win32,59.98440405,,,,,,,,,,,,,,,,,,10,1.702,1,"[""1"",""0"",""return""]","[0.738700000047686,1.1999000000357682,1.3993000000119196]",,,,,,2 × 5 =,10,0,38,38,38,1,,,,,,,,,,,,,,,,,,,,,,,,,,,,,,,,,,,,,,,,,,,,,,,,,,,,,,,,,,,,,,,,,,,,,,,,,,,,,,,,,,,,,,,,,,,,,,,,,,,,,,,,,,,,,,,,,,,,,,,,,,,,,,,,,,,,,,,,,,,,
,8845,BCA,22/05/2003,001,2023-10-06_20h53.12.091,OS3_Mult_verification,2022.2.4,Win32,59.98440405,,,,,,,,,,,,,,,,,,32,1.7483,1,"[""3"",""2"",""return""]","[1.0994000000358142,1.283199999988085,1.449300000011931]",,,,,,4 × 8 =,32,0,39,39,39,1,,,,,,,,,,,,,,,,,,,,,,,,,,,,,,,,,,,,,,,,,,,,,,,,,,,,,,,,,,,,,,,,,,,,,,,,,,,,,,,,,,,,,,,,,,,,,,,,,,,,,,,,,,,,,,,,,,,,,,,,,,,,,,,,,,,,,,,,,,,,
,8845,BCA,22/05/2003,001,2023-10-06_20h53.12.091,OS3_Mult_verification,2022.2.4,Win32,59.98440405,,,,,,,,,,,,,,,,,,24,1.7984,1,"[""2"",""4"",""return""]","[1.166499999999985,1.3661000000238346,1.499499999999955]",,,,,,3 × 8 =,24,0,40,40,40,1,,,,,,,,,,,,,,,,,,,,,,,,,,,,,,,,,,,,,,,,,,,,,,,,,,,,,,,,,,,,,,,,,,,,,,,,,,,,,,,,,,,,,,,,,,,,,,,,,,,,,,,,,,,,,,,,,,,,,,,,,,,,,,,,,,,,,,,,,,,,
,8845,BCA,22/05/2003,001,2023-10-06_20h53.12.091,OS3_Mult_verification,2022.2.4,Win32,59.98440405,,,,,,,,,,,,,,,,,,30,1.7646,1,"[""3"",""0"",""return""]","[0.917400000035741,1.299400000035746,1.482600000023865]",,,,,,5 × 6 =,30,0,41,41,41,1,,,,,,,,,,,,,,,,,,,,,,,,,,,,,,,,,,,,,,,,,,,,,,,,,,,,,,,,,,,,,,,,,,,,,,,,,,,,,,,,,,,,,,,,,,,,,,,,,,,,,,,,,,,,,,,,,,,,,,,,,,,,,,,,,,,,,,,,,,,,
,8845,BCA,22/05/2003,001,2023-10-06_20h53.12.091,OS3_Mult_verification,2022.2.4,Win32,59.98440405,,,,,,,,,,,,,,,,,,14,1.4154,1,"[""1"",""4"",""return""]","[0.7421999999880882,0.9831999999880736,1.132899999976189]",,,,,,2 × 7 =,14,0,42,42,42,1,,,,,,,,,,,,,,,,,,,,,,,,,,,,,,,,,,,,,,,,,,,,,,,,,,,,,,,,,,,,,,,,,,,,,,,,,,,,,,,,,,,,,,,,,,,,,,,,,,,,,,,,,,,,,,,,,,,,,,,,,,,,,,,,,,,,,,,,,,,,
,8845,BCA,22/05/2003,001,2023-10-06_20h53.12.091,OS3_Mult_verification,2022.2.4,Win32,59.98440405,,,,,,,,,,,,,,,,,,,1.0656,0,,,,,,,,6 × 4 =,24,0,43,43,43,1,,,,,,,,,,,,,,,,,,,,,,,,,,,,,,,,,,,,,,,,,,,,,,,,,,,,,,,,,,,,,,,,,,,,,,,,,,,,,,,,,,,,,,,,,,,,,,,,,,,,,,,,,,,,,,,,,,,,,,,,,,,,,,,,,,,,,,,,,,,,
,8845,BCA,22/05/2003,001,2023-10-06_20h53.12.091,OS3_Mult_verification,2022.2.4,Win32,59.98440405,,,,,,,,,,,,,,,,space,1.5332,,,,,,,,,,,,,,,,,,TRUE,4.13,0.037963019,-0.345370399,1,0,0,0,0,0,0,1,practice trial,,3,3,,,,,,,,,,,,,,,,,,,,,,,,,,,,,,,,,,,,,,,,,,,,,,,,,,,,,,,,,,,,,,,,,,,,,,,,,,,,,,,,,,,,,,,,,,,,,,,,,,,,,,,,,,,,,,,,,,,,,,,,,,,,
,8845,BCA,22/05/2003,001,2023-10-06_20h53.12.091,OS3_Mult_verification,2022.2.4,Win32,59.98440405,,,,,,,,,,,,,,,,,,,,,,,,,,,,,,,,,,,TRUE,3.4973,0.042592621,-0.320370399,1,0,0,0,1,1,2,1,practice trial,,3,3,,,,,,,,,,,,,,,,,,,,,,,,,,,,,,,,,,,,,,,,,,,,,,,,,,,,,,,,,,,,,,,,,,,,,,,,,,,,,,,,,,,,,,,,,,,,,,,,,,,,,,,,,,,,,,,,,,,,,,,,,,,,
,8845,BCA,22/05/2003,001,2023-10-06_20h53.12.091,OS3_Mult_verification,2022.2.4,Win32,59.98440405,,,,,,,,,,,,,,,,,,,,,,,,,,,,,,,,,,,TRUE,3.6312,0.039814843,-0.335185242,1,0,0,0,2,2,1,1,practice trial,,3,3,,,,,,,,,,,,,,,,,,,,,,,,,,,,,,,,,,,,,,,,,,,,,,,,,,,,,,,,,,,,,,,,,,,,,,,,,,,,,,,,,,,,,,,,,,,,,,,,,,,,,,,,,,,,,,,,,,,,,,,,,,,,
,8845,BCA,22/05/2003,001,2023-10-06_20h53.12.091,OS3_Mult_verification,2022.2.4,Win32,59.98440405,,,,,,,,,,,,,,,,,,,,,,,,,,,,,,,,,,,TRUE,2.9481,0.075,-0.324074131,1,0,0,,,,,,Trial #1,,2,2,0,0,0,0,1,2,,,,,,,,,,,,,,,,,,,,,,,,,,,,,,,,,,,,,,,,,,,,,,,,,,,,,,,,,,,,,,,,,,,,,,,,,,,,,,,,,,,,,,,,,,,,,,,,,,,,,,,,,,,,,,,,,,,,,,
,8845,BCA,22/05/2003,001,2023-10-06_20h53.12.091,OS3_Mult_verification,2022.2.4,Win32,59.98440405,,,,,,,,,,,,,,,,,,,,,,,,,,,,,,,,,,,TRUE,2.1096,0.012963019,-0.327777778,1,0,0,,,,,,Trial #1,,2,2,0,1,1,1,1,2,,,,,,,,,,,,,,,,,,,,,,,,,,,,,,,,,,,,,,,,,,,,,,,,,,,,,,,,,,,,,,,,,,,,,,,,,,,,,,,,,,,,,,,,,,,,,,,,,,,,,,,,,,,,,,,,,,,,,,
,8845,BCA,22/05/2003,001,2023-10-06_20h53.12.091,OS3_Mult_verification,2022.2.4,Win32,59.98440405,,,,,,,,,,,,,,,,,,,,,,,,,,,,,,,,,,,TRUE,1.2825,-0.020370314,-0.351851908,1,0,0,,,,,,Trial #1,,2,2,0,2,2,2,1,2,,,,,,,,,,,,,,,,,,,,,,,,,,,,,,,,,,,,,,,,,,,,,,,,,,,,,,,,,,,,,,,,,,,,,,,,,,,,,,,,,,,,,,,,,,,,,,,,,,,,,,,,,,,,,,,,,,,,,,
,8845,BCA,22/05/2003,001,2023-10-06_20h53.12.091,OS3_Mult_verification,2022.2.4,Win32,59.98440405,,,,,,,,,,,,,,,,,,,,,,,,,,,,,,,,,,,TRUE,1.4664,0.017592621,-0.340740797,1,0,0,,,,,,Trial #2,,3,3,0,0,0,0,1,3,,,,,,,,,,,,,,,,,,,,,,,,,,,,,,,,,,,,,,,,,,,,,,,,,,,,,,,,,,,,,,,,,,,,,,,,,,,,,,,,,,,,,,,,,,,,,,,,,,,,,,,,,,,,,,,,,,,,,,
,8845,BCA,22/05/2003,001,2023-10-06_20h53.12.091,OS3_Mult_verification,2022.2.4,Win32,59.98440405,,,,,,,,,,,,,,,,,,,,,,,,,,,,,,,,,,,TRUE,2.1314,0.065740797,-0.337963019,1,0,0,,,,,,Trial #2,,3,3,0,1,1,1,1,3,,,,,,,,,,,,,,,,,,,,,,,,,,,,,,,,,,,,,,,,,,,,,,,,,,,,,,,,,,,,,,,,,,,,,,,,,,,,,,,,,,,,,,,,,,,,,,,,,,,,,,,,,,,,,,,,,,,,,,
,8845,BCA,22/05/2003,001,2023-10-06_20h53.12.091,OS3_Mult_verification,2022.2.4,Win32,59.98440405,,,,,,,,,,,,,,,,,,,,,,,,,,,,,,,,,,,TRUE,1.4799,0.002777778,-0.315740797,1,0,0,,,,,,Trial #2,,3,3,0,2,2,2,1,3,,,,,,,,,,,,,,,,,,,,,,,,,,,,,,,,,,,,,,,,,,,,,,,,,,,,,,,,,,,,,,,,,,,,,,,,,,,,,,,,,,,,,,,,,,,,,,,,,,,,,,,,,,,,,,,,,,,,,,
,8845,BCA,22/05/2003,001,2023-10-06_20h53.12.091,OS3_Mult_verification,2022.2.4,Win32,59.98440405,,,,,,,,,,,,,,,,,,,,,,,,,,,,,,,,,,,TRUE,1.6645,0.001851908,-0.348148176,1,0,0,,,,,,Trial #3,,3,3,0,0,0,0,1,4,,,,,,,,,,,,,,,,,,,,,,,,,,,,,,,,,,,,,,,,,,,,,,,,,,,,,,,,,,,,,,,,,,,,,,,,,,,,,,,,,,,,,,,,,,,,,,,,,,,,,,,,,,,,,,,,,,,,,,
,8845,BCA,22/05/2003,001,2023-10-06_20h53.12.091,OS3_Mult_verification,2022.2.4,Win32,59.98440405,,,,,,,,,,,,,,,,,,,,,,,,,,,,,,,,,,,TRUE,1.5707,0.043518575,-0.333333333,1,0,0,,,,,,Trial #3,,3,3,0,1,1,1,1,4,,,,,,,,,,,,,,,,,,,,,,,,,,,,,,,,,,,,,,,,,,,,,,,,,,,,,,,,,,,,,,,,,,,,,,,,,,,,,,,,,,,,,,,,,,,,,,,,,,,,,,,,,,,,,,,,,,,,,,
,8845,BCA,22/05/2003,001,2023-10-06_20h53.12.091,OS3_Mult_verification,2022.2.4,Win32,59.98440405,,,,,,,,,,,,,,,,,,,,,,,,,,,,,,,,,,,TRUE,1.5665,0.022222222,-0.323148176,1,0,0,,,,,,Trial #3,,3,3,0,2,2,2,1,4,,,,,,,,,,,,,,,,,,,,,,,,,,,,,,,,,,,,,,,,,,,,,,,,,,,,,,,,,,,,,,,,,,,,,,,,,,,,,,,,,,,,,,,,,,,,,,,,,,,,,,,,,,,,,,,,,,,,,,
,8845,BCA,22/05/2003,001,2023-10-06_20h53.12.091,OS3_Mult_verification,2022.2.4,Win32,59.98440405,,,,,,,,,,,,,,,,,,,,,,,,,,,,,,,,,,,TRUE,1.9035,0.027777778,-0.321296353,1,0,0,,,,,,Trial #4,,4,4,0,0,0,0,1,5,,,,,,,,,,,,,,,,,,,,,,,,,,,,,,,,,,,,,,,,,,,,,,,,,,,,,,,,,,,,,,,,,,,,,,,,,,,,,,,,,,,,,,,,,,,,,,,,,,,,,,,,,,,,,,,,,,,,,,
,8845,BCA,22/05/2003,001,2023-10-06_20h53.12.091,OS3_Mult_verification,2022.2.4,Win32,59.98440405,,,,,,,,,,,,,,,,,,,,,,,,,,,,,,,,,,,TRUE,1.9661,0.041666667,-0.352777778,1,0,0,,,,,,Trial #4,,4,4,0,1,1,1,1,5,,,,,,,,,,,,,,,,,,,,,,,,,,,,,,,,,,,,,,,,,,,,,,,,,,,,,,,,,,,,,,,,,,,,,,,,,,,,,,,,,,,,,,,,,,,,,,,,,,,,,,,,,,,,,,,,,,,,,,
,8845,BCA,22/05/2003,001,2023-10-06_20h53.12.091,OS3_Mult_verification,2022.2.4,Win32,59.98440405,,,,,,,,,,,,,,,,,,,,,,,,,,,,,,,,,,,TRUE,2.0323,0.049074131,-0.33148151,1,0,0,,,,,,Trial #4,,4,4,0,2,2,2,1,5,,,,,,,,,,,,,,,,,,,,,,,,,,,,,,,,,,,,,,,,,,,,,,,,,,,,,,,,,,,,,,,,,,,,,,,,,,,,,,,,,,,,,,,,,,,,,,,,,,,,,,,,,,,,,,,,,,,,,,
,8845,BCA,22/05/2003,001,2023-10-06_20h53.12.091,OS3_Mult_verification,2022.2.4,Win32,59.98440405,,,,,,,,,,,,,,,,,,,,,,,,,,,,,,,,,,,TRUE,2.117,0.05648151,-0.378703732,1,0,0,,,,,,Trial #5,,4,4,0,0,0,0,1,6,,,,,,,,,,,,,,,,,,,,,,,,,,,,,,,,,,,,,,,,,,,,,,,,,,,,,,,,,,,,,,,,,,,,,,,,,,,,,,,,,,,,,,,,,,,,,,,,,,,,,,,,,,,,,,,,,,,,,,
,8845,BCA,22/05/2003,001,2023-10-06_20h53.12.091,OS3_Mult_verification,2022.2.4,Win32,59.98440405,,,,,,,,,,,,,,,,,,,,,,,,,,,,,,,,,,,TRUE,2.3647,0.068518575,-0.340740797,1,0,0,,,,,,Trial #5,,4,4,0,1,1,1,1,6,,,,,,,,,,,,,,,,,,,,,,,,,,,,,,,,,,,,,,,,,,,,,,,,,,,,,,,,,,,,,,,,,,,,,,,,,,,,,,,,,,,,,,,,,,,,,,,,,,,,,,,,,,,,,,,,,,,,,,
,8845,BCA,22/05/2003,001,2023-10-06_20h53.12.091,OS3_Mult_verification,2022.2.4,Win32,59.98440405,,,,,,,,,,,,,,,,,,,,,,,,,,,,,,,,,,,TRUE,2.1502,0.089814843,-0.353703732,1,0,0,,,,,,Trial #5,,4,4,0,2,2,2,1,6,,,,,,,,,,,,,,,,,,,,,,,,,,,,,,,,,,,,,,,,,,,,,,,,,,,,,,,,,,,,,,,,,,,,,,,,,,,,,,,,,,,,,,,,,,,,,,,,,,,,,,,,,,,,,,,,,,,,,,
,8845,BCA,22/05/2003,001,2023-10-06_20h53.12.091,OS3_Mult_verification,2022.2.4,Win32,59.98440405,,,,,,,,,,,,,,,,,,,,,,,,,,,,,,,,,,,TRUE,2.448,0.089814843,-0.337963019,1,0,0,,,,,,Trial #6,,4,4,0,0,0,0,1,7,,,,,,,,,,,,,,,,,,,,,,,,,,,,,,,,,,,,,,,,,,,,,,,,,,,,,,,,,,,,,,,,,,,,,,,,,,,,,,,,,,,,,,,,,,,,,,,,,,,,,,,,,,,,,,,,,,,,,,
,8845,BCA,22/05/2003,001,2023-10-06_20h53.12.091,OS3_Mult_verification,2022.2.4,Win32,59.98440405,,,,,,,,,,,,,,,,,,,,,,,,,,,,,,,,,,,TRUE,2.3865,0.117592621,-0.359259288,1,0,0,,,,,,Trial #6,,4,4,0,1,1,1,1,7,,,,,,,,,,,,,,,,,,,,,,,,,,,,,,,,,,,,,,,,,,,,,,,,,,,,,,,,,,,,,,,,,,,,,,,,,,,,,,,,,,,,,,,,,,,,,,,,,,,,,,,,,,,,,,,,,,,,,,
,8845,BCA,22/05/2003,001,2023-10-06_20h53.12.091,OS3_Mult_verification,2022.2.4,Win32,59.98440405,,,,,,,,,,,,,,,,,,,,,,,,,,,,,,,,,,,TRUE,2.4978,0.1,-0.344444444,1,0,0,,,,,,Trial #6,,4,4,0,2,2,2,1,7,,,,,,,,,,,,,,,,,,,,,,,,,,,,,,,,,,,,,,,,,,,,,,,,,,,,,,,,,,,,,,,,,,,,,,,,,,,,,,,,,,,,,,,,,,,,,,,,,,,,,,,,,,,,,,,,,,,,,,
,8845,BCA,22/05/2003,001,2023-10-06_20h53.12.091,OS3_Mult_verification,2022.2.4,Win32,59.98440405,,,,,,,,,,,,,,,,,,,,,,,,,,,,,,,,,,,TRUE,2.8665,0.067592621,-0.347222222,1,0,0,,,,,,Trial #7,,4,4,0,0,0,0,1,8,,,,,,,,,,,,,,,,,,,,,,,,,,,,,,,,,,,,,,,,,,,,,,,,,,,,,,,,,,,,,,,,,,,,,,,,,,,,,,,,,,,,,,,,,,,,,,,,,,,,,,,,,,,,,,,,,,,,,,
,8845,BCA,22/05/2003,001,2023-10-06_20h53.12.091,OS3_Mult_verification,2022.2.4,Win32,59.98440405,,,,,,,,,,,,,,,,,,,,,,,,,,,,,,,,,,,TRUE,2.9467,0.050925954,-0.336111111,1,0,0,,,,,,Trial #7,,4,4,0,1,1,1,1,8,,,,,,,,,,,,,,,,,,,,,,,,,,,,,,,,,,,,,,,,,,,,,,,,,,,,,,,,,,,,,,,,,,,,,,,,,,,,,,,,,,,,,,,,,,,,,,,,,,,,,,,,,,,,,,,,,,,,,,
,8845,BCA,22/05/2003,001,2023-10-06_20h53.12.091,OS3_Mult_verification,2022.2.4,Win32,59.98440405,,,,,,,,,,,,,,,,,,,,,,,,,,,,,,,,,,,TRUE,2.6694,0.044444444,-0.325925954,1,0,0,,,,,,Trial #7,,4,4,0,2,2,2,1,8,,,,,,,,,,,,,,,,,,,,,,,,,,,,,,,,,,,,,,,,,,,,,,,,,,,,,,,,,,,,,,,,,,,,,,,,,,,,,,,,,,,,,,,,,,,,,,,,,,,,,,,,,,,,,,,,,,,,,,
,8845,BCA,22/05/2003,001,2023-10-06_20h53.12.091,OS3_Mult_verification,2022.2.4,Win32,59.98440405,,,,,,,,,,,,,,,,,,,,,,,,,,,,,,,,,,,TRUE,3.0523,0.073148176,-0.351851908,1,0,0,,,,,,Trial #8,,5,5,0,0,0,0,1,9,,,,,,,,,,,,,,,,,,,,,,,,,,,,,,,,,,,,,,,,,,,,,,,,,,,,,,,,,,,,,,,,,,,,,,,,,,,,,,,,,,,,,,,,,,,,,,,,,,,,,,,,,,,,,,,,,,,,,,
,8845,BCA,22/05/2003,001,2023-10-06_20h53.12.091,OS3_Mult_verification,2022.2.4,Win32,59.98440405,,,,,,,,,,,,,,,,,,,,,,,,,,,,,,,,,,,TRUE,3.4676,0.088888889,-0.373148176,1,0,0,,,,,,Trial #8,,5,5,0,1,1,1,1,9,,,,,,,,,,,,,,,,,,,,,,,,,,,,,,,,,,,,,,,,,,,,,,,,,,,,,,,,,,,,,,,,,,,,,,,,,,,,,,,,,,,,,,,,,,,,,,,,,,,,,,,,,,,,,,,,,,,,,,
,8845,BCA,22/05/2003,001,2023-10-06_20h53.12.091,OS3_Mult_verification,2022.2.4,Win32,59.98440405,,,,,,,,,,,,,,,,,,,,,,,,,,,,,,,,,,,FALSE,4.3183,0.047222222,-0.324074131,1,0,0,,,,,,Trial #8,,5,5,0,2,2,2,1,9,,,,,,,,,,,,,,,,,,,,,,,,,,,,,,,,,,,,,,,,,,,,,,,,,,,,,,,,,,,,,,,,,,,,,,,,,,,,,,,,,,,,,,,,,,,,,,,,,,,,,,,,,,,,,,,,,,,,,,
,8845,BCA,22/05/2003,001,2023-10-06_20h53.12.091,OS3_Mult_verification,2022.2.4,Win32,59.98440405,,,,,,,,,,,,,,,,,,,,,,,,,,,,,,,,,,,TRUE,3.2197,0.054629686,-0.349074131,1,0,0,,,,,,Trial #9,,5,5,0,0,0,0,1,10,,,,,,,,,,,,,,,,,,,,,,,,,,,,,,,,,,,,,,,,,,,,,,,,,,,,,,,,,,,,,,,,,,,,,,,,,,,,,,,,,,,,,,,,,,,,,,,,,,,,,,,,,,,,,,,,,,,,,,
,8845,BCA,22/05/2003,001,2023-10-06_20h53.12.091,OS3_Mult_verification,2022.2.4,Win32,59.98440405,,,,,,,,,,,,,,,,,,,,,,,,,,,,,,,,,,,TRUE,4.1344,0.085185242,-0.352777778,1,0,0,,,,,,Trial #9,,5,5,0,1,1,1,1,10,,,,,,,,,,,,,,,,,,,,,,,,,,,,,,,,,,,,,,,,,,,,,,,,,,,,,,,,,,,,,,,,,,,,,,,,,,,,,,,,,,,,,,,,,,,,,,,,,,,,,,,,,,,,,,,,,,,,,,
,8845,BCA,22/05/2003,001,2023-10-06_20h53.12.091,OS3_Mult_verification,2022.2.4,Win32,59.98440405,,,,,,,,,,,,,,,,,,,,,,,,,,,,,,,,,,,TRUE,3.1027,0.076851908,-0.315740797,1,0,0,,,,,,Trial #9,,5,5,0,2,2,2,1,10,,,,,,,,,,,,,,,,,,,,,,,,,,,,,,,,,,,,,,,,,,,,,,,,,,,,,,,,,,,,,,,,,,,,,,,,,,,,,,,,,,,,,,,,,,,,,,,,,,,,,,,,,,,,,,,,,,,,,,
,8845,BCA,22/05/2003,001,2023-10-06_20h53.12.091,OS3_Mult_verification,2022.2.4,Win32,59.98440405,,,,,,,,,,,,,,,,,,,,,,,,,,,,,,,,,,,TRUE,3.8512,0.010185242,-0.339814843,1,0,0,,,,,,Trial #10,,5,5,0,0,0,0,1,11,,,,,,,,,,,,,,,,,,,,,,,,,,,,,,,,,,,,,,,,,,,,,,,,,,,,,,,,,,,,,,,,,,,,,,,,,,,,,,,,,,,,,,,,,,,,,,,,,,,,,,,,,,,,,,,,,,,,,,
,8845,BCA,22/05/2003,001,2023-10-06_20h53.12.091,OS3_Mult_verification,2022.2.4,Win32,59.98440405,,,,,,,,,,,,,,,,,,,,,,,,,,,,,,,,,,,TRUE,3.9849,0.05,-0.345370399,1,0,0,,,,,,Trial #10,,5,5,0,1,1,1,1,11,,,,,,,,,,,,,,,,,,,,,,,,,,,,,,,,,,,,,,,,,,,,,,,,,,,,,,,,,,,,,,,,,,,,,,,,,,,,,,,,,,,,,,,,,,,,,,,,,,,,,,,,,,,,,,,,,,,,,,
,8845,BCA,22/05/2003,001,2023-10-06_20h53.12.091,OS3_Mult_verification,2022.2.4,Win32,59.98440405,,,,,,,,,,,,,,,,,,,,,,,,,,,,,,,,,,,FALSE,5.9113,0.047222222,-0.349074131,1,0,0,,,,,,Trial #10,,5,5,0,2,2,2,1,11,,,,,,,,,,,,,,,,,,,,,,,,,,,,,,,,,,,,,,,,,,,,,,,,,,,,,,,,,,,,,,,,,,,,,,,,,,,,,,,,,,,,,,,,,,,,,,,,,,,,,,,,,,,,,,,,,,,,,,
,8845,BCA,22/05/2003,001,2023-10-06_20h53.12.091,OS3_Mult_verification,2022.2.4,Win32,59.98440405,,,,,,,,,,,,,,,,,,,,,,,,,,,,,,,,,,,FALSE,4.4303,0.099074131,-0.317592621,1,0,0,,,,,,Trial #11,,5,5,0,0,0,0,1,12,,,,,,,,,,,,,,,,,,,,,,,,,,,,,,,,,,,,,,,,,,,,,,,,,,,,,,,,,,,,,,,,,,,,,,,,,,,,,,,,,,,,,,,,,,,,,,,,,,,,,,,,,,,,,,,,,,,,,,
,8845,BCA,22/05/2003,001,2023-10-06_20h53.12.091,OS3_Mult_verification,2022.2.4,Win32,59.98440405,,,,,,,,,,,,,,,,,,,,,,,,,,,,,,,,,,,FALSE,7.4825,0.062037065,-0.341666667,1,0,0,,,,,,Trial #11,,5,5,0,1,1,1,1,12,,,,,,,,,,,,,,,,,,,,,,,,,,,,,,,,,,,,,,,,,,,,,,,,,,,,,,,,,,,,,,,,,,,,,,,,,,,,,,,,,,,,,,,,,,,,,,,,,,,,,,,,,,,,,,,,,,,,,,
,8845,BCA,22/05/2003,001,2023-10-06_20h53.12.091,OS3_Mult_verification,2022.2.4,Win32,59.98440405,,,,,,,,,,,,,,,,,,,,,,,,,,,,,,,,,,,FALSE,5.5289,0.103703732,-0.357407464,1,0,0,,,,,,Trial #11,,5,5,0,2,2,2,1,12,,,,,,,,,,,,,,,,,,,,,,,,,,,,,,,,,,,,,,,,,,,,,,,,,,,,,,,,,,,,,,,,,,,,,,,,,,,,,,,,,,,,,,,,,,,,,,,,,,,,,,,,,,,,,,,,,,,,,,
,8845,BCA,22/05/2003,001,2023-10-06_20h53.12.091,OS3_Mult_verification,2022.2.4,Win32,59.98440405,,,,,,,,,,,,,,,,,,,,,,,,,,,,,,,,,,,,,,,,,,,,,,,,,,,,,,,,,0,0,0,0,1,,,,,,,,,,,,,,,,,,,,,,,,,,,,,,,,,,,,,,,,,,,,,,,,,,,,,,,,,,,,,,,,,,,,,,,,,,,,,,,,,,,,,,,,,,,,,,,,,,,,,,,,,,,,,,,,,
,8845,BCA,22/05/2003,001,2023-10-06_20h53.12.091,OS3_Mult_verification,2022.2.4,Win32,59.98440405,,,,,,,,,,,,,,,,,,,,,,,,,,,,,,,,,,,,,,,,,,,,,,,,,,,,,,,,,,,,,,0,0,0,0,1,0,1,0,,,,,,,,,,,,,,,,,,,,,,,,,,,,,,,,,,,,,,,,,,,,,,,,,,,,,,,,,,,,,,,,,,,,,,,,,,,,,,,,,,,,,,,,,,,,,,,,,,,,,,,,,
,8845,BCA,22/05/2003,001,2023-10-06_20h53.12.091,OS3_Mult_verification,2022.2.4,Win32,59.98440405,,,,,,,,,,,,,,,,space,0.7828,,,,,,,,,,,,,,,,,,,,,,,,,,,,,,,,,,,,,,,,,,,,,,,,,,,,,space,6.6447,123,1.8152,1,"[""1"",""2"",""3"",""return""]","[0.6752000000476528,0.9334999999999809,1.1662000000476382,1.7826000000237627]",0,0,0,0,1,3,123,Audio/123.mp3,practice,,,,,,,,,,,,,,,,,,,,,,,,,,,,,,,,,,,,,,,,,,,,,,,,,,,,,,,,,,,,,,,,,,,,,,,,,,,,,,,,,,,,,,,,,
,8845,BCA,22/05/2003,001,2023-10-06_20h53.12.091,OS3_Mult_verification,2022.2.4,Win32,59.98440405,,,,,,,,,,,,,,,,,,,,,,,,,,,,,,,,,,,,,,,,,,,,,,,,,,,,,,,,,,,,,,,,,,,,,,,,321,1.5474,1,"[""3"",""2"",""1"",""return""]","[0.46680000001197186,0.7163000000119837,0.9336999999881073,1.4998000000119873]",0,1,1,1,1,3,321,Audio/321.mp3,practice,,,,,,,,,,,,,,,,,,,,,,,,,,,,,,,,,,,,,,,,,,,,,,,,,,,,,,,,,,,,,,,,,,,,,,,,,,,,,,,,,,,,,,,,,
,8845,BCA,22/05/2003,001,2023-10-06_20h53.12.091,OS3_Mult_verification,2022.2.4,Win32,59.98440405,,,,,,,,,,,,,,,,,,,,,,,,,,,,,,,,,,,,,,,,,,,,,,,,,,,,,,,,,,,,,,,,,,,,,,,,911,2.0134,1,"[""9"",""1"",""1"",""return""]","[0.9327999999522945,1.3667999999522635,1.5010999999642536,1.9821999999880973]",0,2,2,2,1,3,911,Audio/911.mp3,practice,,,,,,,,,,,,,,,,,,,,,,,,,,,,,,,,,,,,,,,,,,,,,,,,,,,,,,,,,,,,,,,,,,,,,,,,,,,,,,,,,,,,,,,,,
,8845,BCA,22/05/2003,001,2023-10-06_20h53.12.091,OS3_Mult_verification,2022.2.4,Win32,59.98440405,,,,,,,,,,,,,,,,,,,,,,,,,,,,,,,,,,,,,,,,,,,,,,,,,,,,,,,,,,,,,,,,,,,,,,,,46,1.4822,1,"[""4"",""6"",""return""]","[0.7499000000357228,0.9985000000000355,1.4488000000119428]",,,,,,2,46,Audio/46.mp3,EGNER,0,0,0,0,1,,,,,,,,,,,,,,,,,,,,,,,,,,,,,,,,,,,,,,,,,,,,,,,,,,,,,,,,,,,,,,,,,,,,,,,,,,,,,,,,,,,,
,8845,BCA,22/05/2003,001,2023-10-06_20h53.12.091,OS3_Mult_verification,2022.2.4,Win32,59.98440405,,,,,,,,,,,,,,,,,,,,,,,,,,,,,,,,,,,,,,,,,,,,,,,,,,,,,,,,,,,,,,,,,,,,,,,,82,1.453,1,"[""8"",""2"",""return""]","[0.5834000000356809,0.8998000000118509,1.4164999999999281]",,,,,,2,82,Audio/82.mp3,EGNER,0,1,1,1,1,,,,,,,,,,,,,,,,,,,,,,,,,,,,,,,,,,,,,,,,,,,,,,,,,,,,,,,,,,,,,,,,,,,,,,,,,,,,,,,,,,,,
,8845,BCA,22/05/2003,001,2023-10-06_20h53.12.091,OS3_Mult_verification,2022.2.4,Win32,59.98440405,,,,,,,,,,,,,,,,,,,,,,,,,,,,,,,,,,,,,,,,,,,,,,,,,,,,,,,,,,,,,,,,,,,,,,,,,,,,,,,,,,,,,,,,,,,0,0,0,0,1,digitSpan_stim/twoAudio.xlsx,,,,,,,,,,,,,,,,,,,,,,,,,,,,,,,,,,,,,,,,,,,,,,,,,,,,,,,,,,,,,,,,,,,,,,,,,,,,,,
,8845,BCA,22/05/2003,001,2023-10-06_20h53.12.091,OS3_Mult_verification,2022.2.4,Win32,59.98440405,,,,,,,,,,,,,,,,,,,,,,,,,,,,,,,,,,,,,,,,,,,,,,,,,,,,,,,,,,,,,,,,,,,,,,,,157,1.2826,1,"[""1"",""5"",""7"",""return""]","[0.41679999995233175,0.7164999999999964,0.9831999999880736,1.2493999999761627]",,,,,,3,157,Audio/157.mp3,EGNER,0,0,0,0,1,,,,,,,,,,,,,,,,,,,,,,,,,,,,,,,,,,,,,,,,,,,,,,,,,,,,,,,,,,,,,,,,,,,,,,,,,,,,,,,,,,,,
,8845,BCA,22/05/2003,001,2023-10-06_20h53.12.091,OS3_Mult_verification,2022.2.4,Win32,59.98440405,,,,,,,,,,,,,,,,,,,,,,,,,,,,,,,,,,,,,,,,,,,,,,,,,,,,,,,,,,,,,,,,,,,,,,,,397,1.6099,1,"[""3"",""9"",""7"",""return""]","[0.17220000004772373,0.6502000000476755,1.316500000000019,1.5768000000118718]",,,,,,3,397,Audio/397.mp3,EGNER,0,1,1,1,1,,,,,,,,,,,,,,,,,,,,,,,,,,,,,,,,,,,,,,,,,,,,,,,,,,,,,,,,,,,,,,,,,,,,,,,,,,,,,,,,,,,,
,8845,BCA,22/05/2003,001,2023-10-06_20h53.12.091,OS3_Mult_verification,2022.2.4,Win32,59.98440405,,,,,,,,,,,,,,,,,,,,,,,,,,,,,,,,,,,,,,,,,,,,,,,,,,,,,,,,,,,,,,,,,,,,,,,,,,,,,,,,,,,,,,,,,,,0,1,1,1,1,digitSpan_stim/threeAudio.xlsx,,,,,,,,,,,,,,,,,,,,,,,,,,,,,,,,,,,,,,,,,,,,,,,,,,,,,,,,,,,,,,,,,,,,,,,,,,,,,,
,8845,BCA,22/05/2003,001,2023-10-06_20h53.12.091,OS3_Mult_verification,2022.2.4,Win32,59.98440405,,,,,,,,,,,,,,,,,,,,,,,,,,,,,,,,,,,,,,,,,,,,,,,,,,,,,,,,,,,,,,,,,,,,,,,,6352,1.9653,1,"[""6"",""3"",""5"",""2"",""return""]","[0.08369999998808453,0.6319999999999482,0.9495999999642208,1.6043000000119036,1.9318999999761672]",,,,,,4,6352,Audio/6352.mp3,EGNER,0,0,0,0,1,,,,,,,,,,,,,,,,,,,,,,,,,,,,,,,,,,,,,,,,,,,,,,,,,,,,,,,,,,,,,,,,,,,,,,,,,,,,,,,,,,,,
,8845,BCA,22/05/2003,001,2023-10-06_20h53.12.091,OS3_Mult_verification,2022.2.4,Win32,59.98440405,,,,,,,,,,,,,,,,,,,,,,,,,,,,,,,,,,,,,,,,,,,,,,,,,,,,,,,,,,,,,,,,,,,,,,,,9184,2.2971,1,"[""9"",""1"",""8"",""4"",""return""]","[0.43360000002383003,0.979900000035741,1.4331000000238419,1.9986999999880481,2.2648000000119737]",,,,,,4,9184,Audio/9184.mp3,EGNER,0,1,1,1,1,,,,,,,,,,,,,,,,,,,,,,,,,,,,,,,,,,,,,,,,,,,,,,,,,,,,,,,,,,,,,,,,,,,,,,,,,,,,,,,,,,,,
,8845,BCA,22/05/2003,001,2023-10-06_20h53.12.091,OS3_Mult_verification,2022.2.4,Win32,59.98440405,,,,,,,,,,,,,,,,,,,,,,,,,,,,,,,,,,,,,,,,,,,,,,,,,,,,,,,,,,,,,,,,,,,,,,,,,,,,,,,,,,,,,,,,,,,0,2,2,2,1,digitSpan_stim/fourAudio.xlsx,,,,,,,,,,,,,,,,,,,,,,,,,,,,,,,,,,,,,,,,,,,,,,,,,,,,,,,,,,,,,,,,,,,,,,,,,,,,,,
,8845,BCA,22/05/2003,001,2023-10-06_20h53.12.091,OS3_Mult_verification,2022.2.4,Win32,59.98440405,,,,,,,,,,,,,,,,,,,,,,,,,,,,,,,,,,,,,,,,,,,,,,,,,,,,,,,,,,,,,,,,,,,,,,,,59281,2.8684,1,"[""5"",""9"",""2"",""8"",""1"",""return""]","[0.26730000001191456,0.6833999999761318,1.2658999999761136,1.732499999999959,2.1984999999999673,2.8301999999880536]",,,,,,5,59281,Audio/59281.mp3,EGNER,0,0,0,0,1,,,,,,,,,,,,,,,,,,,,,,,,,,,,,,,,,,,,,,,,,,,,,,,,,,,,,,,,,,,,,,,,,,,,,,,,,,,,,,,,,,,,
,8845,BCA,22/05/2003,001,2023-10-06_20h53.12.091,OS3_Mult_verification,2022.2.4,Win32,59.98440405,,,,,,,,,,,,,,,,,,,,,,,,,,,,,,,,,,,,,,,,,,,,,,,,,,,,,,,,,,,,,,,,,,,,,,,,64738,3.1635,1,"[""6"",""4"",""7"",""3"",""8"",""return""]","[0.9543000000119264,1.4558000000120046,1.8328999999762345,2.3985000000000127,2.8148999999762054,3.1313999999762245]",,,,,,5,64738,Audio/64738.mp3,EGNER,0,1,1,1,1,,,,,,,,,,,,,,,,,,,,,,,,,,,,,,,,,,,,,,,,,,,,,,,,,,,,,,,,,,,,,,,,,,,,,,,,,,,,,,,,,,,,
,8845,BCA,22/05/2003,001,2023-10-06_20h53.12.091,OS3_Mult_verification,2022.2.4,Win32,59.98440405,,,,,,,,,,,,,,,,,,,,,,,,,,,,,,,,,,,,,,,,,,,,,,,,,,,,,,,,,,,,,,,,,,,,,,,,,,,,,,,,,,,,,,,,,,,0,3,3,3,1,digitSpan_stim/fiveAudio.xlsx,,,,,,,,,,,,,,,,,,,,,,,,,,,,,,,,,,,,,,,,,,,,,,,,,,,,,,,,,,,,,,,,,,,,,,,,,,,,,,
,8845,BCA,22/05/2003,001,2023-10-06_20h53.12.091,OS3_Mult_verification,2022.2.4,Win32,59.98440405,,,,,,,,,,,,,,,,,,,,,,,,,,,,,,,,,,,,,,,,,,,,,,,,,,,,,,,,,,,,,,,,,,,,,,,,396172,5.1786,1,"[""3"",""9"",""5"",""backspace"",""6"",""1"",""7"",""2"",""return""]","[0.29410000002383185,0.8661999999881118,1.5653000000119164,2.2825000000000273,2.8976999999881627,3.3979000000357473,3.9969000000357937,4.530100000023822,5.146300000011934]",,,,,,6,396172,Audio/396172.mp3,EGNER,0,0,0,0,1,,,,,,,,,,,,,,,,,,,,,,,,,,,,,,,,,,,,,,,,,,,,,,,,,,,,,,,,,,,,,,,,,,,,,,,,,,,,,,,,,,,,
,8845,BCA,22/05/2003,001,2023-10-06_20h53.12.091,OS3_Mult_verification,2022.2.4,Win32,59.98440405,,,,,,,,,,,,,,,,,,,,,,,,,,,,,,,,,,,,,,,,,,,,,,,,,,,,,,,,,,,,,,,,,,,,,,,,594631,2.9975,1,"[""5"",""9"",""4"",""6"",""3"",""1"",""return""]","[0.14989999997612813,0.5496999999880927,1.1991000000238046,1.4326999999880172,2.2153000000118936,2.5981999999880827,2.96449999999993]",,,,,,6,594631,Audio/594631.mp3,EGNER,0,1,1,1,1,,,,,,,,,,,,,,,,,,,,,,,,,,,,,,,,,,,,,,,,,,,,,,,,,,,,,,,,,,,,,,,,,,,,,,,,,,,,,,,,,,,,
,8845,BCA,22/05/2003,001,2023-10-06_20h53.12.091,OS3_Mult_verification,2022.2.4,Win32,59.98440405,,,,,,,,,,,,,,,,,,,,,,,,,,,,,,,,,,,,,,,,,,,,,,,,,,,,,,,,,,,,,,,,,,,,,,,,,,,,,,,,,,,,,,,,,,,0,4,4,4,1,digitSpan_stim/sixAudio.xlsx,,,,,,,,,,,,,,,,,,,,,,,,,,,,,,,,,,,,,,,,,,,,,,,,,,,,,,,,,,,,,,,,,,,,,,,,,,,,,,
,8845,BCA,22/05/2003,001,2023-10-06_20h53.12.091,OS3_Mult_verification,2022.2.4,Win32,59.98440405,,,,,,,,,,,,,,,,,,,,,,,,,,,,,,,,,,,,,,,,,,,,,,,,,,,,,,,,,,,,,,,,,,,,,,,,8241973,4.5841,1,"[""8"",""2"",""4"",""1"",""9"",""7"",""3"",""return""]","[1.449300000011931,1.9335999999642581,2.265399999976239,2.645599999964247,3.081300000011993,3.54769999998814,4.09699999999998,4.545699999988074]",,,,,,7,8241973,Audio/8241973.mp3,EGNER,0,0,0,0,1,,,,,,,,,,,,,,,,,,,,,,,,,,,,,,,,,,,,,,,,,,,,,,,,,,,,,,,,,,,,,,,,,,,,,,,,,,,,,,,,,,,,
,8845,BCA,22/05/2003,001,2023-10-06_20h53.12.091,OS3_Mult_verification,2022.2.4,Win32,59.98440405,,,,,,,,,,,,,,,,,,,,,,,,,,,,,,,,,,,,,,,,,,,,,,,,,,,,,,,,,,,,,,,,,,,,,,,,2814367,5.0615,1,"[""2"",""8"",""1"",""4"",""3"",""6"",""7"",""return""]","[1.5656999999880554,2.0819999999999936,2.5813999999761563,3.0480999999641654,3.9473000000118645,4.335300000011898,4.61309999996422,5.029699999987997]",,,,,,7,2814367,Audio/2814367.mp3,EGNER,0,1,1,1,1,,,,,,,,,,,,,,,,,,,,,,,,,,,,,,,,,,,,,,,,,,,,,,,,,,,,,,,,,,,,,,,,,,,,,,,,,,,,,,,,,,,,
,8845,BCA,22/05/2003,001,2023-10-06_20h53.12.091,OS3_Mult_verification,2022.2.4,Win32,59.98440405,,,,,,,,,,,,,,,,,,,,,,,,,,,,,,,,,,,,,,,,,,,,,,,,,,,,,,,,,,,,,,,,,,,,,,,,,,,,,,,,,,,,,,,,,,,0,5,5,5,1,digitSpan_stim/sevenAudio.xlsx,,,,,,,,,,,,,,,,,,,,,,,,,,,,,,,,,,,,,,,,,,,,,,,,,,,,,,,,,,,,,,,,,,,,,,,,,,,,,,
,8845,BCA,22/05/2003,001,2023-10-06_20h53.12.091,OS3_Mult_verification,2022.2.4,Win32,59.98440405,,,,,,,,,,,,,,,,,,,,,,,,,,,,,,,,,,,,,,,,,,,,,,,,,,,,,,,,,,,,,,,,,,,,,,,,53827164,5.6951,1,"[""5"",""3"",""8"",""2"",""7"",""1"",""6"",""4"",""return""]","[0.8501000000238719,1.1826000000238537,1.6653000000119391,2.4984000000357582,2.89730000001191,3.4805000000000064,3.947200000047701,4.296500000000037,5.651700000047754]",,,,,,8,53827164,Audio/53827164.mp3,EGNER,0,0,0,0,1,,,,,,,,,,,,,,,,,,,,,,,,,,,,,,,,,,,,,,,,,,,,,,,,,,,,,,,,,,,,,,,,,,,,,,,,,,,,,,,,,,,,
,8845,BCA,22/05/2003,001,2023-10-06_20h53.12.091,OS3_Mult_verification,2022.2.4,Win32,59.98440405,,,,,,,,,,,,,,,,,,,,,,,,,,,,,,,,,,,,,,,,,,,,,,,,,,,,,,,,,,,,,,,,,,,,,,,,75241739,7.86,1,"[""7"",""5"",""2"",""4"",""1"",""7"",""3"",""9"",""return""]","[2.0260000000000673,2.848500000000058,3.5541999999881,3.9643999999761945,5.762800000012021,6.229099999964319,6.762399999976196,7.177599999964286,7.828199999988101]",,,,,,8,75241739,Audio/75241739.mp3,EGNER,0,1,1,1,1,,,,,,,,,,,,,,,,,,,,,,,,,,,,,,,,,,,,,,,,,,,,,,,,,,,,,,,,,,,,,,,,,,,,,,,,,,,,,,,,,,,,
,8845,BCA,22/05/2003,001,2023-10-06_20h53.12.091,OS3_Mult_verification,2022.2.4,Win32,59.98440405,,,,,,,,,,,,,,,,,,,,,,,,,,,,,,,,,,,,,,,,,,,,,,,,,,,,,,,,,,,,,,,,,,,,,,,,,,,,,,,,,,,,,,,,,,,0,6,6,6,1,digitSpan_stim/eightAudio.xlsx,,,,,,,,,,,,,,,,,,,,,,,,,,,,,,,,,,,,,,,,,,,,,,,,,,,,,,,,,,,,,,,,,,,,,,,,,,,,,,
,8845,BCA,22/05/2003,001,2023-10-06_20h53.12.091,OS3_Mult_verification,2022.2.4,Win32,59.98440405,,,,,,,,,,,,,,,,,,,,,,,,,,,,,,,,,,,,,,,,,,,,,,,,,,,,,,,,,,,,,,,,,,,,,,,,682594326,8.307,0,"[""6"",""8"",""2"",""5"",""9"",""4"",""3"",""1"",""6"",""backspace"",""backspace"",""2"",""6"",""return""]","[0.80030000001193,1.365900000035822,1.9702000000477256,2.384200000047713,2.8512000000476974,3.529900000035809,3.9159000000357764,5.215000000000032,5.4479000000358155,6.180800000011914,6.380700000047682,7.245800000011968,7.696400000035851,8.278500000000008]",,,,,,9,682594316,Audio/682594316.mp3,EGNER,0,0,0,0,1,,,,,,,,,,,,,,,,,,,,,,,,,,,,,,,,,,,,,,,,,,,,,,,,,,,,,,,,,,,,,,,,,,,,,,,,,,,,,,,,,,,,
,8845,BCA,22/05/2003,001,2023-10-06_20h53.12.091,OS3_Mult_verification,2022.2.4,Win32,59.98440405,,,,,,,,,,,,,,,,,,,,,,,,,,,,,,,,,,,,,,,,,,,,,,,,,,,,,,,,,,,,,,,,,,,,,,,,14293758,6.2459,0,"[""1"",""4"",""2"",""9"",""3"",""7"",""5"",""8"",""return""]","[1.39910000002385,1.9824000000356818,2.448300000011841,3.03060000002381,3.86360000002378,4.246499999999969,4.879500000000007,5.0966999999880045,6.212600000023826]",,,,,,9,142963758,Audio/142963758.mp3,EGNER,0,1,1,1,1,,,,,,,,,,,,,,,,,,,,,,,,,,,,,,,,,,,,,,,,,,,,,,,,,,,,,,,,,,,,,,,,,,,,,,,,,,,,,,,,,,,,
,8845,BCA,22/05/2003,001,2023-10-06_20h53.12.091,OS3_Mult_verification,2022.2.4,Win32,59.98440405,,,,,,,,,,,,,,,,,,,,,,,,,,,,,,,,,,,,,,,,,,,,,,,,,,,,,,,,,,,,,,,,,,,,,,,,,,,,,,,,,,Egner,,,,,,,,,,,,,,,0,0,0,0,1,digitSpan_stim/Egner.xlsx,,,,,,,,,,,,,,,,,,,,,,,,,,,,,,,,,,,,,,,,,,,,,,,,,,,,,,,,,,,,,,,,,,,,,,,,
,8845,BCA,22/05/2003,001,2023-10-06_20h53.12.091,OS3_Mult_verification,2022.2.4,Win32,59.98440405,,,,,,,,,,,,,,,,,,,,,,,,,,,,,,,,,,,,,,,,,,,,,,,,,,,,,,,,,,,,,,,,,,,,,,,,97,2.5313,1,"[""9"",""7"",""return""]","[1.4165000000000418,1.666099999964331,2.4980000000000473]",,,,,,2,97,Audio/97.mp3,WAIS,0,0,0,0,1,,,,,,,,,,,,,,,,,,,,,,,,,,,,,,,,,,,,,,,,,,,,,,,,,,,,,,,,,,,,,,,,,,,,,,,,,,,,,,,,,,,,
,8845,BCA,22/05/2003,001,2023-10-06_20h53.12.091,OS3_Mult_verification,2022.2.4,Win32,59.98440405,,,,,,,,,,,,,,,,,,,,,,,,,,,,,,,,,,,,,,,,,,,,,,,,,,,,,,,,,,,,,,,,,,,,,,,,63,1.3825,1,"[""6"",""3"",""return""]","[0.5333999999761545,0.8336999999880845,1.350199999988149]",,,,,,2,63,Audio/63.mp3,WAIS,0,1,1,1,1,,,,,,,,,,,,,,,,,,,,,,,,,,,,,,,,,,,,,,,,,,,,,,,,,,,,,,,,,,,,,,,,,,,,,,,,,,,,,,,,,,,,
,8845,BCA,22/05/2003,001,2023-10-06_20h53.12.091,OS3_Mult_verification,2022.2.4,Win32,59.98440405,,,,,,,,,,,,,,,,,,,,,,,,,,,,,,,,,,,,,,,,,,,,,,,,,,,,,,,,,,,,,,,,,,,,,,,,,,,,,,,,,,,,,,,,,,,0,0,0,0,1,digitSpan_stim/twoWAIS.xlsx,,,,,,,,,,,,,,,,,,,,,,,,,,,,,,,,,,,,,,,,,,,,,,,,,,,,,,,,,,,,,,,,,,,,,,,,,,,,,,
,8845,BCA,22/05/2003,001,2023-10-06_20h53.12.091,OS3_Mult_verification,2022.2.4,Win32,59.98440405,,,,,,,,,,,,,,,,,,,,,,,,,,,,,,,,,,,,,,,,,,,,,,,,,,,,,,,,,,,,,,,,,,,,,,,,582,1.7319,1,"[""5"",""8"",""2"",""return""]","[0.3336000000238073,0.8496000000238837,1.2491999999880363,1.698900000035792]",,,,,,3,582,Audio/582.mp3,WAIS,0,0,0,0,1,,,,,,,,,,,,,,,,,,,,,,,,,,,,,,,,,,,,,,,,,,,,,,,,,,,,,,,,,,,,,,,,,,,,,,,,,,,,,,,,,,,,
,8845,BCA,22/05/2003,001,2023-10-06_20h53.12.091,OS3_Mult_verification,2022.2.4,Win32,59.98440405,,,,,,,,,,,,,,,,,,,,,,,,,,,,,,,,,,,,,,,,,,,,,,,,,,,,,,,,,,,,,,,,,,,,,,,,694,2.0698,1,"[""6"",""9"",""4"",""return""]","[0.7990000000000919,1.2156999999881464,1.5983000000119318,2.0316999999881773]",,,,,,3,694,Audio/694.mp3,WAIS,0,1,1,1,1,,,,,,,,,,,,,,,,,,,,,,,,,,,,,,,,,,,,,,,,,,,,,,,,,,,,,,,,,,,,,,,,,,,,,,,,,,,,,,,,,,,,
,8845,BCA,22/05/2003,001,2023-10-06_20h53.12.091,OS3_Mult_verification,2022.2.4,Win32,59.98440405,,,,,,,,,,,,,,,,,,,,,,,,,,,,,,,,,,,,,,,,,,,,,,,,,,,,,,,,,,,,,,,,,,,,,,,,,,,,,,,,,,,,,,,,,,,0,1,1,1,1,digitSpan_stim/threeWAIS.xlsx,,,,,,,,,,,,,,,,,,,,,,,,,,,,,,,,,,,,,,,,,,,,,,,,,,,,,,,,,,,,,,,,,,,,,,,,,,,,,,
,8845,BCA,22/05/2003,001,2023-10-06_20h53.12.091,OS3_Mult_verification,2022.2.4,Win32,59.98440405,,,,,,,,,,,,,,,,,,,,,,,,,,,,,,,,,,,,,,,,,,,,,,,,,,,,,,,,,,,,,,,,,,,,,,,,7286,1.9813,1,"[""7"",""2"",""8"",""6"",""return""]","[0.31660000002386823,0.7666000000239137,1.249600000023861,1.4993999999761627,1.9373999999762646]",,,,,,4,7286,Audio/7286.mp3,WAIS,0,0,0,0,1,,,,,,,,,,,,,,,,,,,,,,,,,,,,,,,,,,,,,,,,,,,,,,,,,,,,,,,,,,,,,,,,,,,,,,,,,,,,,,,,,,,,
,8845,BCA,22/05/2003,001,2023-10-06_20h53.12.091,OS3_Mult_verification,2022.2.4,Win32,59.98440405,,,,,,,,,,,,,,,,,,,,,,,,,,,,,,,,,,,,,,,,,,,,,,,,,,,,,,,,,,,,,,,,,,,,,,,,6439,3.3128,1,"[""6"",""4"",""3"",""9"",""return""]","[1.2987000000476883,1.73290000003567,2.064999999999941,2.4977000000476437,3.280200000047671]",,,,,,4,6439,Audio/6439.mp3,WAIS,0,1,1,1,1,,,,,,,,,,,,,,,,,,,,,,,,,,,,,,,,,,,,,,,,,,,,,,,,,,,,,,,,,,,,,,,,,,,,,,,,,,,,,,,,,,,,
,8845,BCA,22/05/2003,001,2023-10-06_20h53.12.091,OS3_Mult_verification,2022.2.4,Win32,59.98440405,,,,,,,,,,,,,,,,,,,,,,,,,,,,,,,,,,,,,,,,,,,,,,,,,,,,,,,,,,,,,,,,,,,,,,,,,,,,,,,,,,,,,,,,,,,0,2,2,2,1,digitSpan_stim/fourWAIS.xlsx,,,,,,,,,,,,,,,,,,,,,,,,,,,,,,,,,,,,,,,,,,,,,,,,,,,,,,,,,,,,,,,,,,,,,,,,,,,,,,
,8845,BCA,22/05/2003,001,2023-10-06_20h53.12.091,OS3_Mult_verification,2022.2.4,Win32,59.98440405,,,,,,,,,,,,,,,,,,,,,,,,,,,,,,,,,,,,,,,,,,,,,,,,,,,,,,,,,,,,,,,,,,,,,,,,42731,4.7455,1,"[""4"",""2"",""7"",""3"",""1"",""return""]","[2.2493000000118855,2.798600000023839,3.5696999999880745,3.8983000000118864,4.180800000011914,4.713400000035676]",,,,,,5,42731,Audio/42731.mp3,WAIS,0,0,0,0,1,,,,,,,,,,,,,,,,,,,,,,,,,,,,,,,,,,,,,,,,,,,,,,,,,,,,,,,,,,,,,,,,,,,,,,,,,,,,,,,,,,,,
,8845,BCA,22/05/2003,001,2023-10-06_20h53.12.091,OS3_Mult_verification,2022.2.4,Win32,59.98440405,,,,,,,,,,,,,,,,,,,,,,,,,,,,,,,,,,,,,,,,,,,,,,,,,,,,,,,,,,,,,,,,,,,,,,,,75836,3.231,1,"[""7"",""5"",""8"",""3"",""6"",""return""]","[1.2663000000119382,1.5165999999642281,1.83689999997614,2.1725000000000136,2.498699999988048,3.197599999964268]",,,,,,5,75836,Audio/75836.mp3,WAIS,0,1,1,1,1,,,,,,,,,,,,,,,,,,,,,,,,,,,,,,,,,,,,,,,,,,,,,,,,,,,,,,,,,,,,,,,,,,,,,,,,,,,,,,,,,,,,
,8845,BCA,22/05/2003,001,2023-10-06_20h53.12.091,OS3_Mult_verification,2022.2.4,Win32,59.98440405,,,,,,,,,,,,,,,,,,,,,,,,,,,,,,,,,,,,,,,,,,,,,,,,,,,,,,,,,,,,,,,,,,,,,,,,,,,,,,,,,,,,,,,,,,,0,3,3,3,1,digitSpan_stim/fiveWAIS.xlsx,,,,,,,,,,,,,,,,,,,,,,,,,,,,,,,,,,,,,,,,,,,,,,,,,,,,,,,,,,,,,,,,,,,,,,,,,,,,,,
,8845,BCA,22/05/2003,001,2023-10-06_20h53.12.091,OS3_Mult_verification,2022.2.4,Win32,59.98440405,,,,,,,,,,,,,,,,,,,,,,,,,,,,,,,,,,,,,,,,,,,,,,,,,,,,,,,,,,,,,,,,,,,,,,,,392439,10.6945,0,"[""3"",""9"",""2"",""4"",""3"",""4"",""8"",""backspace"",""backspace"",""backspace"",""3"",""9"",""return""]","[1.066500000000019,1.7986999999881164,2.365000000000009,2.6311000000239346,3.0371000000238837,4.096699999988118,4.5625,5.229000000000042,5.462300000011965,5.678800000011961,8.959400000035771,9.775800000011941,10.658900000035828]",,,,,,6,392487,Audio/392487.mp3,WAIS,0,0,0,0,1,,,,,,,,,,,,,,,,,,,,,,,,,,,,,,,,,,,,,,,,,,,,,,,,,,,,,,,,,,,,,,,,,,,,,,,,,,,,,,,,,,,,
,8845,BCA,22/05/2003,001,2023-10-06_20h53.12.091,OS3_Mult_verification,2022.2.4,Win32,59.98440405,,,,,,,,,,,,,,,,,,,,,,,,,,,,,,,,,,,,,,,,,,,,,,,,,,,,,,,,,,,,,,,,,,,,,,,,619473,4.7123,1,"[""6"",""1"",""9"",""4"",""7"",""3"",""return""]","[1.3496999999880472,1.7487999999523254,2.3812999999522617,3.0320999999642027,3.780799999952251,4.063899999976115,4.67999999999995]",,,,,,6,619473,Audio/619473.mp3,WAIS,0,1,1,1,1,,,,,,,,,,,,,,,,,,,,,,,,,,,,,,,,,,,,,,,,,,,,,,,,,,,,,,,,,,,,,,,,,,,,,,,,,,,,,,,,,,,,
,8845,BCA,22/05/2003,001,2023-10-06_20h53.12.091,OS3_Mult_verification,2022.2.4,Win32,59.98440405,,,,,,,,,,,,,,,,,,,,,,,,,,,,,,,,,,,,,,,,,,,,,,,,,,,,,,,,,,,,,,,,,,,,,,,,,,,,,,,,,,,,,,,,,,,0,4,4,4,1,digitSpan_stim/sixWAIS.xlsx,,,,,,,,,,,,,,,,,,,,,,,,,,,,,,,,,,,,,,,,,,,,,,,,,,,,,,,,,,,,,,,,,,,,,,,,,,,,,,
,8845,BCA,22/05/2003,001,2023-10-06_20h53.12.091,OS3_Mult_verification,2022.2.4,Win32,59.98440405,,,,,,,,,,,,,,,,,,,,,,,,,,,,,,,,,,,,,,,,,,,,,,,,,,,,,,,,,,,,,,,,,,,,,,,,6917428,6.2614,1,"[""6"",""9"",""1"",""7"",""4"",""2"",""8"",""return""]","[1.8153999999761936,2.4318000000120037,2.9813999999762473,3.4980999999643245,4.048199999988128,4.480500000000006,4.996500000000083,6.2283999999762045]",,,,,,7,6917428,Audio/6917428.mp3,WAIS,0,0,0,0,1,,,,,,,,,,,,,,,,,,,,,,,,,,,,,,,,,,,,,,,,,,,,,,,,,,,,,,,,,,,,,,,,,,,,,,,,,,,,,,,,,,,,
,8845,BCA,22/05/2003,001,2023-10-06_20h53.12.091,OS3_Mult_verification,2022.2.4,Win32,59.98440405,,,,,,,,,,,,,,,,,,,,,,,,,,,,,,,,,,,,,,,,,,,,,,,,,,,,,,,,,,,,,,,,,,,,,,,,4179386,4.8625,1,"[""4"",""1"",""7"",""9"",""3"",""8"",""6"",""return""]","[1.3665999999642509,1.6593000000118536,2.1661999999880663,2.4700000000000273,3.01219999998807,3.68100000000004,4.080599999964193,4.830699999988042]",,,,,,7,4179386,Audio/4179386.mp3,WAIS,0,1,1,1,1,,,,,,,,,,,,,,,,,,,,,,,,,,,,,,,,,,,,,,,,,,,,,,,,,,,,,,,,,,,,,,,,,,,,,,,,,,,,,,,,,,,,
,8845,BCA,22/05/2003,001,2023-10-06_20h53.12.091,OS3_Mult_verification,2022.2.4,Win32,59.98440405,,,,,,,,,,,,,,,,,,,,,,,,,,,,,,,,,,,,,,,,,,,,,,,,,,,,,,,,,,,,,,,,,,,,,,,,,,,,,,,,,,,,,,,,,,,0,5,5,5,1,digitSpan_stim/sevenWAIS.xlsx,,,,,,,,,,,,,,,,,,,,,,,,,,,,,,,,,,,,,,,,,,,,,,,,,,,,,,,,,,,,,,,,,,,,,,,,,,,,,,
,8845,BCA,22/05/2003,001,2023-10-06_20h53.12.091,OS3_Mult_verification,2022.2.4,Win32,59.98440405,,,,,,,,,,,,,,,,,,,,,,,,,,,,,,,,,,,,,,,,,,,,,,,,,,,,,,,,,,,,,,,,,,,,,,,,38296174,7.144,1,"[""3"",""8"",""2"",""9"",""6"",""1"",""7"",""4"",""return""]","[3.1636999999881255,3.6461999999880845,4.0631999999881145,4.562000000000012,4.995400000035829,5.578199999988101,6.0434999999999945,6.39440000003583,7.110100000023863]",,,,,,8,38296174,Audio/38296174.mp3,WAIS,0,0,0,0,1,,,,,,,,,,,,,,,,,,,,,,,,,,,,,,,,,,,,,,,,,,,,,,,,,,,,,,,,,,,,,,,,,,,,,,,,,,,,,,,,,,,,
,8845,BCA,22/05/2003,001,2023-10-06_20h53.12.091,OS3_Mult_verification,2022.2.4,Win32,59.98440405,,,,,,,,,,,,,,,,,,,,,,,,,,,,,,,,,,,,,,,,,,,,,,,,,,,,,,,,,,,,,,,,,,,,,,,,58196147,9.5942,0,"[""5"",""8"",""1"",""9"",""6"",""1"",""7"",""backspace"",""4"",""7"",""return""]","[1.7654000000359247,2.6317000000476582,3.048100000023851,3.49630000001207,3.9642000000478674,4.613600000024007,5.596600000023955,7.944800000012037,8.748900000035746,9.093500000000176,9.55970000004777]",,,,,,8,58132647,Audio/58132647.mp3,WAIS,0,1,1,1,1,,,,,,,,,,,,,,,,,,,,,,,,,,,,,,,,,,,,,,,,,,,,,,,,,,,,,,,,,,,,,,,,,,,,,,,,,,,,,,,,,,,,
,8845,BCA,22/05/2003,001,2023-10-06_20h53.12.091,OS3_Mult_verification,2022.2.4,Win32,59.98440405,,,,,,,,,,,,,,,,,,,,,,,,,,,,,,,,,,,,,,,,,,,,,,,,,,,,,,,,,,,,,,,,,,,,,,,,,,,,,,,,,,,,,,,,,,,0,6,6,6,1,digitSpan_stim/eightWAIS.xlsx,,,,,,,,,,,,,,,,,,,,,,,,,,,,,,,,,,,,,,,,,,,,,,,,,,,,,,,,,,,,,,,,,,,,,,,,,,,,,,
,8845,BCA,22/05/2003,001,2023-10-06_20h53.12.091,OS3_Mult_verification,2022.2.4,Win32,59.98440405,,,,,,,,,,,,,,,,,,,,,,,,,,,,,,,,,,,,,,,,,,,,,,,,,,,,,,,,,,,,,,,,,,,,,,,,27586314,7.0273,0,"[""2"",""7"",""5"",""8"",""6"",""3"",""1"",""5"",""backspace"",""4"",""return""]","[0.9828000000120483,1.7993000000119537,2.4479000000358155,2.9143000000119628,3.3810000000000855,3.79740000003585,4.263600000023871,5.079800000012028,5.6123000000120555,6.045600000023796,6.995499999999993]",,,,,,9,275863194,Audio/275863194.mp3,WAIS,0,0,0,0,1,,,,,,,,,,,,,,,,,,,,,,,,,,,,,,,,,,,,,,,,,,,,,,,,,,,,,,,,,,,,,,,,,,,,,,,,,,,,,,,,,,,,
,8845,BCA,22/05/2003,001,2023-10-06_20h53.12.091,OS3_Mult_verification,2022.2.4,Win32,59.98440405,,,,,,,,,,,,,,,,,,,,,,,,,,,,,,,,,,,,,,,,,,,,,,,,,,,,,,,,,,,,,,,,,,,,,,,,715439268,9.5262,0,"[""7"",""1"",""5"",""4"",""3"",""9"",""2"",""6"",""8"",""return""]","[5.19609999996419,5.678199999988237,6.762399999976196,7.003899999976284,7.327099999964275,7.7610999999642445,8.26219999998807,8.810199999988072,9.067800000012085,9.492300000011937]",,,,,,9,713942568,Audio/713942568.mp3,WAIS,0,1,1,1,1,,,,,,,,,,,,,,,,,,,,,,,,,,,,,,,,,,,,,,,,,,,,,,,,,,,,,,,,,,,,,,,,,,,,,,,,,,,,,,,,,,,,
,8845,BCA,22/05/2003,001,2023-10-06_20h53.12.091,OS3_Mult_verification,2022.2.4,Win32,59.98440405,,,,,,,,,,,,,,,,,,,,,,,,,,,,,,,,,,,,,,,,,,,,,,,,,,,,,,,,,,,,,,,,,,,,,,,,,,,,,,,,,,WAIS,,,,,,,,,,,,,,,0,1,1,1,1,digitSpan_stim/WAIS.xlsx,,,,,,,,,,,,,,,,,,,,,,,,,,,,,,,,,,,,,,,,,,,,,,,,,,,,,,,,,,,,,,,,,,,,,,,,
,8845,BCA,22/05/2003,001,2023-10-06_20h53.12.091,OS3_Mult_verification,2022.2.4,Win32,59.98440405,,,,,,,,,,,,,,,,,,,,,,,,,,,,,,,,,,,,,,,,,,,,,,,,,,,,,,,,,,,,,,,,,,,,,,,,,,,,,,,,,,,,,,,,,,,,,,,,,,,,,,,0,0,0,0,1,,,,,,,,,,,,,,,,,,,,,,,,,,,,,,,,,,,,,,,,,,,,,,,,,,,,,,,,,,,,,,,,,,,
,8845,BCA,22/05/2003,001,2023-10-06_20h53.12.091,OS3_Mult_verification,2022.2.4,Win32,59.98440405,,,,,,,,,,,,,,,,,,,,,,,,,,,,,,,,,,,,,,,,,,,,,,,,,,,,,,,,,,,,,,0,1,1,1,1,0,0,1,,,,,,,,,,,,,,,,,,,,,,,,,,,,,,,,,,,,,,,,,,,,,,,,,,,,,,,,,,,,,,,,,,,,,,,,,,,,,,,,,,,,,,,,,,,,,,,,,,,,,,,,,
,8845,BCA,22/05/2003,001,2023-10-06_20h53.12.091,OS3_Mult_verification,2022.2.4,Win32,59.98440405,,,,,,,,,,,,,,,,space,0.9656,,,,,,,,,,,,,,,,,,,,,,,,,,,,,,,,,,,,,,,,,,,,,,,,,,,,,,,,,,,,,,,,,,,,,,,,,,,,,,,,,,,,,,,,,,,right,1,0.8928,0,0,0,2,1,practice,9,9,9 | 9,0,0.05,0.065,neutral,right,,,,,,,,,,,,,,,,,,,,,,,,,,,,,,,,,,,,,,,,,,,,,,,,,,
,8845,BCA,22/05/2003,001,2023-10-06_20h53.12.091,OS3_Mult_verification,2022.2.4,Win32,59.98440405,,,,,,,,,,,,,,,,,,,,,,,,,,,,,,,,,,,,,,,,,,,,,,,,,,,,,,,,,,,,,,,,,,,,,,,,,,,,,,,,,,,,,,,,,,,,,,,,,,,,,,,,,,,,right,1,0.665,0,1,1,1,1,practice,4,3,4 | 3,1,0.05,0.065,incongruent,right,,,,,,,,,,,,,,,,,,,,,,,,,,,,,,,,,,,,,,,,,,,,,,,,,,
,8845,BCA,22/05/2003,001,2023-10-06_20h53.12.091,OS3_Mult_verification,2022.2.4,Win32,59.98440405,,,,,,,,,,,,,,,,,,,,,,,,,,,,,,,,,,,,,,,,,,,,,,,,,,,,,,,,,,,,,,,,,,,,,,,,,,,,,,,,,,,,,,,,,,,,,,,,,,,,,,,,,,,,left,1,0.5673,0,2,2,0,1,practice,9,8,9 | 8,1,0.065,0.05,congruent,left,,,,,,,,,,,,,,,,,,,,,,,,,,,,,,,,,,,,,,,,,,,,,,,,,,
,8845,BCA,22/05/2003,001,2023-10-06_20h53.12.091,OS3_Mult_verification,2022.2.4,Win32,59.98440405,,,,,,,,,,,,,,,,,,,,,,,,,,,,,,,,,,,,,,,,,,,,,,,,,,,,,,,,,,,,,,,,,,,,,,,,,,,,,,,,,,,,,,,,,,,,,,,,,,,,,,,,,,,,left,1,0.8219,,,,,,physical,1,3,1 | 3,2,0.065,0.05,incongruent,left,0,0,0,32,1,,,,,,,,,,,,,,,,,,,,,,,,,,,,,,,,,,,,,,,,,,,,,
,8845,BCA,22/05/2003,001,2023-10-06_20h53.12.091,OS3_Mult_verification,2022.2.4,Win32,59.98440405,,,,,,,,,,,,,,,,,,,,,,,,,,,,,,,,,,,,,,,,,,,,,,,,,,,,,,,,,,,,,,,,,,,,,,,,,,,,,,,,,,,,,,,,,,,,,,,,,,,,,,,,,,,,right,1,0.5469,,,,,,physical,9,7,9 | 7,2,0.05,0.065,incongruent,right,0,1,1,39,1,,,,,,,,,,,,,,,,,,,,,,,,,,,,,,,,,,,,,,,,,,,,,
,8845,BCA,22/05/2003,001,2023-10-06_20h53.12.091,OS3_Mult_verification,2022.2.4,Win32,59.98440405,,,,,,,,,,,,,,,,,,,,,,,,,,,,,,,,,,,,,,,,,,,,,,,,,,,,,,,,,,,,,,,,,,,,,,,,,,,,,,,,,,,,,,,,,,,,,,,,,,,,,,,,,,,,right,1,0.6554,,,,,,physical,8,6,8 | 6,2,0.05,0.065,incongruent,right,0,2,2,38,1,,,,,,,,,,,,,,,,,,,,,,,,,,,,,,,,,,,,,,,,,,,,,
,8845,BCA,22/05/2003,001,2023-10-06_20h53.12.091,OS3_Mult_verification,2022.2.4,Win32,59.98440405,,,,,,,,,,,,,,,,,,,,,,,,,,,,,,,,,,,,,,,,,,,,,,,,,,,,,,,,,,,,,,,,,,,,,,,,,,,,,,,,,,,,,,,,,,,,,,,,,,,,,,,,,,,,left,1,0.5294,,,,,,physical,6,1,6 | 1,5,0.065,0.05,congruent,left,0,3,3,20,1,,,,,,,,,,,,,,,,,,,,,,,,,,,,,,,,,,,,,,,,,,,,,
,8845,BCA,22/05/2003,001,2023-10-06_20h53.12.091,OS3_Mult_verification,2022.2.4,Win32,59.98440405,,,,,,,,,,,,,,,,,,,,,,,,,,,,,,,,,,,,,,,,,,,,,,,,,,,,,,,,,,,,,,,,,,,,,,,,,,,,,,,,,,,,,,,,,,,,,,,,,,,,,,,,,,,,left,1,0.5384,,,,,,physical,2,1,2 | 1,1,0.065,0.05,congruent,left,0,4,4,4,1,,,,,,,,,,,,,,,,,,,,,,,,,,,,,,,,,,,,,,,,,,,,,
,8845,BCA,22/05/2003,001,2023-10-06_20h53.12.091,OS3_Mult_verification,2022.2.4,Win32,59.98440405,,,,,,,,,,,,,,,,,,,,,,,,,,,,,,,,,,,,,,,,,,,,,,,,,,,,,,,,,,,,,,,,,,,,,,,,,,,,,,,,,,,,,,,,,,,,,,,,,,,,,,,,,,,,left,1,0.5885,,,,,,physical,3,3,3 | 3,0,0.065,0.05,neutral,left,0,5,5,66,1,,,,,,,,,,,,,,,,,,,,,,,,,,,,,,,,,,,,,,,,,,,,,
,8845,BCA,22/05/2003,001,2023-10-06_20h53.12.091,OS3_Mult_verification,2022.2.4,Win32,59.98440405,,,,,,,,,,,,,,,,,,,,,,,,,,,,,,,,,,,,,,,,,,,,,,,,,,,,,,,,,,,,,,,,,,,,,,,,,,,,,,,,,,,,,,,,,,,,,,,,,,,,,,,,,,,,left,1,0.5826,,,,,,physical,8,6,8 | 6,2,0.065,0.05,congruent,left,0,6,6,14,1,,,,,,,,,,,,,,,,,,,,,,,,,,,,,,,,,,,,,,,,,,,,,
,8845,BCA,22/05/2003,001,2023-10-06_20h53.12.091,OS3_Mult_verification,2022.2.4,Win32,59.98440405,,,,,,,,,,,,,,,,,,,,,,,,,,,,,,,,,,,,,,,,,,,,,,,,,,,,,,,,,,,,,,,,,,,,,,,,,,,,,,,,,,,,,,,,,,,,,,,,,,,,,,,,,,,,left,1,0.6318,,,,,,physical,1,6,1 | 6,5,0.065,0.05,incongruent,left,0,7,7,40,1,,,,,,,,,,,,,,,,,,,,,,,,,,,,,,,,,,,,,,,,,,,,,
,8845,BCA,22/05/2003,001,2023-10-06_20h53.12.091,OS3_Mult_verification,2022.2.4,Win32,59.98440405,,,,,,,,,,,,,,,,,,,,,,,,,,,,,,,,,,,,,,,,,,,,,,,,,,,,,,,,,,,,,,,,,,,,,,,,,,,,,,,,,,,,,,,,,,,,,,,,,,,,,,,,,,,,right,1,0.5366,,,,,,physical,8,8,8 | 8,0,0.05,0.065,neutral,right,0,8,8,62,1,,,,,,,,,,,,,,,,,,,,,,,,,,,,,,,,,,,,,,,,,,,,,
,8845,BCA,22/05/2003,001,2023-10-06_20h53.12.091,OS3_Mult_verification,2022.2.4,Win32,59.98440405,,,,,,,,,,,,,,,,,,,,,,,,,,,,,,,,,,,,,,,,,,,,,,,,,,,,,,,,,,,,,,,,,,,,,,,,,,,,,,,,,,,,,,,,,,,,,,,,,,,,,,,,,,,,left,1,0.4899,,,,,,physical,3,4,3 | 4,1,0.065,0.05,incongruent,left,0,9,9,25,1,,,,,,,,,,,,,,,,,,,,,,,,,,,,,,,,,,,,,,,,,,,,,
,8845,BCA,22/05/2003,001,2023-10-06_20h53.12.091,OS3_Mult_verification,2022.2.4,Win32,59.98440405,,,,,,,,,,,,,,,,,,,,,,,,,,,,,,,,,,,,,,,,,,,,,,,,,,,,,,,,,,,,,,,,,,,,,,,,,,,,,,,,,,,,,,,,,,,,,,,,,,,,,,,,,,,,left,1,0.5996,,,,,,physical,9,4,9 | 4,5,0.065,0.05,congruent,left,0,10,10,23,1,,,,,,,,,,,,,,,,,,,,,,,,,,,,,,,,,,,,,,,,,,,,,
,8845,BCA,22/05/2003,001,2023-10-06_20h53.12.091,OS3_Mult_verification,2022.2.4,Win32,59.98440405,,,,,,,,,,,,,,,,,,,,,,,,,,,,,,,,,,,,,,,,,,,,,,,,,,,,,,,,,,,,,,,,,,,,,,,,,,,,,,,,,,,,,,,,,,,,,,,,,,,,,,,,,,,,right,1,0.5641,,,,,,physical,9,9,9 | 9,0,0.05,0.065,neutral,right,0,11,11,63,1,,,,,,,,,,,,,,,,,,,,,,,,,,,,,,,,,,,,,,,,,,,,,
,8845,BCA,22/05/2003,001,2023-10-06_20h53.12.091,OS3_Mult_verification,2022.2.4,Win32,59.98440405,,,,,,,,,,,,,,,,,,,,,,,,,,,,,,,,,,,,,,,,,,,,,,,,,,,,,,,,,,,,,,,,,,,,,,,,,,,,,,,,,,,,,,,,,,,,,,,,,,,,,,,,,,,,right,1,0.6638,,,,,,physical,7,2,7 | 2,5,0.05,0.065,incongruent,right,0,12,12,45,1,,,,,,,,,,,,,,,,,,,,,,,,,,,,,,,,,,,,,,,,,,,,,
,8845,BCA,22/05/2003,001,2023-10-06_20h53.12.091,OS3_Mult_verification,2022.2.4,Win32,59.98440405,,,,,,,,,,,,,,,,,,,,,,,,,,,,,,,,,,,,,,,,,,,,,,,,,,,,,,,,,,,,,,,,,,,,,,,,,,,,,,,,,,,,,,,,,,,,,,,,,,,,,,,,,,,,left,1,0.5972,,,,,,physical,6,8,6 | 8,2,0.065,0.05,incongruent,left,0,13,13,34,1,,,,,,,,,,,,,,,,,,,,,,,,,,,,,,,,,,,,,,,,,,,,,
,8845,BCA,22/05/2003,001,2023-10-06_20h53.12.091,OS3_Mult_verification,2022.2.4,Win32,59.98440405,,,,,,,,,,,,,,,,,,,,,,,,,,,,,,,,,,,,,,,,,,,,,,,,,,,,,,,,,,,,,,,,,,,,,,,,,,,,,,,,,,,,,,,,,,,,,,,,,,,,,,,,,,,,left,1,1.2578,,,,,,physical,8,9,8 | 9,1,0.065,0.05,incongruent,left,0,14,14,27,1,,,,,,,,,,,,,,,,,,,,,,,,,,,,,,,,,,,,,,,,,,,,,
,8845,BCA,22/05/2003,001,2023-10-06_20h53.12.091,OS3_Mult_verification,2022.2.4,Win32,59.98440405,,,,,,,,,,,,,,,,,,,,,,,,,,,,,,,,,,,,,,,,,,,,,,,,,,,,,,,,,,,,,,,,,,,,,,,,,,,,,,,,,,,,,,,,,,,,,,,,,,,,,,,,,,,,right,1,0.5473,,,,,,physical,2,4,2 | 4,2,0.05,0.065,congruent,right,0,15,15,9,1,,,,,,,,,,,,,,,,,,,,,,,,,,,,,,,,,,,,,,,,,,,,,
,8845,BCA,22/05/2003,001,2023-10-06_20h53.12.091,OS3_Mult_verification,2022.2.4,Win32,59.98440405,,,,,,,,,,,,,,,,,,,,,,,,,,,,,,,,,,,,,,,,,,,,,,,,,,,,,,,,,,,,,,,,,,,,,,,,,,,,,,,,,,,,,,,,,,,,,,,,,,,,,,,,,,,,left,1,0.4953,,,,,,physical,1,2,1 | 2,1,0.065,0.05,incongruent,left,0,16,16,24,1,,,,,,,,,,,,,,,,,,,,,,,,,,,,,,,,,,,,,,,,,,,,,
,8845,BCA,22/05/2003,001,2023-10-06_20h53.12.091,OS3_Mult_verification,2022.2.4,Win32,59.98440405,,,,,,,,,,,,,,,,,,,,,,,,,,,,,,,,,,,,,,,,,,,,,,,,,,,,,,,,,,,,,,,,,,,,,,,,,,,,,,,,,,,,,,,,,,,,,,,,,,,,,,,,,,,,left,1,0.6392,,,,,,physical,9,8,9 | 8,1,0.065,0.05,congruent,left,0,17,17,7,1,,,,,,,,,,,,,,,,,,,,,,,,,,,,,,,,,,,,,,,,,,,,,
,8845,BCA,22/05/2003,001,2023-10-06_20h53.12.091,OS3_Mult_verification,2022.2.4,Win32,59.98440405,,,,,,,,,,,,,,,,,,,,,,,,,,,,,,,,,,,,,,,,,,,,,,,,,,,,,,,,,,,,,,,,,,,,,,,,,,,,,,,,,,,,,,,,,,,,,,,,,,,,,,,,,,,,left,1,0.6216,,,,,,physical,4,2,4 | 2,2,0.065,0.05,congruent,left,0,18,18,13,1,,,,,,,,,,,,,,,,,,,,,,,,,,,,,,,,,,,,,,,,,,,,,
,8845,BCA,22/05/2003,001,2023-10-06_20h53.12.091,OS3_Mult_verification,2022.2.4,Win32,59.98440405,,,,,,,,,,,,,,,,,,,,,,,,,,,,,,,,,,,,,,,,,,,,,,,,,,,,,,,,,,,,,,,,,,,,,,,,,,,,,,,,,,,,,,,,,,,,,,,,,,,,,,,,,,,,left,1,0.5844,,,,,,physical,1,1,1 | 1,0,0.065,0.05,neutral,left,0,19,19,48,1,,,,,,,,,,,,,,,,,,,,,,,,,,,,,,,,,,,,,,,,,,,,,
,8845,BCA,22/05/2003,001,2023-10-06_20h53.12.091,OS3_Mult_verification,2022.2.4,Win32,59.98440405,,,,,,,,,,,,,,,,,,,,,,,,,,,,,,,,,,,,,,,,,,,,,,,,,,,,,,,,,,,,,,,,,,,,,,,,,,,,,,,,,,,,,,,,,,,,,,,,,,,,,,,,,,,,left,1,0.5744,,,,,,physical,9,9,9 | 9,0,0.065,0.05,neutral,left,0,20,20,55,1,,,,,,,,,,,,,,,,,,,,,,,,,,,,,,,,,,,,,,,,,,,,,
,8845,BCA,22/05/2003,001,2023-10-06_20h53.12.091,OS3_Mult_verification,2022.2.4,Win32,59.98440405,,,,,,,,,,,,,,,,,,,,,,,,,,,,,,,,,,,,,,,,,,,,,,,,,,,,,,,,,,,,,,,,,,,,,,,,,,,,,,,,,,,,,,,,,,,,,,,,,,,,,,,,,,,,left,1,0.5679,,,,,,physical,3,3,3 | 3,0,0.065,0.05,neutral,left,0,21,21,49,1,,,,,,,,,,,,,,,,,,,,,,,,,,,,,,,,,,,,,,,,,,,,,
,8845,BCA,22/05/2003,001,2023-10-06_20h53.12.091,OS3_Mult_verification,2022.2.4,Win32,59.98440405,,,,,,,,,,,,,,,,,,,,,,,,,,,,,,,,,,,,,,,,,,,,,,,,,,,,,,,,,,,,,,,,,,,,,,,,,,,,,,,,,,,,,,,,,,,,,,,,,,,,,,,,,,,,right,1,0.5668,,,,,,physical,1,1,1 | 1,0,0.05,0.065,neutral,right,0,22,22,56,1,,,,,,,,,,,,,,,,,,,,,,,,,,,,,,,,,,,,,,,,,,,,,
,8845,BCA,22/05/2003,001,2023-10-06_20h53.12.091,OS3_Mult_verification,2022.2.4,Win32,59.98440405,,,,,,,,,,,,,,,,,,,,,,,,,,,,,,,,,,,,,,,,,,,,,,,,,,,,,,,,,,,,,,,,,,,,,,,,,,,,,,,,,,,,,,,,,,,,,,,,,,,,,,,,,,,,right,1,0.5139,,,,,,physical,3,3,3 | 3,0,0.05,0.065,neutral,right,0,23,23,60,1,,,,,,,,,,,,,,,,,,,,,,,,,,,,,,,,,,,,,,,,,,,,,
,8845,BCA,22/05/2003,001,2023-10-06_20h53.12.091,OS3_Mult_verification,2022.2.4,Win32,59.98440405,,,,,,,,,,,,,,,,,,,,,,,,,,,,,,,,,,,,,,,,,,,,,,,,,,,,,,,,,,,,,,,,,,,,,,,,,,,,,,,,,,,,,,,,,,,,,,,,,,,,,,,,,,,,left,1,0.5551,,,,,,physical,7,7,7 | 7,0,0.065,0.05,neutral,left,0,24,24,54,1,,,,,,,,,,,,,,,,,,,,,,,,,,,,,,,,,,,,,,,,,,,,,
,8845,BCA,22/05/2003,001,2023-10-06_20h53.12.091,OS3_Mult_verification,2022.2.4,Win32,59.98440405,,,,,,,,,,,,,,,,,,,,,,,,,,,,,,,,,,,,,,,,,,,,,,,,,,,,,,,,,,,,,,,,,,,,,,,,,,,,,,,,,,,,,,,,,,,,,,,,,,,,,,,,,,,,right,1,0.5516,,,,,,physical,8,3,8 | 3,5,0.05,0.065,incongruent,right,0,25,25,46,1,,,,,,,,,,,,,,,,,,,,,,,,,,,,,,,,,,,,,,,,,,,,,
,8845,BCA,22/05/2003,001,2023-10-06_20h53.12.091,OS3_Mult_verification,2022.2.4,Win32,59.98440405,,,,,,,,,,,,,,,,,,,,,,,,,,,,,,,,,,,,,,,,,,,,,,,,,,,,,,,,,,,,,,,,,,,,,,,,,,,,,,,,,,,,,,,,,,,,,,,,,,,,,,,,,,,,right,1,1.9946,,,,,,physical,7,9,7 | 9,2,0.05,0.065,congruent,right,0,26,26,11,1,,,,,,,,,,,,,,,,,,,,,,,,,,,,,,,,,,,,,,,,,,,,,
,8845,BCA,22/05/2003,001,2023-10-06_20h53.12.091,OS3_Mult_verification,2022.2.4,Win32,59.98440405,,,,,,,,,,,,,,,,,,,,,,,,,,,,,,,,,,,,,,,,,,,,,,,,,,,,,,,,,,,,,,,,,,,,,,,,,,,,,,,,,,,,,,,,,,,,,,,,,,,,,,,,,,,,right,1,0.6461,,,,,,physical,8,9,8 | 9,1,0.05,0.065,congruent,right,0,27,27,3,1,,,,,,,,,,,,,,,,,,,,,,,,,,,,,,,,,,,,,,,,,,,,,
,8845,BCA,22/05/2003,001,2023-10-06_20h53.12.091,OS3_Mult_verification,2022.2.4,Win32,59.98440405,,,,,,,,,,,,,,,,,,,,,,,,,,,,,,,,,,,,,,,,,,,,,,,,,,,,,,,,,,,,,,,,,,,,,,,,,,,,,,,,,,,,,,,,,,,,,,,,,,,,,,,,,,,,right,1,0.6971,,,,,,physical,3,1,3 | 1,2,0.05,0.065,incongruent,right,0,28,28,36,1,,,,,,,,,,,,,,,,,,,,,,,,,,,,,,,,,,,,,,,,,,,,,
,8845,BCA,22/05/2003,001,2023-10-06_20h53.12.091,OS3_Mult_verification,2022.2.4,Win32,59.98440405,,,,,,,,,,,,,,,,,,,,,,,,,,,,,,,,,,,,,,,,,,,,,,,,,,,,,,,,,,,,,,,,,,,,,,,,,,,,,,,,,,,,,,,,,,,,,,,,,,,,,,,,,,,,left,1,0.5738,,,,,,physical,6,6,6 | 6,0,0.065,0.05,neutral,left,0,29,29,50,1,,,,,,,,,,,,,,,,,,,,,,,,,,,,,,,,,,,,,,,,,,,,,
,8845,BCA,22/05/2003,001,2023-10-06_20h53.12.091,OS3_Mult_verification,2022.2.4,Win32,59.98440405,,,,,,,,,,,,,,,,,,,,,,,,,,,,,,,,,,,,,,,,,,,,,,,,,,,,,,,,,,,,,,,,,,,,,,,,,,,,,,,,,,,,,,,,,,,,,,,,,,,,,,,,,,,,left,1,1.7144,,,,,,physical,7,9,7 | 9,2,0.065,0.05,incongruent,left,0,30,30,35,1,,,,,,,,,,,,,,,,,,,,,,,,,,,,,,,,,,,,,,,,,,,,,
,8845,BCA,22/05/2003,001,2023-10-06_20h53.12.091,OS3_Mult_verification,2022.2.4,Win32,59.98440405,,,,,,,,,,,,,,,,,,,,,,,,,,,,,,,,,,,,,,,,,,,,,,,,,,,,,,,,,,,,,,,,,,,,,,,,,,,,,,,,,,,,,,,,,,,,,,,,,,,,,,,,,,,,right,1,0.7545,,,,,,physical,9,4,9 | 4,5,0.05,0.065,incongruent,right,0,31,31,47,1,,,,,,,,,,,,,,,,,,,,,,,,,,,,,,,,,,,,,,,,,,,,,
,8845,BCA,22/05/2003,001,2023-10-06_20h53.12.091,OS3_Mult_verification,2022.2.4,Win32,59.98440405,,,,,,,,,,,,,,,,,,,,,,,,,,,,,,,,,,,,,,,,,,,,,,,,,,,,,,,,,,,,,,,,,,,,,,,,,,,,,,,,,,,,,,,,,,,,,,,,,,,,,,,,,,,,right,1,0.7323,,,,,,physical,2,2,2 | 2,0,0.05,0.065,neutral,right,0,32,32,65,1,,,,,,,,,,,,,,,,,,,,,,,,,,,,,,,,,,,,,,,,,,,,,
,8845,BCA,22/05/2003,001,2023-10-06_20h53.12.091,OS3_Mult_verification,2022.2.4,Win32,59.98440405,,,,,,,,,,,,,,,,,,,,,,,,,,,,,,,,,,,,,,,,,,,,,,,,,,,,,,,,,,,,,,,,,,,,,,,,,,,,,,,,,,,,,,,,,,,,,,,,,,,,,,,,,,,,left,1,0.6292,,,,,,physical,2,2,2 | 2,0,0.065,0.05,neutral,left,0,33,33,52,1,,,,,,,,,,,,,,,,,,,,,,,,,,,,,,,,,,,,,,,,,,,,,
,8845,BCA,22/05/2003,001,2023-10-06_20h53.12.091,OS3_Mult_verification,2022.2.4,Win32,59.98440405,,,,,,,,,,,,,,,,,,,,,,,,,,,,,,,,,,,,,,,,,,,,,,,,,,,,,,,,,,,,,,,,,,,,,,,,,,,,,,,,,,,,,,,,,,,,,,,,,,,,,,,,,,,,left,1,0.7553,,,,,,physical,9,7,9 | 7,2,0.065,0.05,congruent,left,0,34,34,15,1,,,,,,,,,,,,,,,,,,,,,,,,,,,,,,,,,,,,,,,,,,,,,
,8845,BCA,22/05/2003,001,2023-10-06_20h53.12.091,OS3_Mult_verification,2022.2.4,Win32,59.98440405,,,,,,,,,,,,,,,,,,,,,,,,,,,,,,,,,,,,,,,,,,,,,,,,,,,,,,,,,,,,,,,,,,,,,,,,,,,,,,,,,,,,,,,,,,,,,,,,,,,,,,,,,,,,left,1,0.6163,,,,,,physical,7,2,7 | 2,5,0.065,0.05,congruent,left,0,35,35,21,1,,,,,,,,,,,,,,,,,,,,,,,,,,,,,,,,,,,,,,,,,,,,,
,8845,BCA,22/05/2003,001,2023-10-06_20h53.12.091,OS3_Mult_verification,2022.2.4,Win32,59.98440405,,,,,,,,,,,,,,,,,,,,,,,,,,,,,,,,,,,,,,,,,,,,,,,,,,,,,,,,,,,,,,,,,,,,,,,,,,,,,,,,,,,,,,,,,,,,,,,,,,,,,,,,,,,,left,1,0.7912,,,,,,physical,8,3,8 | 3,5,0.065,0.05,congruent,left,0,36,36,22,1,,,,,,,,,,,,,,,,,,,,,,,,,,,,,,,,,,,,,,,,,,,,,
,8845,BCA,22/05/2003,001,2023-10-06_20h53.12.091,OS3_Mult_verification,2022.2.4,Win32,59.98440405,,,,,,,,,,,,,,,,,,,,,,,,,,,,,,,,,,,,,,,,,,,,,,,,,,,,,,,,,,,,,,,,,,,,,,,,,,,,,,,,,,,,,,,,,,,,,,,,,,,,,,,,,,,,left,1,0.685,,,,,,physical,1,1,1 | 1,0,0.065,0.05,neutral,left,0,37,37,64,1,,,,,,,,,,,,,,,,,,,,,,,,,,,,,,,,,,,,,,,,,,,,,
,8845,BCA,22/05/2003,001,2023-10-06_20h53.12.091,OS3_Mult_verification,2022.2.4,Win32,59.98440405,,,,,,,,,,,,,,,,,,,,,,,,,,,,,,,,,,,,,,,,,,,,,,,,,,,,,,,,,,,,,,,,,,,,,,,,,,,,,,,,,,,,,,,,,,,,,,,,,,,,,,,,,,,,left,1,2.4829,,,,,,physical,6,7,6 | 7,1,0.065,0.05,incongruent,left,0,38,38,26,1,,,,,,,,,,,,,,,,,,,,,,,,,,,,,,,,,,,,,,,,,,,,,
,8845,BCA,22/05/2003,001,2023-10-06_20h53.12.091,OS3_Mult_verification,2022.2.4,Win32,59.98440405,,,,,,,,,,,,,,,,,,,,,,,,,,,,,,,,,,,,,,,,,,,,,,,,,,,,,,,,,,,,,,,,,,,,,,,,,,,,,,,,,,,,,,,,,,,,,,,,,,,,,,,,,,,,right,1,0.5837,,,,,,physical,7,7,7 | 7,0,0.05,0.065,neutral,right,0,39,39,69,1,,,,,,,,,,,,,,,,,,,,,,,,,,,,,,,,,,,,,,,,,,,,,
,8845,BCA,22/05/2003,001,2023-10-06_20h53.12.091,OS3_Mult_verification,2022.2.4,Win32,59.98440405,,,,,,,,,,,,,,,,,,,,,,,,,,,,,,,,,,,,,,,,,,,,,,,,,,,,,,,,,,,,,,,,,,,,,,,,,,,,,,,,,,,,,,,,,,,,,,,,,,,,,,,,,,,,left,1,0.6159,,,,,,physical,4,3,4 | 3,1,0.065,0.05,congruent,left,0,40,40,5,1,,,,,,,,,,,,,,,,,,,,,,,,,,,,,,,,,,,,,,,,,,,,,
,8845,BCA,22/05/2003,001,2023-10-06_20h53.12.091,OS3_Mult_verification,2022.2.4,Win32,59.98440405,,,,,,,,,,,,,,,,,,,,,,,,,,,,,,,,,,,,,,,,,,,,,,,,,,,,,,,,,,,,,,,,,,,,,,,,,,,,,,,,,,,,,,,,,,,,,,,,,,,,,,,,,,,,left,1,0.5969,,,,,,physical,3,1,3 | 1,2,0.065,0.05,congruent,left,0,41,41,12,1,,,,,,,,,,,,,,,,,,,,,,,,,,,,,,,,,,,,,,,,,,,,,
,8845,BCA,22/05/2003,001,2023-10-06_20h53.12.091,OS3_Mult_verification,2022.2.4,Win32,59.98440405,,,,,,,,,,,,,,,,,,,,,,,,,,,,,,,,,,,,,,,,,,,,,,,,,,,,,,,,,,,,,,,,,,,,,,,,,,,,,,,,,,,,,,,,,,,,,,,,,,,,,,,,,,,,right,1,0.9176,,,,,,physical,1,3,1 | 3,2,0.05,0.065,congruent,right,0,42,42,8,1,,,,,,,,,,,,,,,,,,,,,,,,,,,,,,,,,,,,,,,,,,,,,
,8845,BCA,22/05/2003,001,2023-10-06_20h53.12.091,OS3_Mult_verification,2022.2.4,Win32,59.98440405,,,,,,,,,,,,,,,,,,,,,,,,,,,,,,,,,,,,,,,,,,,,,,,,,,,,,,,,,,,,,,,,,,,,,,,,,,,,,,,,,,,,,,,,,,,,,,,,,,,,,,,,,,,,left,1,0.5907,,,,,,physical,6,6,6 | 6,0,0.065,0.05,neutral,left,0,43,43,68,1,,,,,,,,,,,,,,,,,,,,,,,,,,,,,,,,,,,,,,,,,,,,,
,8845,BCA,22/05/2003,001,2023-10-06_20h53.12.091,OS3_Mult_verification,2022.2.4,Win32,59.98440405,,,,,,,,,,,,,,,,,,,,,,,,,,,,,,,,,,,,,,,,,,,,,,,,,,,,,,,,,,,,,,,,,,,,,,,,,,,,,,,,,,,,,,,,,,,,,,,,,,,,,,,,,,,,left,1,0.7016,,,,,,physical,8,8,8 | 8,0,0.065,0.05,neutral,left,0,44,44,70,1,,,,,,,,,,,,,,,,,,,,,,,,,,,,,,,,,,,,,,,,,,,,,
,8845,BCA,22/05/2003,001,2023-10-06_20h53.12.091,OS3_Mult_verification,2022.2.4,Win32,59.98440405,,,,,,,,,,,,,,,,,,,,,,,,,,,,,,,,,,,,,,,,,,,,,,,,,,,,,,,,,,,,,,,,,,,,,,,,,,,,,,,,,,,,,,,,,,,,,,,,,,,,,,,,,,,,right,1,0.5855,,,,,,physical,6,8,6 | 8,2,0.05,0.065,congruent,right,0,45,45,10,1,,,,,,,,,,,,,,,,,,,,,,,,,,,,,,,,,,,,,,,,,,,,,
,8845,BCA,22/05/2003,001,2023-10-06_20h53.12.091,OS3_Mult_verification,2022.2.4,Win32,59.98440405,,,,,,,,,,,,,,,,,,,,,,,,,,,,,,,,,,,,,,,,,,,,,,,,,,,,,,,,,,,,,,,,,,,,,,,,,,,,,,,,,,,,,,,,,,,,,,,,,,,,,,,,,,,,right,1,0.7135,,,,,,physical,3,8,3 | 8,5,0.05,0.065,congruent,right,0,46,46,18,1,,,,,,,,,,,,,,,,,,,,,,,,,,,,,,,,,,,,,,,,,,,,,
,8845,BCA,22/05/2003,001,2023-10-06_20h53.12.091,OS3_Mult_verification,2022.2.4,Win32,59.98440405,,,,,,,,,,,,,,,,,,,,,,,,,,,,,,,,,,,,,,,,,,,,,,,,,,,,,,,,,,,,,,,,,,,,,,,,,,,,,,,,,,,,,,,,,,,,,,,,,,,,,,,,,,,,right,1,0.6164,,,,,,physical,7,6,7 | 6,1,0.05,0.065,incongruent,right,0,47,47,30,1,,,,,,,,,,,,,,,,,,,,,,,,,,,,,,,,,,,,,,,,,,,,,
,8845,BCA,22/05/2003,001,2023-10-06_20h53.12.091,OS3_Mult_verification,2022.2.4,Win32,59.98440405,,,,,,,,,,,,,,,,,,,,,,,,,,,,,,,,,,,,,,,,,,,,,,,,,,,,,,,,,,,,,,,,,,,,,,,,,,,,,,,,,,,,,,,,,,,,,,,,,,,,,,,,,,,,left,1,0.568,,,,,,physical,2,4,2 | 4,2,0.065,0.05,incongruent,left,0,48,48,33,1,,,,,,,,,,,,,,,,,,,,,,,,,,,,,,,,,,,,,,,,,,,,,
,8845,BCA,22/05/2003,001,2023-10-06_20h53.12.091,OS3_Mult_verification,2022.2.4,Win32,59.98440405,,,,,,,,,,,,,,,,,,,,,,,,,,,,,,,,,,,,,,,,,,,,,,,,,,,,,,,,,,,,,,,,,,,,,,,,,,,,,,,,,,,,,,,,,,,,,,,,,,,,,,,,,,,,left,1,0.8623,,,,,,physical,4,4,4 | 4,0,0.065,0.05,neutral,left,0,49,49,53,1,,,,,,,,,,,,,,,,,,,,,,,,,,,,,,,,,,,,,,,,,,,,,
,8845,BCA,22/05/2003,001,2023-10-06_20h53.12.091,OS3_Mult_verification,2022.2.4,Win32,59.98440405,,,,,,,,,,,,,,,,,,,,,,,,,,,,,,,,,,,,,,,,,,,,,,,,,,,,,,,,,,,,,,,,,,,,,,,,,,,,,,,,,,,,,,,,,,,,,,,,,,,,,,,,,,,,right,1,0.5304,,,,,,physical,6,7,6 | 7,1,0.05,0.065,congruent,right,0,50,50,2,1,,,,,,,,,,,,,,,,,,,,,,,,,,,,,,,,,,,,,,,,,,,,,
,8845,BCA,22/05/2003,001,2023-10-06_20h53.12.091,OS3_Mult_verification,2022.2.4,Win32,59.98440405,,,,,,,,,,,,,,,,,,,,,,,,,,,,,,,,,,,,,,,,,,,,,,,,,,,,,,,,,,,,,,,,,,,,,,,,,,,,,,,,,,,,,,,,,,,,,,,,,,,,,,,,,,,,right,1,0.5502,,,,,,physical,4,4,4 | 4,0,0.05,0.065,neutral,right,0,51,51,61,1,,,,,,,,,,,,,,,,,,,,,,,,,,,,,,,,,,,,,,,,,,,,,
,8845,BCA,22/05/2003,001,2023-10-06_20h53.12.091,OS3_Mult_verification,2022.2.4,Win32,59.98440405,,,,,,,,,,,,,,,,,,,,,,,,,,,,,,,,,,,,,,,,,,,,,,,,,,,,,,,,,,,,,,,,,,,,,,,,,,,,,,,,,,,,,,,,,,,,,,,,,,,,,,,,,,,,right,1,0.6489,,,,,,physical,7,7,7 | 7,0,0.05,0.065,neutral,right,0,52,52,59,1,,,,,,,,,,,,,,,,,,,,,,,,,,,,,,,,,,,,,,,,,,,,,
