windowSize,participant,group,DOB (DD/MM/YEAR),session,date,expName,psychopyVersion,OS,frameRate,typing_instr_resp.keys,typing_instr_resp.rt,typing_response,typing_rt,typing_score,typingSpeed_input_resp.keys,typingSpeed_input_resp.rt,typing_speed_trials.thisRepN,typing_speed_trials.thisTrialN,typing_speed_trials.thisN,typing_speed_trials.thisIndex,typing_speed_trials.ran,typing_speed_stim,typing_report_resp.keys,typing_report_resp.rt,vpt_trial_resp1.keys,vpt_trial_resp1.rt,typedResponse,fluency_rt,fluency_score,fluencyInputResp.keys,fluencyInputResp.rt,fluencyPracLoop.thisRepN,fluencyPracLoop.thisTrialN,fluencyPracLoop.thisN,fluencyPracLoop.thisIndex,fluencyPracLoop.ran,problem,answers,fluencyLoop.thisRepN,fluencyLoop.thisTrialN,fluencyLoop.thisN,fluencyLoop.thisIndex,fluencyLoop.ran,stroopResp.keys,stroopResp.corr,stroopResp.rt,stroopPracLoop.thisRepN,stroopPracLoop.thisTrialN,stroopPracLoop.thisN,stroopPracLoop.thisIndex,stroopPracLoop.ran,stroopCond,leftNo,rightNo,displayProblem,numDistance,leftNo_size,rightNo_size,Dims,keyAnswer,stroopLoop.thisRepN,stroopLoop.thisTrialN,stroopLoop.thisN,stroopLoop.thisIndex,stroopLoop.ran,stroopBlocks.thisRepN,stroopBlocks.thisTrialN,stroopBlocks.thisN,stroopBlocks.thisIndex,stroopBlocks.ran,stroop_condition,stroop_pracFile,ActionInst,instrImage,TASK_A.thisRepN,TASK_A.thisTrialN,TASK_A.thisN,TASK_A.thisIndex,TASK_A.ran,controlTaskOrder.thisRepN,controlTaskOrder.thisTrialN,controlTaskOrder.thisN,controlTaskOrder.thisIndex,controlTaskOrder.ran,nRepsTask1,nRepsTask2,nRepsTask3,vptCorrect,vpt_rt,respMouse.x,respMouse.y,respMouse.leftButton,respMouse.midButton,respMouse.rightButton,vptPracticeLoop.thisRepN,vptPracticeLoop.thisTrialN,vptPracticeLoop.thisN,vptPracticeLoop.thisIndex,vptPracticeLoop.ran,trialType,tiles,rows,cols,vptTrialLoop.thisRepN,vptTrialLoop.thisTrialN,vptTrialLoop.thisN,vptTrialLoop.thisIndex,vptTrialLoop.ran,noOfBlocks,TASK_B.thisRepN,TASK_B.thisTrialN,TASK_B.thisN,TASK_B.thisIndex,TASK_B.ran,sampleAudio_resp.keys,sampleAudio_resp.rt,subjResponse,audio_rt,DS_score,inputResp.keys,inputResp.rt,audioPracticeLoop.thisRepN,audioPracticeLoop.thisTrialN,audioPracticeLoop.thisN,audioPracticeLoop.thisIndex,audioPracticeLoop.ran,digitSpan,digits_audioStim,soundsFile,typeDS,audioTrials_Loop.thisRepN,audioTrials_Loop.thisTrialN,audioTrials_Loop.thisN,audioTrials_Loop.thisIndex,audioTrials_Loop.ran,audioBlocks_loop.thisRepN,audioBlocks_loop.thisTrialN,audioBlocks_loop.thisN,audioBlocks_loop.thisIndex,audioBlocks_loop.ran,ConditionFile,digitSpanTask_loop.thisRepN,digitSpanTask_loop.thisTrialN,digitSpanTask_loop.thisN,digitSpanTask_loop.thisIndex,digitSpanTask_loop.ran,dsFile,TASK_C.thisRepN,TASK_C.thisTrialN,TASK_C.thisN,TASK_C.thisIndex,TASK_C.ran,veriStim_resp.keys,veriStim_resp.corr,veriStim_resp.rt,verificationPracLoop.thisRepN,verificationPracLoop.thisTrialN,verificationPracLoop.thisN,verificationPracLoop.thisIndex,verificationPracLoop.ran,mult_problem,mult_answer,mult_type,error_distance,interferenceScore,problemType,interferenceLevel,problemSize,img_leftButton,img_rightButton,veriLoop.thisRepN,veriLoop.thisTrialN,veriLoop.thisN,veriLoop.thisIndex,veriLoop.ran,veriBlock.thisRepN,veriBlock.thisTrialN,veriBlock.thisN,veriBlock.thisIndex,veriBlock.ran,verificationFiles,end_resp.keys,end_resp.rt
"[1600,751]",176876591960,ABC,14/10/2001,001,2023-11-01_21h57.30.924,OS3_Mult_verification,2022.2.4,Win32,59.95203837,,,,,,,,,,,,,,,,,,,,,,,,,,,,,,,,,,,,,,,,,,,,,,,,,,,,,,,,,,,,,,,,,,,,,,,,,,,,,,,,,,,,,,,,,,,,,,,,,,,,,,,,,,,,,,,,,,,,,,,,,,,,,,,,,,,,,,,,,,,,,,,,,,,,,,,,,,,,,,,,,,,,,,,,,,,,,,
,176876591960,ABC,14/10/2001,001,2023-11-01_21h57.30.924,OS3_Mult_verification,2022.2.4,Win32,59.95203837,,,,,,,,,,,,,,,,,,,,,,,,,,,,,,,,,,,,,,,,,,,,,,,,,,,,,,,,,,,,,,,,,,,,,,,,,,,,,,,,,,,,,,,,,,,,,,,,,,,,,,,,,,,,,,,,,,,,,,,,,,,,,,,,,,,,,,,,,,,,,,,,,,,,,,,,,,,,,,,,,,,,,,,,,,,,,,
,176876591960,ABC,14/10/2001,001,2023-11-01_21h57.30.924,OS3_Mult_verification,2022.2.4,Win32,59.95203837,space,18.4168,,,,,,,,,,,,,,,,,,,,,,,,,,,,,,,,,,,,,,,,,,,,,,,,,,,,,,,,,,,,,,,,,,,,,,,,,,,,,,,,,,,,,,,,,,,,,,,,,,,,,,,,,,,,,,,,,,,,,,,,,,,,,,,,,,,,,,,,,,,,,,,,,,,,,,,,,,,,,,,,,,,,,,,,,,,,
,176876591960,ABC,14/10/2001,001,2023-11-01_21h57.30.924,OS3_Mult_verification,2022.2.4,Win32,59.95203837,,,49,3.5487,1,"[""4"",""9"",""return""]","[1.331200000047673,1.6504000000953596,3.507400000095359]",0,0,0,24,1,49,,,,,,,,,,,,,,,,,,,,,,,,,,,,,,,,,,,,,,,,,,,,,,,,,,,,,,,,,,,,,,,,,,,,,,,,,,,,,,,,,,,,,,,,,,,,,,,,,,,,,,,,,,,,,,,,,,,,,,,,,,,,,,,,,,,,,,,,,,,,,,,,,,,,,,,,,,,,,,,,,
,176876591960,ABC,14/10/2001,001,2023-11-01_21h57.30.924,OS3_Mult_verification,2022.2.4,Win32,59.95203837,,,25,1.6665,1,"[""2"",""5"",""return""]","[1.2596000001430525,1.4839000000953604,1.6274999999999977]",0,1,1,13,1,25,,,,,,,,,,,,,,,,,,,,,,,,,,,,,,,,,,,,,,,,,,,,,,,,,,,,,,,,,,,,,,,,,,,,,,,,,,,,,,,,,,,,,,,,,,,,,,,,,,,,,,,,,,,,,,,,,,,,,,,,,,,,,,,,,,,,,,,,,,,,,,,,,,,,,,,,,,,,,,,,,
,176876591960,ABC,14/10/2001,001,2023-11-01_21h57.30.924,OS3_Mult_verification,2022.2.4,Win32,59.95203837,,,45,1.6717,1,"[""3"",""backspace"",""4"",""5"",""return""]","[0.670900000095358,1.2505000000000024,1.367999999999995,1.5349999999999966,1.633700000047682]",0,2,2,22,1,45,,,,,,,,,,,,,,,,,,,,,,,,,,,,,,,,,,,,,,,,,,,,,,,,,,,,,,,,,,,,,,,,,,,,,,,,,,,,,,,,,,,,,,,,,,,,,,,,,,,,,,,,,,,,,,,,,,,,,,,,,,,,,,,,,,,,,,,,,,,,,,,,,,,,,,,,,,,,,,,,,
,176876591960,ABC,14/10/2001,001,2023-11-01_21h57.30.924,OS3_Mult_verification,2022.2.4,Win32,59.95203837,,,20,1.2885,1,"[""2"",""0"",""return""]","[0.8582000000476881,1.1542000000476804,1.2507000000476864]",0,3,3,10,1,20,,,,,,,,,,,,,,,,,,,,,,,,,,,,,,,,,,,,,,,,,,,,,,,,,,,,,,,,,,,,,,,,,,,,,,,,,,,,,,,,,,,,,,,,,,,,,,,,,,,,,,,,,,,,,,,,,,,,,,,,,,,,,,,,,,,,,,,,,,,,,,,,,,,,,,,,,,,,,,,,,
,176876591960,ABC,14/10/2001,001,2023-11-01_21h57.30.924,OS3_Mult_verification,2022.2.4,Win32,59.95203837,,,36,1.2712,1,"[""3"",""6"",""return""]","[0.8214000000953661,1.116900000095356,1.2212999999523078]",0,4,4,19,1,36,,,,,,,,,,,,,,,,,,,,,,,,,,,,,,,,,,,,,,,,,,,,,,,,,,,,,,,,,,,,,,,,,,,,,,,,,,,,,,,,,,,,,,,,,,,,,,,,,,,,,,,,,,,,,,,,,,,,,,,,,,,,,,,,,,,,,,,,,,,,,,,,,,,,,,,,,,,,,,,,,
,176876591960,ABC,14/10/2001,001,2023-11-01_21h57.30.924,OS3_Mult_verification,2022.2.4,Win32,59.95203837,,,48,1.2218,1,"[""4"",""8"",""return""]","[0.7284999999999968,1.0723999998569553,1.1838999998569477]",0,5,5,23,1,48,,,,,,,,,,,,,,,,,,,,,,,,,,,,,,,,,,,,,,,,,,,,,,,,,,,,,,,,,,,,,,,,,,,,,,,,,,,,,,,,,,,,,,,,,,,,,,,,,,,,,,,,,,,,,,,,,,,,,,,,,,,,,,,,,,,,,,,,,,,,,,,,,,,,,,,,,,,,,,,,,
,176876591960,ABC,14/10/2001,001,2023-11-01_21h57.30.924,OS3_Mult_verification,2022.2.4,Win32,59.95203837,,,42,1.1883,1,"[""4"",""2"",""return""]","[0.7847000000476925,1.0339000000953718,1.150299999952324]",0,6,6,21,1,42,,,,,,,,,,,,,,,,,,,,,,,,,,,,,,,,,,,,,,,,,,,,,,,,,,,,,,,,,,,,,,,,,,,,,,,,,,,,,,,,,,,,,,,,,,,,,,,,,,,,,,,,,,,,,,,,,,,,,,,,,,,,,,,,,,,,,,,,,,,,,,,,,,,,,,,,,,,,,,,,,
,176876591960,ABC,14/10/2001,001,2023-11-01_21h57.30.924,OS3_Mult_verification,2022.2.4,Win32,59.95203837,,,16,1.2832,1,"[""1"",""6"",""return""]","[0.7564999999999884,1.0364000000953695,1.236400000095358]",0,7,7,8,1,16,,,,,,,,,,,,,,,,,,,,,,,,,,,,,,,,,,,,,,,,,,,,,,,,,,,,,,,,,,,,,,,,,,,,,,,,,,,,,,,,,,,,,,,,,,,,,,,,,,,,,,,,,,,,,,,,,,,,,,,,,,,,,,,,,,,,,,,,,,,,,,,,,,,,,,,,,,,,,,,,,
,176876591960,ABC,14/10/2001,001,2023-11-01_21h57.30.924,OS3_Mult_verification,2022.2.4,Win32,59.95203837,,,6,1.8496,1,"[""6"",""5"",""backspace"",""return""]","[0.910700000047683,0.9187000000476928,1.6012000000476831,1.801200000047686]",0,8,8,1,1,6,,,,,,,,,,,,,,,,,,,,,,,,,,,,,,,,,,,,,,,,,,,,,,,,,,,,,,,,,,,,,,,,,,,,,,,,,,,,,,,,,,,,,,,,,,,,,,,,,,,,,,,,,,,,,,,,,,,,,,,,,,,,,,,,,,,,,,,,,,,,,,,,,,,,,,,,,,,,,,,,,
,176876591960,ABC,14/10/2001,001,2023-11-01_21h57.30.924,OS3_Mult_verification,2022.2.4,Win32,59.95203837,,,10,1.1497,1,"[""1"",""0"",""return""]","[0.6912000000476866,0.9984000000953586,1.1072000000476834]",0,9,9,4,1,10,,,,,,,,,,,,,,,,,,,,,,,,,,,,,,,,,,,,,,,,,,,,,,,,,,,,,,,,,,,,,,,,,,,,,,,,,,,,,,,,,,,,,,,,,,,,,,,,,,,,,,,,,,,,,,,,,,,,,,,,,,,,,,,,,,,,,,,,,,,,,,,,,,,,,,,,,,,,,,,,,
,176876591960,ABC,14/10/2001,001,2023-11-01_21h57.30.924,OS3_Mult_verification,2022.2.4,Win32,59.95203837,,,9,1.4636,1,"[""9"",""return""]","[1.231800000190745,1.4201000001430515]",0,10,10,3,1,9,,,,,,,,,,,,,,,,,,,,,,,,,,,,,,,,,,,,,,,,,,,,,,,,,,,,,,,,,,,,,,,,,,,,,,,,,,,,,,,,,,,,,,,,,,,,,,,,,,,,,,,,,,,,,,,,,,,,,,,,,,,,,,,,,,,,,,,,,,,,,,,,,,,,,,,,,,,,,,,,,
,176876591960,ABC,14/10/2001,001,2023-11-01_21h57.30.924,OS3_Mult_verification,2022.2.4,Win32,59.95203837,,,24,1.1883,1,"[""2"",""4"",""return""]","[0.8676000001430424,1.050300000190731,1.1503000001907253]",0,11,11,12,1,24,,,,,,,,,,,,,,,,,,,,,,,,,,,,,,,,,,,,,,,,,,,,,,,,,,,,,,,,,,,,,,,,,,,,,,,,,,,,,,,,,,,,,,,,,,,,,,,,,,,,,,,,,,,,,,,,,,,,,,,,,,,,,,,,,,,,,,,,,,,,,,,,,,,,,,,,,,,,,,,,,
,176876591960,ABC,14/10/2001,001,2023-11-01_21h57.30.924,OS3_Mult_verification,2022.2.4,Win32,59.95203837,,,35,1.0885,1,"[""3"",""5"",""return""]","[0.6928999998569481,0.9014999999999986,1.0500999999046314]",0,12,12,18,1,35,,,,,,,,,,,,,,,,,,,,,,,,,,,,,,,,,,,,,,,,,,,,,,,,,,,,,,,,,,,,,,,,,,,,,,,,,,,,,,,,,,,,,,,,,,,,,,,,,,,,,,,,,,,,,,,,,,,,,,,,,,,,,,,,,,,,,,,,,,,,,,,,,,,,,,,,,,,,,,,,,
,176876591960,ABC,14/10/2001,001,2023-11-01_21h57.30.924,OS3_Mult_verification,2022.2.4,Win32,59.95203837,,,8,1.0887,1,"[""8"",""return""]","[0.8840000000000003,1.0504999999999995]",0,13,13,2,1,8,,,,,,,,,,,,,,,,,,,,,,,,,,,,,,,,,,,,,,,,,,,,,,,,,,,,,,,,,,,,,,,,,,,,,,,,,,,,,,,,,,,,,,,,,,,,,,,,,,,,,,,,,,,,,,,,,,,,,,,,,,,,,,,,,,,,,,,,,,,,,,,,,,,,,,,,,,,,,,,,,
,176876591960,ABC,14/10/2001,001,2023-11-01_21h57.30.924,OS3_Mult_verification,2022.2.4,Win32,59.95203837,,,27,1.3218,1,"[""2"",""7"",""return""]","[0.9500000000000028,1.1837999999523134,1.283799999952322]",0,14,14,14,1,27,,,,,,,,,,,,,,,,,,,,,,,,,,,,,,,,,,,,,,,,,,,,,,,,,,,,,,,,,,,,,,,,,,,,,,,,,,,,,,,,,,,,,,,,,,,,,,,,,,,,,,,,,,,,,,,,,,,,,,,,,,,,,,,,,,,,,,,,,,,,,,,,,,,,,,,,,,,,,,,,,
,176876591960,ABC,14/10/2001,001,2023-11-01_21h57.30.924,OS3_Mult_verification,2022.2.4,Win32,59.95203837,,,12,0.933,1,"[""1"",""2"",""return""]","[0.6842000000476816,0.7669999999999959,0.8842999999523045]",0,15,15,5,1,12,,,,,,,,,,,,,,,,,,,,,,,,,,,,,,,,,,,,,,,,,,,,,,,,,,,,,,,,,,,,,,,,,,,,,,,,,,,,,,,,,,,,,,,,,,,,,,,,,,,,,,,,,,,,,,,,,,,,,,,,,,,,,,,,,,,,,,,,,,,,,,,,,,,,,,,,,,,,,,,,,
,176876591960,ABC,14/10/2001,001,2023-11-01_21h57.30.924,OS3_Mult_verification,2022.2.4,Win32,59.95203837,,,72,1.372,1,"[""7"",""2"",""return""]","[0.8522999999523222,1.220200000047683,1.333900000095369]",0,16,16,29,1,72,,,,,,,,,,,,,,,,,,,,,,,,,,,,,,,,,,,,,,,,,,,,,,,,,,,,,,,,,,,,,,,,,,,,,,,,,,,,,,,,,,,,,,,,,,,,,,,,,,,,,,,,,,,,,,,,,,,,,,,,,,,,,,,,,,,,,,,,,,,,,,,,,,,,,,,,,,,,,,,,,
,176876591960,ABC,14/10/2001,001,2023-11-01_21h57.30.924,OS3_Mult_verification,2022.2.4,Win32,59.95203837,,,30,1.1859,1,"[""3"",""0"",""return""]","[0.6835999999046294,0.9874999999999972,1.1502999999523098]",0,17,17,16,1,30,,,,,,,,,,,,,,,,,,,,,,,,,,,,,,,,,,,,,,,,,,,,,,,,,,,,,,,,,,,,,,,,,,,,,,,,,,,,,,,,,,,,,,,,,,,,,,,,,,,,,,,,,,,,,,,,,,,,,,,,,,,,,,,,,,,,,,,,,,,,,,,,,,,,,,,,,,,,,,,,,
,176876591960,ABC,14/10/2001,001,2023-11-01_21h57.30.924,OS3_Mult_verification,2022.2.4,Win32,59.95203837,,,54,1.1044,1,"[""5"",""4"",""return""]","[0.7870999999046404,0.938399999856955,1.0672999999523256]",0,18,18,25,1,54,,,,,,,,,,,,,,,,,,,,,,,,,,,,,,,,,,,,,,,,,,,,,,,,,,,,,,,,,,,,,,,,,,,,,,,,,,,,,,,,,,,,,,,,,,,,,,,,,,,,,,,,,,,,,,,,,,,,,,,,,,,,,,,,,,,,,,,,,,,,,,,,,,,,,,,,,,,,,,,,,
,176876591960,ABC,14/10/2001,001,2023-11-01_21h57.30.924,OS3_Mult_verification,2022.2.4,Win32,59.95203837,,,32,1.1511,1,"[""3"",""2"",""return""]","[0.7979999999999876,0.9562000000476729,1.1149000000953606]",0,19,19,17,1,32,,,,,,,,,,,,,,,,,,,,,,,,,,,,,,,,,,,,,,,,,,,,,,,,,,,,,,,,,,,,,,,,,,,,,,,,,,,,,,,,,,,,,,,,,,,,,,,,,,,,,,,,,,,,,,,,,,,,,,,,,,,,,,,,,,,,,,,,,,,,,,,,,,,,,,,,,,,,,,,,,
,176876591960,ABC,14/10/2001,001,2023-11-01_21h57.30.924,OS3_Mult_verification,2022.2.4,Win32,59.95203837,,,64,2.0659,1,"[""6"",""4"",""return""]","[1.0002999999523183,1.4440000000000026,2.0200999999046303]",0,20,20,28,1,64,,,,,,,,,,,,,,,,,,,,,,,,,,,,,,,,,,,,,,,,,,,,,,,,,,,,,,,,,,,,,,,,,,,,,,,,,,,,,,,,,,,,,,,,,,,,,,,,,,,,,,,,,,,,,,,,,,,,,,,,,,,,,,,,,,,,,,,,,,,,,,,,,,,,,,,,,,,,,,,,,
,176876591960,ABC,14/10/2001,001,2023-11-01_21h57.30.924,OS3_Mult_verification,2022.2.4,Win32,59.95203837,,,21,1.7551,1,"[""2"",""2"",""backspace"",""1"",""return""]","[0.7197000000476805,0.9356000001430544,1.4717000000476759,1.5679999999999978,1.7151000001430532]",0,21,21,11,1,21,,,,,,,,,,,,,,,,,,,,,,,,,,,,,,,,,,,,,,,,,,,,,,,,,,,,,,,,,,,,,,,,,,,,,,,,,,,,,,,,,,,,,,,,,,,,,,,,,,,,,,,,,,,,,,,,,,,,,,,,,,,,,,,,,,,,,,,,,,,,,,,,,,,,,,,,,,,,,,,,,
,176876591960,ABC,14/10/2001,001,2023-11-01_21h57.30.924,OS3_Mult_verification,2022.2.4,Win32,59.95203837,,,289,1.1554,0,"[""2"",""8"",""9"",""return""]","[0.7682000000476847,1.055700000047679,1.0685999999046345,1.1184000000953631]",0,22,22,15,1,28,,,,,,,,,,,,,,,,,,,,,,,,,,,,,,,,,,,,,,,,,,,,,,,,,,,,,,,,,,,,,,,,,,,,,,,,,,,,,,,,,,,,,,,,,,,,,,,,,,,,,,,,,,,,,,,,,,,,,,,,,,,,,,,,,,,,,,,,,,,,,,,,,,,,,,,,,,,,,,,,,
,176876591960,ABC,14/10/2001,001,2023-11-01_21h57.30.924,OS3_Mult_verification,2022.2.4,Win32,59.95203837,,,40,2.9662,1,"[""3"",""backspace"",""4"",""0"",""return""]","[1.08759999990464,2.0672000000476913,2.51700000000001,2.7845000000000084,2.9195000000000135]",0,23,23,20,1,40,,,,,,,,,,,,,,,,,,,,,,,,,,,,,,,,,,,,,,,,,,,,,,,,,,,,,,,,,,,,,,,,,,,,,,,,,,,,,,,,,,,,,,,,,,,,,,,,,,,,,,,,,,,,,,,,,,,,,,,,,,,,,,,,,,,,,,,,,,,,,,,,,,,,,,,,,,,,,,,,,
,176876591960,ABC,14/10/2001,001,2023-11-01_21h57.30.924,OS3_Mult_verification,2022.2.4,Win32,59.95203837,,,14,1.0717,1,"[""1"",""4"",""return""]","[0.7109000000953642,0.9029000000953573,1.0334999999999894]",0,24,24,6,1,14,,,,,,,,,,,,,,,,,,,,,,,,,,,,,,,,,,,,,,,,,,,,,,,,,,,,,,,,,,,,,,,,,,,,,,,,,,,,,,,,,,,,,,,,,,,,,,,,,,,,,,,,,,,,,,,,,,,,,,,,,,,,,,,,,,,,,,,,,,,,,,,,,,,,,,,,,,,,,,,,,
,176876591960,ABC,14/10/2001,001,2023-11-01_21h57.30.924,OS3_Mult_verification,2022.2.4,Win32,59.95203837,,,56,1.2386,1,"[""5"",""6"",""return""]","[0.978500000000011,1.1223999998569525,1.2006999998092738]",0,25,25,26,1,56,,,,,,,,,,,,,,,,,,,,,,,,,,,,,,,,,,,,,,,,,,,,,,,,,,,,,,,,,,,,,,,,,,,,,,,,,,,,,,,,,,,,,,,,,,,,,,,,,,,,,,,,,,,,,,,,,,,,,,,,,,,,,,,,,,,,,,,,,,,,,,,,,,,,,,,,,,,,,,,,,
,176876591960,ABC,14/10/2001,001,2023-11-01_21h57.30.924,OS3_Mult_verification,2022.2.4,Win32,59.95203837,,,4,0.9665,1,"[""4"",""return""]","[0.7589000000953661,0.9189999999999969]",0,26,26,0,1,4,,,,,,,,,,,,,,,,,,,,,,,,,,,,,,,,,,,,,,,,,,,,,,,,,,,,,,,,,,,,,,,,,,,,,,,,,,,,,,,,,,,,,,,,,,,,,,,,,,,,,,,,,,,,,,,,,,,,,,,,,,,,,,,,,,,,,,,,,,,,,,,,,,,,,,,,,,,,,,,,,
,176876591960,ABC,14/10/2001,001,2023-11-01_21h57.30.924,OS3_Mult_verification,2022.2.4,Win32,59.95203837,,,81,1.7054,1,"[""8"",""1"",""return""]","[1.1584000000953694,1.518299999952319,1.6670999999046359]",0,27,27,30,1,81,,,,,,,,,,,,,,,,,,,,,,,,,,,,,,,,,,,,,,,,,,,,,,,,,,,,,,,,,,,,,,,,,,,,,,,,,,,,,,,,,,,,,,,,,,,,,,,,,,,,,,,,,,,,,,,,,,,,,,,,,,,,,,,,,,,,,,,,,,,,,,,,,,,,,,,,,,,,,,,,,
,176876591960,ABC,14/10/2001,001,2023-11-01_21h57.30.924,OS3_Mult_verification,2022.2.4,Win32,59.95203837,,,63,2.2832,1,"[""6"",""3"",""return""]","[1.2562999999523186,2.1172000000476885,2.250400000095368]",0,28,28,27,1,63,,,,,,,,,,,,,,,,,,,,,,,,,,,,,,,,,,,,,,,,,,,,,,,,,,,,,,,,,,,,,,,,,,,,,,,,,,,,,,,,,,,,,,,,,,,,,,,,,,,,,,,,,,,,,,,,,,,,,,,,,,,,,,,,,,,,,,,,,,,,,,,,,,,,,,,,,,,,,,,,,
,176876591960,ABC,14/10/2001,001,2023-11-01_21h57.30.924,OS3_Mult_verification,2022.2.4,Win32,59.95203837,,,18,1.9554,1,"[""1"",""8"",""return""]","[0.7850999999046309,1.394399999856958,1.9171999998092701]",0,29,29,9,1,18,,,,,,,,,,,,,,,,,,,,,,,,,,,,,,,,,,,,,,,,,,,,,,,,,,,,,,,,,,,,,,,,,,,,,,,,,,,,,,,,,,,,,,,,,,,,,,,,,,,,,,,,,,,,,,,,,,,,,,,,,,,,,,,,,,,,,,,,,,,,,,,,,,,,,,,,,,,,,,,,,
,176876591960,ABC,14/10/2001,001,2023-11-01_21h57.30.924,OS3_Mult_verification,2022.2.4,Win32,59.95203837,,,15,1.1332,1,"[""1"",""5"",""return""]","[0.7169000000953645,0.9675000000000011,1.0847000000476754]",0,30,30,7,1,15,,,,,,,,,,,,,,,,,,,,,,,,,,,,,,,,,,,,,,,,,,,,,,,,,,,,,,,,,,,,,,,,,,,,,,,,,,,,,,,,,,,,,,,,,,,,,,,,,,,,,,,,,,,,,,,,,,,,,,,,,,,,,,,,,,,,,,,,,,,,,,,,,,,,,,,,,,,,,,,,,
,176876591960,ABC,14/10/2001,001,2023-11-01_21h57.30.924,OS3_Mult_verification,2022.2.4,Win32,59.95203837,,,30,1.1835,1,"[""3"",""0"",""return""]","[0.7012999999523117,1.0109000000953614,1.1504000000953738]",1,0,31,16,1,30,,,,,,,,,,,,,,,,,,,,,,,,,,,,,,,,,,,,,,,,,,,,,,,,,,,,,,,,,,,,,,,,,,,,,,,,,,,,,,,,,,,,,,,,,,,,,,,,,,,,,,,,,,,,,,,,,,,,,,,,,,,,,,,,,,,,,,,,,,,,,,,,,,,,,,,,,,,,,,,,,
,176876591960,ABC,14/10/2001,001,2023-11-01_21h57.30.924,OS3_Mult_verification,2022.2.4,Win32,59.95203837,,,21,1.0053,1,"[""2"",""1"",""return""]","[0.7515999999046414,0.8503999998569611,0.967200000047697]",1,1,32,11,1,21,,,,,,,,,,,,,,,,,,,,,,,,,,,,,,,,,,,,,,,,,,,,,,,,,,,,,,,,,,,,,,,,,,,,,,,,,,,,,,,,,,,,,,,,,,,,,,,,,,,,,,,,,,,,,,,,,,,,,,,,,,,,,,,,,,,,,,,,,,,,,,,,,,,,,,,,,,,,,,,,,
,176876591960,ABC,14/10/2001,001,2023-11-01_21h57.30.924,OS3_Mult_verification,2022.2.4,Win32,59.95203837,,,27,1.1387,1,"[""2"",""7"",""return""]","[0.7003999998569554,1.0075000000000074,1.100700000047695]",1,2,33,14,1,27,,,,,,,,,,,,,,,,,,,,,,,,,,,,,,,,,,,,,,,,,,,,,,,,,,,,,,,,,,,,,,,,,,,,,,,,,,,,,,,,,,,,,,,,,,,,,,,,,,,,,,,,,,,,,,,,,,,,,,,,,,,,,,,,,,,,,,,,,,,,,,,,,,,,,,,,,,,,,,,,,
,176876591960,ABC,14/10/2001,001,2023-11-01_21h57.30.924,OS3_Mult_verification,2022.2.4,Win32,59.95203837,,,0,1.0559,0,"[""1"",""0"",""return""]","[0.9690999999046284,0.9698999998569491,1.0201999998092646]",1,3,34,4,1,10,,,,,,,,,,,,,,,,,,,,,,,,,,,,,,,,,,,,,,,,,,,,,,,,,,,,,,,,,,,,,,,,,,,,,,,,,,,,,,,,,,,,,,,,,,,,,,,,,,,,,,,,,,,,,,,,,,,,,,,,,,,,,,,,,,,,,,,,,,,,,,,,,,,,,,,,,,,,,,,,,
,176876591960,ABC,14/10/2001,001,2023-11-01_21h57.30.924,OS3_Mult_verification,2022.2.4,Win32,59.95203837,,,81,1.7663,1,"[""8"",""1"",""return""]","[1.1679999999999922,1.534899999856961,1.7178999998569537]",1,4,35,30,1,81,,,,,,,,,,,,,,,,,,,,,,,,,,,,,,,,,,,,,,,,,,,,,,,,,,,,,,,,,,,,,,,,,,,,,,,,,,,,,,,,,,,,,,,,,,,,,,,,,,,,,,,,,,,,,,,,,,,,,,,,,,,,,,,,,,,,,,,,,,,,,,,,,,,,,,,,,,,,,,,,,
,176876591960,ABC,14/10/2001,001,2023-11-01_21h57.30.924,OS3_Mult_verification,2022.2.4,Win32,59.95203837,,,56,1.3221,1,"[""5"",""6"",""return""]","[1.0763999998569602,1.2003999998569554,1.283899999856942]",1,5,36,26,1,56,,,,,,,,,,,,,,,,,,,,,,,,,,,,,,,,,,,,,,,,,,,,,,,,,,,,,,,,,,,,,,,,,,,,,,,,,,,,,,,,,,,,,,,,,,,,,,,,,,,,,,,,,,,,,,,,,,,,,,,,,,,,,,,,,,,,,,,,,,,,,,,,,,,,,,,,,,,,,,,,,
,176876591960,ABC,14/10/2001,001,2023-11-01_21h57.30.924,OS3_Mult_verification,2022.2.4,Win32,59.95203837,,,64,1.338,1,"[""6"",""4"",""return""]","[0.8671999998092588,1.1177999999523252,1.3003999998569498]",1,6,37,28,1,64,,,,,,,,,,,,,,,,,,,,,,,,,,,,,,,,,,,,,,,,,,,,,,,,,,,,,,,,,,,,,,,,,,,,,,,,,,,,,,,,,,,,,,,,,,,,,,,,,,,,,,,,,,,,,,,,,,,,,,,,,,,,,,,,,,,,,,,,,,,,,,,,,,,,,,,,,,,,,,,,,
,176876591960,ABC,14/10/2001,001,2023-11-01_21h57.30.924,OS3_Mult_verification,2022.2.4,Win32,59.95203837,,,16,1.4384,1,"[""1"",""6"",""return""]","[0.6857000000477029,1.2855999999046475,1.4005999999046566]",1,7,38,8,1,16,,,,,,,,,,,,,,,,,,,,,,,,,,,,,,,,,,,,,,,,,,,,,,,,,,,,,,,,,,,,,,,,,,,,,,,,,,,,,,,,,,,,,,,,,,,,,,,,,,,,,,,,,,,,,,,,,,,,,,,,,,,,,,,,,,,,,,,,,,,,,,,,,,,,,,,,,,,,,,,,,
,176876591960,ABC,14/10/2001,001,2023-11-01_21h57.30.924,OS3_Mult_verification,2022.2.4,Win32,59.95203837,,,18,1.2224,1,"[""1"",""8"",""return""]","[0.7669999999999959,1.0742000000476821,1.183800000190729]",1,8,39,9,1,18,,,,,,,,,,,,,,,,,,,,,,,,,,,,,,,,,,,,,,,,,,,,,,,,,,,,,,,,,,,,,,,,,,,,,,,,,,,,,,,,,,,,,,,,,,,,,,,,,,,,,,,,,,,,,,,,,,,,,,,,,,,,,,,,,,,,,,,,,,,,,,,,,,,,,,,,,,,,,,,,,
,176876591960,ABC,14/10/2001,001,2023-11-01_21h57.30.924,OS3_Mult_verification,2022.2.4,Win32,59.95203837,,,40,1.2998,1,"[""4"",""0"",""return""]","[0.8347000000476896,1.135499999999979,1.255700000047682]",1,9,40,20,1,40,,,,,,,,,,,,,,,,,,,,,,,,,,,,,,,,,,,,,,,,,,,,,,,,,,,,,,,,,,,,,,,,,,,,,,,,,,,,,,,,,,,,,,,,,,,,,,,,,,,,,,,,,,,,,,,,,,,,,,,,,,,,,,,,,,,,,,,,,,,,,,,,,,,,,,,,,,,,,,,,,
,176876591960,ABC,14/10/2001,001,2023-11-01_21h57.30.924,OS3_Mult_verification,2022.2.4,Win32,59.95203837,,,49,1.3219,1,"[""4"",""9"",""return""]","[0.8342999999523215,1.1854999999999905,1.2832999999523054]",1,10,41,24,1,49,,,,,,,,,,,,,,,,,,,,,,,,,,,,,,,,,,,,,,,,,,,,,,,,,,,,,,,,,,,,,,,,,,,,,,,,,,,,,,,,,,,,,,,,,,,,,,,,,,,,,,,,,,,,,,,,,,,,,,,,,,,,,,,,,,,,,,,,,,,,,,,,,,,,,,,,,,,,,,,,,
,176876591960,ABC,14/10/2001,001,2023-11-01_21h57.30.924,OS3_Mult_verification,2022.2.4,Win32,59.95203837,,,4,0.8721,1,"[""4"",""return""]","[0.7230000000000132,0.833500000000015]",1,11,42,0,1,4,,,,,,,,,,,,,,,,,,,,,,,,,,,,,,,,,,,,,,,,,,,,,,,,,,,,,,,,,,,,,,,,,,,,,,,,,,,,,,,,,,,,,,,,,,,,,,,,,,,,,,,,,,,,,,,,,,,,,,,,,,,,,,,,,,,,,,,,,,,,,,,,,,,,,,,,,,,,,,,,,
,176876591960,ABC,14/10/2001,001,2023-11-01_21h57.30.924,OS3_Mult_verification,2022.2.4,Win32,59.95203837,,,48,1.3498,1,"[""4"",""8"",""return""]","[0.7671000001430457,1.2004000000953567,1.3102000000476721]",1,12,43,23,1,48,,,,,,,,,,,,,,,,,,,,,,,,,,,,,,,,,,,,,,,,,,,,,,,,,,,,,,,,,,,,,,,,,,,,,,,,,,,,,,,,,,,,,,,,,,,,,,,,,,,,,,,,,,,,,,,,,,,,,,,,,,,,,,,,,,,,,,,,,,,,,,,,,,,,,,,,,,,,,,,,,
,176876591960,ABC,14/10/2001,001,2023-11-01_21h57.30.924,OS3_Mult_verification,2022.2.4,Win32,59.95203837,,,6,1.216,1,"[""6"",""return""]","[1.0064999999999884,1.1682999999523247]",1,13,44,1,1,6,,,,,,,,,,,,,,,,,,,,,,,,,,,,,,,,,,,,,,,,,,,,,,,,,,,,,,,,,,,,,,,,,,,,,,,,,,,,,,,,,,,,,,,,,,,,,,,,,,,,,,,,,,,,,,,,,,,,,,,,,,,,,,,,,,,,,,,,,,,,,,,,,,,,,,,,,,,,,,,,,
,176876591960,ABC,14/10/2001,001,2023-11-01_21h57.30.924,OS3_Mult_verification,2022.2.4,Win32,59.95203837,,,12,0.9551,1,"[""1"",""2"",""return""]","[0.7004000000953567,0.8594000000953486,0.9170000000000016]",1,14,45,5,1,12,,,,,,,,,,,,,,,,,,,,,,,,,,,,,,,,,,,,,,,,,,,,,,,,,,,,,,,,,,,,,,,,,,,,,,,,,,,,,,,,,,,,,,,,,,,,,,,,,,,,,,,,,,,,,,,,,,,,,,,,,,,,,,,,,,,,,,,,,,,,,,,,,,,,,,,,,,,,,,,,,
,176876591960,ABC,14/10/2001,001,2023-11-01_21h57.30.924,OS3_Mult_verification,2022.2.4,Win32,59.95203837,,,28,1.3716,1,"[""2"",""8"",""return""]","[0.8757999999523349,1.23590000009537,1.3340999999046517]",1,15,46,15,1,28,,,,,,,,,,,,,,,,,,,,,,,,,,,,,,,,,,,,,,,,,,,,,,,,,,,,,,,,,,,,,,,,,,,,,,,,,,,,,,,,,,,,,,,,,,,,,,,,,,,,,,,,,,,,,,,,,,,,,,,,,,,,,,,,,,,,,,,,,,,,,,,,,,,,,,,,,,,,,,,,,
,176876591960,ABC,14/10/2001,001,2023-11-01_21h57.30.924,OS3_Mult_verification,2022.2.4,Win32,59.95203837,,,24,1.8338,1,"[""3"",""backspace"",""2"",""4"",""return""]","[0.8190000000000168,1.3504000000953624,1.4837999999523106,1.667799999952308,1.8006000001430493]",1,16,47,12,1,24,,,,,,,,,,,,,,,,,,,,,,,,,,,,,,,,,,,,,,,,,,,,,,,,,,,,,,,,,,,,,,,,,,,,,,,,,,,,,,,,,,,,,,,,,,,,,,,,,,,,,,,,,,,,,,,,,,,,,,,,,,,,,,,,,,,,,,,,,,,,,,,,,,,,,,,,,,,,,,,,,
,176876591960,ABC,14/10/2001,001,2023-11-01_21h57.30.924,OS3_Mult_verification,2022.2.4,Win32,59.95203837,,,45,1.0885,1,"[""4"",""5"",""return""]","[0.851799999952334,1.0172999999523142,1.0517999999523227]",1,17,48,22,1,45,,,,,,,,,,,,,,,,,,,,,,,,,,,,,,,,,,,,,,,,,,,,,,,,,,,,,,,,,,,,,,,,,,,,,,,,,,,,,,,,,,,,,,,,,,,,,,,,,,,,,,,,,,,,,,,,,,,,,,,,,,,,,,,,,,,,,,,,,,,,,,,,,,,,,,,,,,,,,,,,,
,176876591960,ABC,14/10/2001,001,2023-11-01_21h57.30.924,OS3_Mult_verification,2022.2.4,Win32,59.95203837,,,54,1.0497,1,"[""5"",""4"",""return""]","[0.7703999998569486,0.9664999999999964,1.0149999999999864]",1,18,49,25,1,54,,,,,,,,,,,,,,,,,,,,,,,,,,,,,,,,,,,,,,,,,,,,,,,,,,,,,,,,,,,,,,,,,,,,,,,,,,,,,,,,,,,,,,,,,,,,,,,,,,,,,,,,,,,,,,,,,,,,,,,,,,,,,,,,,,,,,,,,,,,,,,,,,,,,,,,,,,,,,,,,,
,176876591960,ABC,14/10/2001,001,2023-11-01_21h57.30.924,OS3_Mult_verification,2022.2.4,Win32,59.95203837,,,35,1.1055,1,"[""3"",""5"",""return""]","[0.801200000047686,0.9839000000953604,1.0672000000476771]",1,19,50,18,1,35,,,,,,,,,,,,,,,,,,,,,,,,,,,,,,,,,,,,,,,,,,,,,,,,,,,,,,,,,,,,,,,,,,,,,,,,,,,,,,,,,,,,,,,,,,,,,,,,,,,,,,,,,,,,,,,,,,,,,,,,,,,,,,,,,,,,,,,,,,,,,,,,,,,,,,,,,,,,,,,,,
,176876591960,ABC,14/10/2001,001,2023-11-01_21h57.30.924,OS3_Mult_verification,2022.2.4,Win32,59.95203837,,,72,1.2555,1,"[""7"",""2"",""return""]","[0.7362000000476883,1.1441000001430552,1.2171000001430627]",1,20,51,29,1,72,,,,,,,,,,,,,,,,,,,,,,,,,,,,,,,,,,,,,,,,,,,,,,,,,,,,,,,,,,,,,,,,,,,,,,,,,,,,,,,,,,,,,,,,,,,,,,,,,,,,,,,,,,,,,,,,,,,,,,,,,,,,,,,,,,,,,,,,,,,,,,,,,,,,,,,,,,,,,,,,,
,176876591960,ABC,14/10/2001,001,2023-11-01_21h57.30.924,OS3_Mult_verification,2022.2.4,Win32,59.95203837,,,32,1.0993,1,"[""3"",""2"",""return""]","[0.8202000000476914,0.9838000001907403,1.0547000000476885]",1,21,52,17,1,32,,,,,,,,,,,,,,,,,,,,,,,,,,,,,,,,,,,,,,,,,,,,,,,,,,,,,,,,,,,,,,,,,,,,,,,,,,,,,,,,,,,,,,,,,,,,,,,,,,,,,,,,,,,,,,,,,,,,,,,,,,,,,,,,,,,,,,,,,,,,,,,,,,,,,,,,,,,,,,,,,
,176876591960,ABC,14/10/2001,001,2023-11-01_21h57.30.924,OS3_Mult_verification,2022.2.4,Win32,59.95203837,,,20,1.1496,1,"[""2"",""0"",""return""]","[0.6382000000476751,1.0005999999046367,1.1102000000476835]",1,22,53,10,1,20,,,,,,,,,,,,,,,,,,,,,,,,,,,,,,,,,,,,,,,,,,,,,,,,,,,,,,,,,,,,,,,,,,,,,,,,,,,,,,,,,,,,,,,,,,,,,,,,,,,,,,,,,,,,,,,,,,,,,,,,,,,,,,,,,,,,,,,,,,,,,,,,,,,,,,,,,,,,,,,,,
,176876591960,ABC,14/10/2001,001,2023-11-01_21h57.30.924,OS3_Mult_verification,2022.2.4,Win32,59.95203837,,,9,0.9884,1,"[""9"",""return""]","[0.8943999998569723,0.9507999999523236]",1,23,54,3,1,9,,,,,,,,,,,,,,,,,,,,,,,,,,,,,,,,,,,,,,,,,,,,,,,,,,,,,,,,,,,,,,,,,,,,,,,,,,,,,,,,,,,,,,,,,,,,,,,,,,,,,,,,,,,,,,,,,,,,,,,,,,,,,,,,,,,,,,,,,,,,,,,,,,,,,,,,,,,,,,,,,
,176876591960,ABC,14/10/2001,001,2023-11-01_21h57.30.924,OS3_Mult_verification,2022.2.4,Win32,59.95203837,,,25,1.1331,1,"[""2"",""5"",""return""]","[0.7729999999999961,0.9850000000000136,1.0883999998569607]",1,24,55,13,1,25,,,,,,,,,,,,,,,,,,,,,,,,,,,,,,,,,,,,,,,,,,,,,,,,,,,,,,,,,,,,,,,,,,,,,,,,,,,,,,,,,,,,,,,,,,,,,,,,,,,,,,,,,,,,,,,,,,,,,,,,,,,,,,,,,,,,,,,,,,,,,,,,,,,,,,,,,,,,,,,,,
,176876591960,ABC,14/10/2001,001,2023-11-01_21h57.30.924,OS3_Mult_verification,2022.2.4,Win32,59.95203837,,,36,1.1553,1,"[""3"",""6"",""return""]","[0.653700000047678,0.9679000000953693,1.1174000000953868]",1,25,56,19,1,36,,,,,,,,,,,,,,,,,,,,,,,,,,,,,,,,,,,,,,,,,,,,,,,,,,,,,,,,,,,,,,,,,,,,,,,,,,,,,,,,,,,,,,,,,,,,,,,,,,,,,,,,,,,,,,,,,,,,,,,,,,,,,,,,,,,,,,,,,,,,,,,,,,,,,,,,,,,,,,,,,
,176876591960,ABC,14/10/2001,001,2023-11-01_21h57.30.924,OS3_Mult_verification,2022.2.4,Win32,59.95203837,,,8,0.9218,1,"[""8"",""return""]","[0.7894999999999754,0.8837999999523163]",1,26,57,2,1,8,,,,,,,,,,,,,,,,,,,,,,,,,,,,,,,,,,,,,,,,,,,,,,,,,,,,,,,,,,,,,,,,,,,,,,,,,,,,,,,,,,,,,,,,,,,,,,,,,,,,,,,,,,,,,,,,,,,,,,,,,,,,,,,,,,,,,,,,,,,,,,,,,,,,,,,,,,,,,,,,,
,176876591960,ABC,14/10/2001,001,2023-11-01_21h57.30.924,OS3_Mult_verification,2022.2.4,Win32,59.95203837,,,63,1.5224,1,"[""6"",""3"",""return""]","[1.049999999999983,1.3844000000953542,1.4837000000476621]",1,27,58,27,1,63,,,,,,,,,,,,,,,,,,,,,,,,,,,,,,,,,,,,,,,,,,,,,,,,,,,,,,,,,,,,,,,,,,,,,,,,,,,,,,,,,,,,,,,,,,,,,,,,,,,,,,,,,,,,,,,,,,,,,,,,,,,,,,,,,,,,,,,,,,,,,,,,,,,,,,,,,,,,,,,,,
,176876591960,ABC,14/10/2001,001,2023-11-01_21h57.30.924,OS3_Mult_verification,2022.2.4,Win32,59.95203837,,,15,1.105,1,"[""1"",""5"",""return""]","[0.6671999998092701,0.9603999998569464,1.0672999999523256]",1,28,59,7,1,15,,,,,,,,,,,,,,,,,,,,,,,,,,,,,,,,,,,,,,,,,,,,,,,,,,,,,,,,,,,,,,,,,,,,,,,,,,,,,,,,,,,,,,,,,,,,,,,,,,,,,,,,,,,,,,,,,,,,,,,,,,,,,,,,,,,,,,,,,,,,,,,,,,,,,,,,,,,,,,,,,
,176876591960,ABC,14/10/2001,001,2023-11-01_21h57.30.924,OS3_Mult_verification,2022.2.4,Win32,59.95203837,,,14,1.0386,1,"[""1"",""4"",""return""]","[0.6842999999523158,0.833500000000015,1.0002000000476983]",1,29,60,6,1,14,,,,,,,,,,,,,,,,,,,,,,,,,,,,,,,,,,,,,,,,,,,,,,,,,,,,,,,,,,,,,,,,,,,,,,,,,,,,,,,,,,,,,,,,,,,,,,,,,,,,,,,,,,,,,,,,,,,,,,,,,,,,,,,,,,,,,,,,,,,,,,,,,,,,,,,,,,,,,,,,,
,176876591960,ABC,14/10/2001,001,2023-11-01_21h57.30.924,OS3_Mult_verification,2022.2.4,Win32,59.95203837,,,42,1.2826,1,"[""4"",""2"",""return""]","[0.8339000000953831,1.0867999999523192,1.238700000047686]",1,30,61,21,1,42,,,,,,,,,,,,,,,,,,,,,,,,,,,,,,,,,,,,,,,,,,,,,,,,,,,,,,,,,,,,,,,,,,,,,,,,,,,,,,,,,,,,,,,,,,,,,,,,,,,,,,,,,,,,,,,,,,,,,,,,,,,,,,,,,,,,,,,,,,,,,,,,,,,,,,,,,,,,,,,,,
,176876591960,ABC,14/10/2001,001,2023-11-01_21h57.30.924,OS3_Mult_verification,2022.2.4,Win32,59.95203837,,,,,,,,,,,,,,space,3.5906,,,,,,,,,,,,,,,,,,,,,,,,,,,,,,,,,,,,,,,,,,,,,,,,,,,,,,,,,,,,,,,,,,,,,,,,,,,,,,,,,,,,,,,,,,,,,,,,,,,,,,,,,,,,,,,,,,,,,,,,,,,,,,,,,,,,,,,,,,,,,,,,,,,,,,,,,,,,,,,
,176876591960,ABC,14/10/2001,001,2023-11-01_21h57.30.924,OS3_Mult_verification,2022.2.4,Win32,59.95203837,,,,,,,,,,,,,,,,,,,,,,,,,,,,,,,,,,,,,,,,,,,,,,,,,,,,,,,,,,,,,,,,,,,,,,,,,,,,,,,,,,,,,,,,,,,,,,,,,,,,,,,,,,,,,,,,,,,,,,,,,,,,,,,,,,,,,,,,,,,,,,,,,,,,,,,,,,,,,,,,,,,,,,,,,,,,,,
,176876591960,ABC,14/10/2001,001,2023-11-01_21h57.30.924,OS3_Mult_verification,2022.2.4,Win32,59.95203837,,,,,,,,,,,,,,,,space,2.4338,,,,,,,,,,,,,,,,,,,,,,,,,,,,,,,,,,,,,,,,,,,,,,,,,,,,,,,,,,,,,,,,,,,,,,,,,,,,,,,,,,,,,,,,,,,,,,,,,,,,,,,,,,,,,,,,,,,,,,,,,,,,,,,,,,,,,,,,,,,,,,,,,,,,,,,,,,,,,
,176876591960,ABC,14/10/2001,001,2023-11-01_21h57.30.924,OS3_Mult_verification,2022.2.4,Win32,59.95203837,,,,,,,,,,,,,,,,,,20,2.0236,1,"[""2"",""0"",""return""]","[1.0645000000000095,1.5902999999523217,1.7309000000953745]",0,0,0,1,1,2 × 10 =,20,,,,,,,,,,,,,,,,,,,,,,,,,,,,,,,,,,,,,,,,,,,,,,,,,,,,,,,,,,,,,,,,,,,,,,,,,,,,,,,,,,,,,,,,,,,,,,,,,,,,,,,,,,,,,,,,,,,,,,,,,,,,,,,,,,,,,,,,,,,,,,,,,
,176876591960,ABC,14/10/2001,001,2023-11-01_21h57.30.924,OS3_Mult_verification,2022.2.4,Win32,59.95203837,,,,,,,,,,,,,,,,,,22,1.416,1,"[""2"",""2"",""return""]","[0.8704999999999927,1.0159999999999911,1.1132999999523179]",0,1,1,2,1,2 × 11 =,22,,,,,,,,,,,,,,,,,,,,,,,,,,,,,,,,,,,,,,,,,,,,,,,,,,,,,,,,,,,,,,,,,,,,,,,,,,,,,,,,,,,,,,,,,,,,,,,,,,,,,,,,,,,,,,,,,,,,,,,,,,,,,,,,,,,,,,,,,,,,,,,,,
,176876591960,ABC,14/10/2001,001,2023-11-01_21h57.30.924,OS3_Mult_verification,2022.2.4,Win32,59.95203837,,,,,,,,,,,,,,,,,,7,1.5163,1,"[""7"",""return""]","[1.0050999999046155,1.2210999999046237]",0,2,2,0,1,1 × 7 =,7,,,,,,,,,,,,,,,,,,,,,,,,,,,,,,,,,,,,,,,,,,,,,,,,,,,,,,,,,,,,,,,,,,,,,,,,,,,,,,,,,,,,,,,,,,,,,,,,,,,,,,,,,,,,,,,,,,,,,,,,,,,,,,,,,,,,,,,,,,,,,,,,,
,176876591960,ABC,14/10/2001,001,2023-11-01_21h57.30.924,OS3_Mult_verification,2022.2.4,Win32,59.95203837,,,,,,,,,,,,,,,,,,,,,,,,,,,,,,,,,,,,,,,,,,,,,,,,,,,,,,,,,,,,,,,,,,,,,,,,,,,,,,,,,,,,,,,,,,,,,,,,,,,,,,,,,,,,,,,,,,,,,,,,,,,,,,,,,,,,,,,,,,,,,,,,,,,,,,,,,,,,,,,,,,,,,,,,,,,,,,
,176876591960,ABC,14/10/2001,001,2023-11-01_21h57.30.924,OS3_Mult_verification,2022.2.4,Win32,59.95203837,,,,,,,,,,,,,,,,,,,,,,,,,,,,,,,,,,,,,,,,,,,,,,,,,,,,,,,,,,,,,,,,,,,,,,,,,,,,,,,,,,,,,,,,,,,,,,,,,,,,,,,,,,,,,,,,,,,,,,,,,,,,,,,,,,,,,,,,,,,,,,,,,,,,,,,,,,,,,,,,,,,,,,,,,,,,,,
,176876591960,ABC,14/10/2001,001,2023-11-01_21h57.30.924,OS3_Mult_verification,2022.2.4,Win32,59.95203837,,,,,,,,,,,,,,,,,,6,1.415,1,"[""6"",""return""]","[1.0334000000953552,1.1169000000953702]",,,,,,2 × 3 =,6,0,0,0,0,1,,,,,,,,,,,,,,,,,,,,,,,,,,,,,,,,,,,,,,,,,,,,,,,,,,,,,,,,,,,,,,,,,,,,,,,,,,,,,,,,,,,,,,,,,,,,,,,,,,,,,,,,,,,,,,,,,,,,,,,,,,,,,,,,,,,,,,,,,,,,
,176876591960,ABC,14/10/2001,001,2023-11-01_21h57.30.924,OS3_Mult_verification,2022.2.4,Win32,59.95203837,,,,,,,,,,,,,,,,,,40,1.5995,1,"[""4"",""0"",""return""]","[0.8837999999523163,1.1816999998092683,1.2980999999046219]",,,,,,5 × 8 =,40,0,1,1,1,1,,,,,,,,,,,,,,,,,,,,,,,,,,,,,,,,,,,,,,,,,,,,,,,,,,,,,,,,,,,,,,,,,,,,,,,,,,,,,,,,,,,,,,,,,,,,,,,,,,,,,,,,,,,,,,,,,,,,,,,,,,,,,,,,,,,,,,,,,,,,
,176876591960,ABC,14/10/2001,001,2023-11-01_21h57.30.924,OS3_Mult_verification,2022.2.4,Win32,59.95203837,,,,,,,,,,,,,,,,,,12,1.2654,1,"[""1"",""2"",""return""]","[0.734400000095377,0.8672000000476885,0.967000000000013]",,,,,,3 × 4 =,12,0,2,2,2,1,,,,,,,,,,,,,,,,,,,,,,,,,,,,,,,,,,,,,,,,,,,,,,,,,,,,,,,,,,,,,,,,,,,,,,,,,,,,,,,,,,,,,,,,,,,,,,,,,,,,,,,,,,,,,,,,,,,,,,,,,,,,,,,,,,,,,,,,,,,,
,176876591960,ABC,14/10/2001,001,2023-11-01_21h57.30.924,OS3_Mult_verification,2022.2.4,Win32,59.95203837,,,,,,,,,,,,,,,,,,15,1.4328,1,"[""1"",""5"",""return""]","[0.7364000000953581,1.0007999999523065,1.133900000095366]",,,,,,5 × 3 =,15,0,3,3,3,1,,,,,,,,,,,,,,,,,,,,,,,,,,,,,,,,,,,,,,,,,,,,,,,,,,,,,,,,,,,,,,,,,,,,,,,,,,,,,,,,,,,,,,,,,,,,,,,,,,,,,,,,,,,,,,,,,,,,,,,,,,,,,,,,,,,,,,,,,,,,
,176876591960,ABC,14/10/2001,001,2023-11-01_21h57.30.924,OS3_Mult_verification,2022.2.4,Win32,59.95203837,,,,,,,,,,,,,,,,,,8,1.2492,1,"[""8"",""return""]","[0.8840000000000146,0.9512000000476917]",,,,,,2 × 4 =,8,0,4,4,4,1,,,,,,,,,,,,,,,,,,,,,,,,,,,,,,,,,,,,,,,,,,,,,,,,,,,,,,,,,,,,,,,,,,,,,,,,,,,,,,,,,,,,,,,,,,,,,,,,,,,,,,,,,,,,,,,,,,,,,,,,,,,,,,,,,,,,,,,,,,,,
,176876591960,ABC,14/10/2001,001,2023-11-01_21h57.30.924,OS3_Mult_verification,2022.2.4,Win32,59.95203837,,,,,,,,,,,,,,,,,,4,1.1167,1,"[""4"",""return""]","[0.693000000000012,0.8171000001430571]",,,,,,2 × 2 =,4,0,5,5,5,1,,,,,,,,,,,,,,,,,,,,,,,,,,,,,,,,,,,,,,,,,,,,,,,,,,,,,,,,,,,,,,,,,,,,,,,,,,,,,,,,,,,,,,,,,,,,,,,,,,,,,,,,,,,,,,,,,,,,,,,,,,,,,,,,,,,,,,,,,,,,
,176876591960,ABC,14/10/2001,001,2023-11-01_21h57.30.924,OS3_Mult_verification,2022.2.4,Win32,59.95203837,,,,,,,,,,,,,,,,,,20,1.4771,1,"[""2"",""0"",""return""]","[0.783799999952322,1.0722000000476726,1.1712000000476621]",,,,,,4 × 5 =,20,0,6,6,6,1,,,,,,,,,,,,,,,,,,,,,,,,,,,,,,,,,,,,,,,,,,,,,,,,,,,,,,,,,,,,,,,,,,,,,,,,,,,,,,,,,,,,,,,,,,,,,,,,,,,,,,,,,,,,,,,,,,,,,,,,,,,,,,,,,,,,,,,,,,,,
,176876591960,ABC,14/10/2001,001,2023-11-01_21h57.30.924,OS3_Mult_verification,2022.2.4,Win32,59.95203837,,,,,,,,,,,,,,,,,,9,1.354,1,"[""9"",""return""]","[0.9677000000476994,1.0670999999046558]",,,,,,3 × 3 =,9,0,7,7,7,1,,,,,,,,,,,,,,,,,,,,,,,,,,,,,,,,,,,,,,,,,,,,,,,,,,,,,,,,,,,,,,,,,,,,,,,,,,,,,,,,,,,,,,,,,,,,,,,,,,,,,,,,,,,,,,,,,,,,,,,,,,,,,,,,,,,,,,,,,,,,
,176876591960,ABC,14/10/2001,001,2023-11-01_21h57.30.924,OS3_Mult_verification,2022.2.4,Win32,59.95203837,,,,,,,,,,,,,,,,,,10,1.4275,1,"[""1"",""0"",""return""]","[0.6868999998569336,0.9847999999523154,1.11889999985695]",,,,,,5 × 2 =,10,0,8,8,8,1,,,,,,,,,,,,,,,,,,,,,,,,,,,,,,,,,,,,,,,,,,,,,,,,,,,,,,,,,,,,,,,,,,,,,,,,,,,,,,,,,,,,,,,,,,,,,,,,,,,,,,,,,,,,,,,,,,,,,,,,,,,,,,,,,,,,,,,,,,,,
,176876591960,ABC,14/10/2001,001,2023-11-01_21h57.30.924,OS3_Mult_verification,2022.2.4,Win32,59.95203837,,,,,,,,,,,,,,,,,,16,1.4314,1,"[""1"",""6"",""return""]","[0.7680000000000007,1.001299999952323,1.1422999999523142]",,,,,,4 × 4 =,16,0,9,9,9,1,,,,,,,,,,,,,,,,,,,,,,,,,,,,,,,,,,,,,,,,,,,,,,,,,,,,,,,,,,,,,,,,,,,,,,,,,,,,,,,,,,,,,,,,,,,,,,,,,,,,,,,,,,,,,,,,,,,,,,,,,,,,,,,,,,,,,,,,,,,,
,176876591960,ABC,14/10/2001,001,2023-11-01_21h57.30.924,OS3_Mult_verification,2022.2.4,Win32,59.95203837,,,,,,,,,,,,,,,,,,24,1.3645,1,"[""2"",""4"",""return""]","[0.8368999998569393,0.9650000000000034,1.0767999999523283]",,,,,,8 × 3 =,24,0,10,10,10,1,,,,,,,,,,,,,,,,,,,,,,,,,,,,,,,,,,,,,,,,,,,,,,,,,,,,,,,,,,,,,,,,,,,,,,,,,,,,,,,,,,,,,,,,,,,,,,,,,,,,,,,,,,,,,,,,,,,,,,,,,,,,,,,,,,,,,,,,,,,,
,176876591960,ABC,14/10/2001,001,2023-11-01_21h57.30.924,OS3_Mult_verification,2022.2.4,Win32,59.95203837,,,,,,,,,,,,,,,,,,30,1.3868,1,"[""3"",""0"",""return""]","[0.7099000000953879,0.95760000014306,1.0840000000000032]",,,,,,6 × 5 =,30,0,11,11,11,1,,,,,,,,,,,,,,,,,,,,,,,,,,,,,,,,,,,,,,,,,,,,,,,,,,,,,,,,,,,,,,,,,,,,,,,,,,,,,,,,,,,,,,,,,,,,,,,,,,,,,,,,,,,,,,,,,,,,,,,,,,,,,,,,,,,,,,,,,,,,
,176876591960,ABC,14/10/2001,001,2023-11-01_21h57.30.924,OS3_Mult_verification,2022.2.4,Win32,59.95203837,,,,,,,,,,,,,,,,,,14,1.7833,1,"[""1"",""4"",""return""]","[1.1515999999046471,1.3670999999046387,1.4839000000953604]",,,,,,7 × 2 =,14,0,12,12,12,1,,,,,,,,,,,,,,,,,,,,,,,,,,,,,,,,,,,,,,,,,,,,,,,,,,,,,,,,,,,,,,,,,,,,,,,,,,,,,,,,,,,,,,,,,,,,,,,,,,,,,,,,,,,,,,,,,,,,,,,,,,,,,,,,,,,,,,,,,,,,
,176876591960,ABC,14/10/2001,001,2023-11-01_21h57.30.924,OS3_Mult_verification,2022.2.4,Win32,59.95203837,,,,,,,,,,,,,,,,,,27,1.5271,1,"[""2"",""7"",""return""]","[0.7845999999046285,1.1029000000953602,1.222799999952315]",,,,,,3 × 9 =,27,0,13,13,13,1,,,,,,,,,,,,,,,,,,,,,,,,,,,,,,,,,,,,,,,,,,,,,,,,,,,,,,,,,,,,,,,,,,,,,,,,,,,,,,,,,,,,,,,,,,,,,,,,,,,,,,,,,,,,,,,,,,,,,,,,,,,,,,,,,,,,,,,,,,,,
,176876591960,ABC,14/10/2001,001,2023-11-01_21h57.30.924,OS3_Mult_verification,2022.2.4,Win32,59.95203837,,,,,,,,,,,,,,,,,,16,1.3867,1,"[""1"",""6"",""return""]","[0.750600000143038,0.9777000000476903,1.073700000047694]",,,,,,2 × 8 =,16,0,14,14,14,1,,,,,,,,,,,,,,,,,,,,,,,,,,,,,,,,,,,,,,,,,,,,,,,,,,,,,,,,,,,,,,,,,,,,,,,,,,,,,,,,,,,,,,,,,,,,,,,,,,,,,,,,,,,,,,,,,,,,,,,,,,,,,,,,,,,,,,,,,,,,
,176876591960,ABC,14/10/2001,001,2023-11-01_21h57.30.924,OS3_Mult_verification,2022.2.4,Win32,59.95203837,,,,,,,,,,,,,,,,,,24,1.9829,1,"[""2"",""4"",""return""]","[1.3671000001430684,1.533700000047702,1.6835000000000093]",,,,,,4 × 6 =,24,0,15,15,15,1,,,,,,,,,,,,,,,,,,,,,,,,,,,,,,,,,,,,,,,,,,,,,,,,,,,,,,,,,,,,,,,,,,,,,,,,,,,,,,,,,,,,,,,,,,,,,,,,,,,,,,,,,,,,,,,,,,,,,,,,,,,,,,,,,,,,,,,,,,,,
,176876591960,ABC,14/10/2001,001,2023-11-01_21h57.30.924,OS3_Mult_verification,2022.2.4,Win32,59.95203837,,,,,,,,,,,,,,,,,,21,1.7936,1,"[""3"",""backspace"",""2"",""1"",""return""]","[0.6845000000000141,1.1387000000476917,1.250300000190748,1.4003000001907537,1.4907000000476955]",,,,,,7 × 3 =,21,0,16,16,16,1,,,,,,,,,,,,,,,,,,,,,,,,,,,,,,,,,,,,,,,,,,,,,,,,,,,,,,,,,,,,,,,,,,,,,,,,,,,,,,,,,,,,,,,,,,,,,,,,,,,,,,,,,,,,,,,,,,,,,,,,,,,,,,,,,,,,,,,,,,,,
,176876591960,ABC,14/10/2001,001,2023-11-01_21h57.30.924,OS3_Mult_verification,2022.2.4,Win32,59.95203837,,,,,,,,,,,,,,,,,,27,2.1193,1,"[""2"",""7"",""return""]","[1.4749999999999943,1.7342999999523272,1.8170999999046273]",,,,,,9 × 3 =,27,0,17,17,17,1,,,,,,,,,,,,,,,,,,,,,,,,,,,,,,,,,,,,,,,,,,,,,,,,,,,,,,,,,,,,,,,,,,,,,,,,,,,,,,,,,,,,,,,,,,,,,,,,,,,,,,,,,,,,,,,,,,,,,,,,,,,,,,,,,,,,,,,,,,,,
,176876591960,ABC,14/10/2001,001,2023-11-01_21h57.30.924,OS3_Mult_verification,2022.2.4,Win32,59.95203837,,,,,,,,,,,,,,,,,,28,1.7,1,"[""2"",""8"",""return""]","[0.8672000000476885,1.294200000047681,1.4005000000000223]",,,,,,4 × 7 =,28,0,18,18,18,1,,,,,,,,,,,,,,,,,,,,,,,,,,,,,,,,,,,,,,,,,,,,,,,,,,,,,,,,,,,,,,,,,,,,,,,,,,,,,,,,,,,,,,,,,,,,,,,,,,,,,,,,,,,,,,,,,,,,,,,,,,,,,,,,,,,,,,,,,,,,
,176876591960,ABC,14/10/2001,001,2023-11-01_21h57.30.924,OS3_Mult_verification,2022.2.4,Win32,59.95203837,,,,,,,,,,,,,,,,,,18,1.983,1,"[""1"",""5"",""backspace"",""8"",""return""]","[0.7171000001430627,1.0045000000000073,1.4337000000476792,1.5383000001907305,1.6837000000476792]",,,,,,2 × 9 =,18,0,19,19,19,1,,,,,,,,,,,,,,,,,,,,,,,,,,,,,,,,,,,,,,,,,,,,,,,,,,,,,,,,,,,,,,,,,,,,,,,,,,,,,,,,,,,,,,,,,,,,,,,,,,,,,,,,,,,,,,,,,,,,,,,,,,,,,,,,,,,,,,,,,,,,
,176876591960,ABC,14/10/2001,001,2023-11-01_21h57.30.924,OS3_Mult_verification,2022.2.4,Win32,59.95203837,,,,,,,,,,,,,,,,,,72,2.0327,1,"[""7"",""2"",""return""]","[1.0839000000953547,1.3839999999999861,1.731700000047681]",,,,,,9 × 8 =,72,0,20,20,20,1,,,,,,,,,,,,,,,,,,,,,,,,,,,,,,,,,,,,,,,,,,,,,,,,,,,,,,,,,,,,,,,,,,,,,,,,,,,,,,,,,,,,,,,,,,,,,,,,,,,,,,,,,,,,,,,,,,,,,,,,,,,,,,,,,,,,,,,,,,,,
,176876591960,ABC,14/10/2001,001,2023-11-01_21h57.30.924,OS3_Mult_verification,2022.2.4,Win32,59.95203837,,,,,,,,,,,,,,,,,,42,1.816,1,"[""4"",""2"",""return""]","[1.1695999999046194,1.3775999999046178,1.5172000000476942]",,,,,,7 × 6 =,42,0,21,21,21,1,,,,,,,,,,,,,,,,,,,,,,,,,,,,,,,,,,,,,,,,,,,,,,,,,,,,,,,,,,,,,,,,,,,,,,,,,,,,,,,,,,,,,,,,,,,,,,,,,,,,,,,,,,,,,,,,,,,,,,,,,,,,,,,,,,,,,,,,,,,,
,176876591960,ABC,14/10/2001,001,2023-11-01_21h57.30.924,OS3_Mult_verification,2022.2.4,Win32,59.95203837,,,,,,,,,,,,,,,,,,54,1.6997,1,"[""5"",""4"",""return""]","[1.1338999998569363,1.3003999998569498,1.4004999999999939]",,,,,,6 × 9 =,54,0,22,22,22,1,,,,,,,,,,,,,,,,,,,,,,,,,,,,,,,,,,,,,,,,,,,,,,,,,,,,,,,,,,,,,,,,,,,,,,,,,,,,,,,,,,,,,,,,,,,,,,,,,,,,,,,,,,,,,,,,,,,,,,,,,,,,,,,,,,,,,,,,,,,,
,176876591960,ABC,14/10/2001,001,2023-11-01_21h57.30.924,OS3_Mult_verification,2022.2.4,Win32,59.95203837,,,,,,,,,,,,,,,,,,45,1.4662,1,"[""4"",""5"",""return""]","[0.9509000000953733,1.1007000000477092,1.16729999995232]",,,,,,9 × 5 =,45,0,23,23,23,1,,,,,,,,,,,,,,,,,,,,,,,,,,,,,,,,,,,,,,,,,,,,,,,,,,,,,,,,,,,,,,,,,,,,,,,,,,,,,,,,,,,,,,,,,,,,,,,,,,,,,,,,,,,,,,,,,,,,,,,,,,,,,,,,,,,,,,,,,,,,
,176876591960,ABC,14/10/2001,001,2023-11-01_21h57.30.924,OS3_Mult_verification,2022.2.4,Win32,59.95203837,,,,,,,,,,,,,,,,,,56,1.5326,1,"[""5"",""6"",""return""]","[1.0004000000953397,1.1544999999999845,1.2344999999999686]",,,,,,8 × 7 =,56,0,24,24,24,1,,,,,,,,,,,,,,,,,,,,,,,,,,,,,,,,,,,,,,,,,,,,,,,,,,,,,,,,,,,,,,,,,,,,,,,,,,,,,,,,,,,,,,,,,,,,,,,,,,,,,,,,,,,,,,,,,,,,,,,,,,,,,,,,,,,,,,,,,,,,
,176876591960,ABC,14/10/2001,001,2023-11-01_21h57.30.924,OS3_Mult_verification,2022.2.4,Win32,59.95203837,,,,,,,,,,,,,,,,,,36,1.8664,1,"[""3"",""6"",""return""]","[1.1016999998092842,1.460899999856963,1.5670000000000073]",,,,,,6 × 6 =,36,0,25,25,25,1,,,,,,,,,,,,,,,,,,,,,,,,,,,,,,,,,,,,,,,,,,,,,,,,,,,,,,,,,,,,,,,,,,,,,,,,,,,,,,,,,,,,,,,,,,,,,,,,,,,,,,,,,,,,,,,,,,,,,,,,,,,,,,,,,,,,,,,,,,,,
,176876591960,ABC,14/10/2001,001,2023-11-01_21h57.30.924,OS3_Mult_verification,2022.2.4,Win32,59.95203837,,,,,,,,,,,,,,,,,,35,1.5324,1,"[""3"",""5"",""return""]","[0.986600000143028,1.1174000000953583,1.2346000001430184]",,,,,,5 × 7 =,35,0,26,26,26,1,,,,,,,,,,,,,,,,,,,,,,,,,,,,,,,,,,,,,,,,,,,,,,,,,,,,,,,,,,,,,,,,,,,,,,,,,,,,,,,,,,,,,,,,,,,,,,,,,,,,,,,,,,,,,,,,,,,,,,,,,,,,,,,,,,,,,,,,,,,,
,176876591960,ABC,14/10/2001,001,2023-11-01_21h57.30.924,OS3_Mult_verification,2022.2.4,Win32,59.95203837,,,,,,,,,,,,,,,,,,36,1.8499,1,"[""3"",""6"",""return""]","[1.1512000000477087,1.4687999999523527,1.5502999999523013]",,,,,,4 × 9 =,36,0,27,27,27,1,,,,,,,,,,,,,,,,,,,,,,,,,,,,,,,,,,,,,,,,,,,,,,,,,,,,,,,,,,,,,,,,,,,,,,,,,,,,,,,,,,,,,,,,,,,,,,,,,,,,,,,,,,,,,,,,,,,,,,,,,,,,,,,,,,,,,,,,,,,,
,176876591960,ABC,14/10/2001,001,2023-11-01_21h57.30.924,OS3_Mult_verification,2022.2.4,Win32,59.95203837,,,,,,,,,,,,,,,,,,48,1.6993,1,"[""4"",""8"",""return""]","[0.9180000000000064,1.2515000000000214,1.4007000000476637]",,,,,,8 × 6 =,48,0,28,28,28,1,,,,,,,,,,,,,,,,,,,,,,,,,,,,,,,,,,,,,,,,,,,,,,,,,,,,,,,,,,,,,,,,,,,,,,,,,,,,,,,,,,,,,,,,,,,,,,,,,,,,,,,,,,,,,,,,,,,,,,,,,,,,,,,,,,,,,,,,,,,,
,176876591960,ABC,14/10/2001,001,2023-11-01_21h57.30.924,OS3_Mult_verification,2022.2.4,Win32,59.95203837,,,,,,,,,,,,,,,,,,63,1.6496,1,"[""6"",""3"",""return""]","[0.8839000000953661,1.2549999999999955,1.3502000000476642]",,,,,,9 × 7 =,63,0,29,29,29,1,,,,,,,,,,,,,,,,,,,,,,,,,,,,,,,,,,,,,,,,,,,,,,,,,,,,,,,,,,,,,,,,,,,,,,,,,,,,,,,,,,,,,,,,,,,,,,,,,,,,,,,,,,,,,,,,,,,,,,,,,,,,,,,,,,,,,,,,,,,,
,176876591960,ABC,14/10/2001,001,2023-11-01_21h57.30.924,OS3_Mult_verification,2022.2.4,Win32,59.95203837,,,,,,,,,,,,,,,,,,12,1.2498,1,"[""1"",""2"",""return""]","[0.7347999999523154,0.8340999999046517,0.9507999999523236]",,,,,,4 × 3 =,12,0,30,30,30,1,,,,,,,,,,,,,,,,,,,,,,,,,,,,,,,,,,,,,,,,,,,,,,,,,,,,,,,,,,,,,,,,,,,,,,,,,,,,,,,,,,,,,,,,,,,,,,,,,,,,,,,,,,,,,,,,,,,,,,,,,,,,,,,,,,,,,,,,,,,,
,176876591960,ABC,14/10/2001,001,2023-11-01_21h57.30.924,OS3_Mult_verification,2022.2.4,Win32,59.95203837,,,,,,,,,,,,,,,,,,25,1.5327,1,"[""2"",""5"",""return""]","[0.9012999999523004,1.118299999952285,1.234099999904629]",,,,,,5 × 5 =,25,0,31,31,31,1,,,,,,,,,,,,,,,,,,,,,,,,,,,,,,,,,,,,,,,,,,,,,,,,,,,,,,,,,,,,,,,,,,,,,,,,,,,,,,,,,,,,,,,,,,,,,,,,,,,,,,,,,,,,,,,,,,,,,,,,,,,,,,,,,,,,,,,,,,,,
,176876591960,ABC,14/10/2001,001,2023-11-01_21h57.30.924,OS3_Mult_verification,2022.2.4,Win32,59.95203837,,,,,,,,,,,,,,,,,,6,1.2839,1,"[""6"",""return""]","[0.8538000001907449,0.9839999999999804]",,,,,,3 × 2 =,6,0,32,32,32,1,,,,,,,,,,,,,,,,,,,,,,,,,,,,,,,,,,,,,,,,,,,,,,,,,,,,,,,,,,,,,,,,,,,,,,,,,,,,,,,,,,,,,,,,,,,,,,,,,,,,,,,,,,,,,,,,,,,,,,,,,,,,,,,,,,,,,,,,,,,,
,176876591960,ABC,14/10/2001,001,2023-11-01_21h57.30.924,OS3_Mult_verification,2022.2.4,Win32,59.95203837,,,,,,,,,,,,,,,,,,20,1.6261,1,"[""2"",""0"",""return""]","[0.8346999998092883,1.1507999999523122,1.3225000000000477]",,,,,,5 × 4 =,20,0,33,33,33,1,,,,,,,,,,,,,,,,,,,,,,,,,,,,,,,,,,,,,,,,,,,,,,,,,,,,,,,,,,,,,,,,,,,,,,,,,,,,,,,,,,,,,,,,,,,,,,,,,,,,,,,,,,,,,,,,,,,,,,,,,,,,,,,,,,,,,,,,,,,,
,176876591960,ABC,14/10/2001,001,2023-11-01_21h57.30.924,OS3_Mult_verification,2022.2.4,Win32,59.95203837,,,,,,,,,,,,,,,,,,8,1.4206,1,"[""8"",""return""]","[0.9859000000953415,1.1172999999523086]",,,,,,4 × 2 =,8,0,34,34,34,1,,,,,,,,,,,,,,,,,,,,,,,,,,,,,,,,,,,,,,,,,,,,,,,,,,,,,,,,,,,,,,,,,,,,,,,,,,,,,,,,,,,,,,,,,,,,,,,,,,,,,,,,,,,,,,,,,,,,,,,,,,,,,,,,,,,,,,,,,,,,
,176876591960,ABC,14/10/2001,001,2023-11-01_21h57.30.924,OS3_Mult_verification,2022.2.4,Win32,59.95203837,,,,,,,,,,,,,,,,,,12,1.1995,1,"[""1"",""2"",""return""]","[0.7004999999999768,0.7837000000476451,0.9007000000476637]",,,,,,2 × 6 =,12,0,35,35,35,1,,,,,,,,,,,,,,,,,,,,,,,,,,,,,,,,,,,,,,,,,,,,,,,,,,,,,,,,,,,,,,,,,,,,,,,,,,,,,,,,,,,,,,,,,,,,,,,,,,,,,,,,,,,,,,,,,,,,,,,,,,,,,,,,,,,,,,,,,,,,
,176876591960,ABC,14/10/2001,001,2023-11-01_21h57.30.924,OS3_Mult_verification,2022.2.4,Win32,59.95203837,,,,,,,,,,,,,,,,,,15,1.2666,1,"[""1"",""5"",""return""]","[0.6405000000000314,0.833699999809312,0.9675000000000296]",,,,,,3 × 5 =,15,0,36,36,36,1,,,,,,,,,,,,,,,,,,,,,,,,,,,,,,,,,,,,,,,,,,,,,,,,,,,,,,,,,,,,,,,,,,,,,,,,,,,,,,,,,,,,,,,,,,,,,,,,,,,,,,,,,,,,,,,,,,,,,,,,,,,,,,,,,,,,,,,,,,,,
,176876591960,ABC,14/10/2001,001,2023-11-01_21h57.30.924,OS3_Mult_verification,2022.2.4,Win32,59.95203837,,,,,,,,,,,,,,,,,,28,2.3272,0,"[""2"",""backspace"",""2"",""8"",""return""]","[0.8507000000477092,1.3339000000954115,1.5837000000477133,1.817100000143057,2.018299999952319]",,,,,,6 × 3 =,18,0,37,37,37,1,,,,,,,,,,,,,,,,,,,,,,,,,,,,,,,,,,,,,,,,,,,,,,,,,,,,,,,,,,,,,,,,,,,,,,,,,,,,,,,,,,,,,,,,,,,,,,,,,,,,,,,,,,,,,,,,,,,,,,,,,,,,,,,,,,,,,,,,,,,,
,176876591960,ABC,14/10/2001,001,2023-11-01_21h57.30.924,OS3_Mult_verification,2022.2.4,Win32,59.95203837,,,,,,,,,,,,,,,,,,10,1.8859,1,"[""1"",""0"",""return""]","[1.131700000047715,1.4482999999523258,1.6012999999523458]",,,,,,2 × 5 =,10,0,38,38,38,1,,,,,,,,,,,,,,,,,,,,,,,,,,,,,,,,,,,,,,,,,,,,,,,,,,,,,,,,,,,,,,,,,,,,,,,,,,,,,,,,,,,,,,,,,,,,,,,,,,,,,,,,,,,,,,,,,,,,,,,,,,,,,,,,,,,,,,,,,,,,
,176876591960,ABC,14/10/2001,001,2023-11-01_21h57.30.924,OS3_Mult_verification,2022.2.4,Win32,59.95203837,,,,,,,,,,,,,,,,,,32,1.7335,1,"[""3"",""2"",""return""]","[1.1670999999046217,1.2814000000954024,1.4337000000476792]",,,,,,4 × 8 =,32,0,39,39,39,1,,,,,,,,,,,,,,,,,,,,,,,,,,,,,,,,,,,,,,,,,,,,,,,,,,,,,,,,,,,,,,,,,,,,,,,,,,,,,,,,,,,,,,,,,,,,,,,,,,,,,,,,,,,,,,,,,,,,,,,,,,,,,,,,,,,,,,,,,,,,
,176876591960,ABC,14/10/2001,001,2023-11-01_21h57.30.924,OS3_Mult_verification,2022.2.4,Win32,59.95203837,,,,,,,,,,,,,,,,,,24,1.4993,1,"[""2"",""4"",""return""]","[0.9116000001430393,1.0339999999999918,1.2004000000953283]",,,,,,3 × 8 =,24,0,40,40,40,1,,,,,,,,,,,,,,,,,,,,,,,,,,,,,,,,,,,,,,,,,,,,,,,,,,,,,,,,,,,,,,,,,,,,,,,,,,,,,,,,,,,,,,,,,,,,,,,,,,,,,,,,,,,,,,,,,,,,,,,,,,,,,,,,,,,,,,,,,,,,
,176876591960,ABC,14/10/2001,001,2023-11-01_21h57.30.924,OS3_Mult_verification,2022.2.4,Win32,59.95203837,,,,,,,,,,,,,,,,,,30,1.4997,1,"[""3"",""0"",""return""]","[0.8004999999999995,1.0846000001430411,1.2004999999999768]",,,,,,5 × 6 =,30,0,41,41,41,1,,,,,,,,,,,,,,,,,,,,,,,,,,,,,,,,,,,,,,,,,,,,,,,,,,,,,,,,,,,,,,,,,,,,,,,,,,,,,,,,,,,,,,,,,,,,,,,,,,,,,,,,,,,,,,,,,,,,,,,,,,,,,,,,,,,,,,,,,,,,
,176876591960,ABC,14/10/2001,001,2023-11-01_21h57.30.924,OS3_Mult_verification,2022.2.4,Win32,59.95203837,,,,,,,,,,,,,,,,,,14,1.483,1,"[""1"",""4"",""return""]","[0.7337999999522822,0.9036000001430011,1.1839000000953206]",,,,,,2 × 7 =,14,0,42,42,42,1,,,,,,,,,,,,,,,,,,,,,,,,,,,,,,,,,,,,,,,,,,,,,,,,,,,,,,,,,,,,,,,,,,,,,,,,,,,,,,,,,,,,,,,,,,,,,,,,,,,,,,,,,,,,,,,,,,,,,,,,,,,,,,,,,,,,,,,,,,,,
,176876591960,ABC,14/10/2001,001,2023-11-01_21h57.30.924,OS3_Mult_verification,2022.2.4,Win32,59.95203837,,,,,,,,,,,,,,,,,,24,1.8662,1,"[""2"",""4"",""return""]","[1.1680999999046549,1.3502999999523126,1.5668999998569575]",,,,,,6 × 4 =,24,0,43,43,43,1,,,,,,,,,,,,,,,,,,,,,,,,,,,,,,,,,,,,,,,,,,,,,,,,,,,,,,,,,,,,,,,,,,,,,,,,,,,,,,,,,,,,,,,,,,,,,,,,,,,,,,,,,,,,,,,,,,,,,,,,,,,,,,,,,,,,,,,,,,,,
,176876591960,ABC,14/10/2001,001,2023-11-01_21h57.30.924,OS3_Mult_verification,2022.2.4,Win32,59.95203837,,,,,,,,,,,,,,,,,,21,1.3827,1,"[""2"",""1"",""return""]","[0.8575000000000159,0.9649000000953833,1.0836000001430648]",,,,,,3 × 7 =,21,0,44,44,44,1,,,,,,,,,,,,,,,,,,,,,,,,,,,,,,,,,,,,,,,,,,,,,,,,,,,,,,,,,,,,,,,,,,,,,,,,,,,,,,,,,,,,,,,,,,,,,,,,,,,,,,,,,,,,,,,,,,,,,,,,,,,,,,,,,,,,,,,,,,,,
,176876591960,ABC,14/10/2001,001,2023-11-01_21h57.30.924,OS3_Mult_verification,2022.2.4,Win32,59.95203837,,,,,,,,,,,,,,,,,,81,2.194,1,"[""1"",""backspace"",""8"",""1"",""return""]","[0.6422000000476942,1.1942000000476582,1.4003999998569725,1.697999999999979,1.8902000000476846]",,,,,,9 × 9 =,81,0,45,45,45,1,,,,,,,,,,,,,,,,,,,,,,,,,,,,,,,,,,,,,,,,,,,,,,,,,,,,,,,,,,,,,,,,,,,,,,,,,,,,,,,,,,,,,,,,,,,,,,,,,,,,,,,,,,,,,,,,,,,,,,,,,,,,,,,,,,,,,,,,,,,,
,176876591960,ABC,14/10/2001,001,2023-11-01_21h57.30.924,OS3_Mult_verification,2022.2.4,Win32,59.95203837,,,,,,,,,,,,,,,,,,16,1.5201,1,"[""1"",""6"",""return""]","[0.7012000000476633,1.0679000000953351,1.2337999999522822]",,,,,,8 × 2 =,16,0,46,46,46,1,,,,,,,,,,,,,,,,,,,,,,,,,,,,,,,,,,,,,,,,,,,,,,,,,,,,,,,,,,,,,,,,,,,,,,,,,,,,,,,,,,,,,,,,,,,,,,,,,,,,,,,,,,,,,,,,,,,,,,,,,,,,,,,,,,,,,,,,,,,,
,176876591960,ABC,14/10/2001,001,2023-11-01_21h57.30.924,OS3_Mult_verification,2022.2.4,Win32,59.95203837,,,,,,,,,,,,,,,,,,48,2.2273,1,"[""4"",""8"",""return""]","[1.2934999999999945,1.5342999999522817,1.917799999952308]",,,,,,6 × 8 =,48,0,47,47,47,1,,,,,,,,,,,,,,,,,,,,,,,,,,,,,,,,,,,,,,,,,,,,,,,,,,,,,,,,,,,,,,,,,,,,,,,,,,,,,,,,,,,,,,,,,,,,,,,,,,,,,,,,,,,,,,,,,,,,,,,,,,,,,,,,,,,,,,,,,,,,
,176876591960,ABC,14/10/2001,001,2023-11-01_21h57.30.924,OS3_Mult_verification,2022.2.4,Win32,59.95203837,,,,,,,,,,,,,,,,,,28,4.037,1,"[""2"",""2"",""8"",""backspace"",""backspace"",""8"",""return""]","[1.7504999999999882,1.8172000000476487,2.237900000095351,2.973000000000013,3.133900000095366,3.5174000000953356,3.750600000143038]",,,,,,7 × 4 =,28,0,48,48,48,1,,,,,,,,,,,,,,,,,,,,,,,,,,,,,,,,,,,,,,,,,,,,,,,,,,,,,,,,,,,,,,,,,,,,,,,,,,,,,,,,,,,,,,,,,,,,,,,,,,,,,,,,,,,,,,,,,,,,,,,,,,,,,,,,,,,,,,,,,,,,
,176876591960,ABC,14/10/2001,001,2023-11-01_21h57.30.924,OS3_Mult_verification,2022.2.4,Win32,59.95203837,,,,,,,,,,,,,,,,,,18,1.6362,1,"[""1"",""8"",""return""]","[0.7004999999999768,1.1348999998569411,1.350499999999954]",,,,,,9 × 2 =,18,0,49,49,49,1,,,,,,,,,,,,,,,,,,,,,,,,,,,,,,,,,,,,,,,,,,,,,,,,,,,,,,,,,,,,,,,,,,,,,,,,,,,,,,,,,,,,,,,,,,,,,,,,,,,,,,,,,,,,,,,,,,,,,,,,,,,,,,,,,,,,,,,,,,,,
,176876591960,ABC,14/10/2001,001,2023-11-01_21h57.30.924,OS3_Mult_verification,2022.2.4,Win32,59.95203837,,,,,,,,,,,,,,,,,,35,1.5328,1,"[""3"",""5"",""return""]","[0.9148000001907235,1.1337000000476678,1.233600000143042]",,,,,,7 × 5 =,35,0,50,50,50,1,,,,,,,,,,,,,,,,,,,,,,,,,,,,,,,,,,,,,,,,,,,,,,,,,,,,,,,,,,,,,,,,,,,,,,,,,,,,,,,,,,,,,,,,,,,,,,,,,,,,,,,,,,,,,,,,,,,,,,,,,,,,,,,,,,,,,,,,,,,,
,176876591960,ABC,14/10/2001,001,2023-11-01_21h57.30.924,OS3_Mult_verification,2022.2.4,Win32,59.95203837,,,,,,,,,,,,,,,,,,36,1.5833,1,"[""3"",""6"",""return""]","[1.0122999999523472,1.1838999998569761,1.2839999999999918]",,,,,,9 × 4 =,36,0,51,51,51,1,,,,,,,,,,,,,,,,,,,,,,,,,,,,,,,,,,,,,,,,,,,,,,,,,,,,,,,,,,,,,,,,,,,,,,,,,,,,,,,,,,,,,,,,,,,,,,,,,,,,,,,,,,,,,,,,,,,,,,,,,,,,,,,,,,,,,,,,,,,,
,176876591960,ABC,14/10/2001,001,2023-11-01_21h57.30.924,OS3_Mult_verification,2022.2.4,Win32,59.95203837,,,,,,,,,,,,,,,,,,64,1.5165,1,"[""6"",""4"",""return""]","[0.9012000000477087,1.133900000095366,1.2151000001430248]",,,,,,8 × 8 =,64,0,52,52,52,1,,,,,,,,,,,,,,,,,,,,,,,,,,,,,,,,,,,,,,,,,,,,,,,,,,,,,,,,,,,,,,,,,,,,,,,,,,,,,,,,,,,,,,,,,,,,,,,,,,,,,,,,,,,,,,,,,,,,,,,,,,,,,,,,,,,,,,,,,,,,
,176876591960,ABC,14/10/2001,001,2023-11-01_21h57.30.924,OS3_Mult_verification,2022.2.4,Win32,59.95203837,,,,,,,,,,,,,,,,,,45,1.4492,1,"[""4"",""5"",""return""]","[0.9170999999046217,1.0672999999522972,1.150599999904614]",,,,,,5 × 9 =,45,0,53,53,53,1,,,,,,,,,,,,,,,,,,,,,,,,,,,,,,,,,,,,,,,,,,,,,,,,,,,,,,,,,,,,,,,,,,,,,,,,,,,,,,,,,,,,,,,,,,,,,,,,,,,,,,,,,,,,,,,,,,,,,,,,,,,,,,,,,,,,,,,,,,,,
,176876591960,ABC,14/10/2001,001,2023-11-01_21h57.30.924,OS3_Mult_verification,2022.2.4,Win32,59.95203837,,,,,,,,,,,,,,,,,,,1.0657,0,,,,,,,,7 × 8 =,56,0,54,54,54,1,,,,,,,,,,,,,,,,,,,,,,,,,,,,,,,,,,,,,,,,,,,,,,,,,,,,,,,,,,,,,,,,,,,,,,,,,,,,,,,,,,,,,,,,,,,,,,,,,,,,,,,,,,,,,,,,,,,,,,,,,,,,,,,,,,,,,,,,,,,,
,176876591960,ABC,14/10/2001,001,2023-11-01_21h57.30.924,OS3_Mult_verification,2022.2.4,Win32,59.95203837,,,,,,,,,,,,,,,,space,1.5184,,,,,,,,,,,,,,,,,,right,1,1.94,0,0,0,1,1,practice,4,3,4 | 3,1,0.05,0.065,incongruent,right,,,,,,,,,,,,,,,,,,,,,,,,,,,,,,,,,,,,,,,,,,,,,,,,,,,,,,,,,,,,,,,,,,,,,,,,,,,,,,,,,,,,,,,,,,,,,,,,,,,,,,,,,,,,,,,,,,,,,,,,,,,
,176876591960,ABC,14/10/2001,001,2023-11-01_21h57.30.924,OS3_Mult_verification,2022.2.4,Win32,59.95203837,,,,,,,,,,,,,,,,,,,,,,,,,,,,,,,,,,,right,1,0.5006,0,1,1,2,1,practice,9,9,9 | 9,0,0.05,0.065,neutral,right,,,,,,,,,,,,,,,,,,,,,,,,,,,,,,,,,,,,,,,,,,,,,,,,,,,,,,,,,,,,,,,,,,,,,,,,,,,,,,,,,,,,,,,,,,,,,,,,,,,,,,,,,,,,,,,,,,,,,,,,,,,
,176876591960,ABC,14/10/2001,001,2023-11-01_21h57.30.924,OS3_Mult_verification,2022.2.4,Win32,59.95203837,,,,,,,,,,,,,,,,,,,,,,,,,,,,,,,,,,,left,1,0.4362,0,2,2,0,1,practice,9,8,9 | 8,1,0.065,0.05,congruent,left,,,,,,,,,,,,,,,,,,,,,,,,,,,,,,,,,,,,,,,,,,,,,,,,,,,,,,,,,,,,,,,,,,,,,,,,,,,,,,,,,,,,,,,,,,,,,,,,,,,,,,,,,,,,,,,,,,,,,,,,,,,
,176876591960,ABC,14/10/2001,001,2023-11-01_21h57.30.924,OS3_Mult_verification,2022.2.4,Win32,59.95203837,,,,,,,,,,,,,,,,,,,,,,,,,,,,,,,,,,,left,1,0.5787,,,,,,physical,6,7,6 | 7,1,0.065,0.05,incongruent,left,0,0,0,26,1,,,,,,,,,,,,,,,,,,,,,,,,,,,,,,,,,,,,,,,,,,,,,,,,,,,,,,,,,,,,,,,,,,,,,,,,,,,,,,,,,,,,,,,,,,,,,,,,,,,,,,,,,,,,,,,,,,,,,,
,176876591960,ABC,14/10/2001,001,2023-11-01_21h57.30.924,OS3_Mult_verification,2022.2.4,Win32,59.95203837,,,,,,,,,,,,,,,,,,,,,,,,,,,,,,,,,,,left,1,0.4901,,,,,,physical,6,6,6 | 6,0,0.065,0.05,neutral,left,0,1,1,68,1,,,,,,,,,,,,,,,,,,,,,,,,,,,,,,,,,,,,,,,,,,,,,,,,,,,,,,,,,,,,,,,,,,,,,,,,,,,,,,,,,,,,,,,,,,,,,,,,,,,,,,,,,,,,,,,,,,,,,,
,176876591960,ABC,14/10/2001,001,2023-11-01_21h57.30.924,OS3_Mult_verification,2022.2.4,Win32,59.95203837,,,,,,,,,,,,,,,,,,,,,,,,,,,,,,,,,,,right,1,0.46,,,,,,physical,1,2,1 | 2,1,0.05,0.065,congruent,right,0,2,2,0,1,,,,,,,,,,,,,,,,,,,,,,,,,,,,,,,,,,,,,,,,,,,,,,,,,,,,,,,,,,,,,,,,,,,,,,,,,,,,,,,,,,,,,,,,,,,,,,,,,,,,,,,,,,,,,,,,,,,,,,
,176876591960,ABC,14/10/2001,001,2023-11-01_21h57.30.924,OS3_Mult_verification,2022.2.4,Win32,59.95203837,,,,,,,,,,,,,,,,,,,,,,,,,,,,,,,,,,,right,1,0.5002,,,,,,physical,8,8,8 | 8,0,0.05,0.065,neutral,right,0,3,3,62,1,,,,,,,,,,,,,,,,,,,,,,,,,,,,,,,,,,,,,,,,,,,,,,,,,,,,,,,,,,,,,,,,,,,,,,,,,,,,,,,,,,,,,,,,,,,,,,,,,,,,,,,,,,,,,,,,,,,,,,
,176876591960,ABC,14/10/2001,001,2023-11-01_21h57.30.924,OS3_Mult_verification,2022.2.4,Win32,59.95203837,,,,,,,,,,,,,,,,,,,,,,,,,,,,,,,,,,,right,1,0.5823,,,,,,physical,9,8,9 | 8,1,0.05,0.065,incongruent,right,0,4,4,31,1,,,,,,,,,,,,,,,,,,,,,,,,,,,,,,,,,,,,,,,,,,,,,,,,,,,,,,,,,,,,,,,,,,,,,,,,,,,,,,,,,,,,,,,,,,,,,,,,,,,,,,,,,,,,,,,,,,,,,,
,176876591960,ABC,14/10/2001,001,2023-11-01_21h57.30.924,OS3_Mult_verification,2022.2.4,Win32,59.95203837,,,,,,,,,,,,,,,,,,,,,,,,,,,,,,,,,,,right,1,1.4194,,,,,,physical,2,7,2 | 7,5,0.05,0.065,congruent,right,0,5,5,17,1,,,,,,,,,,,,,,,,,,,,,,,,,,,,,,,,,,,,,,,,,,,,,,,,,,,,,,,,,,,,,,,,,,,,,,,,,,,,,,,,,,,,,,,,,,,,,,,,,,,,,,,,,,,,,,,,,,,,,,
,176876591960,ABC,14/10/2001,001,2023-11-01_21h57.30.924,OS3_Mult_verification,2022.2.4,Win32,59.95203837,,,,,,,,,,,,,,,,,,,,,,,,,,,,,,,,,,,left,1,0.4968,,,,,,physical,2,7,2 | 7,5,0.065,0.05,incongruent,left,0,6,6,41,1,,,,,,,,,,,,,,,,,,,,,,,,,,,,,,,,,,,,,,,,,,,,,,,,,,,,,,,,,,,,,,,,,,,,,,,,,,,,,,,,,,,,,,,,,,,,,,,,,,,,,,,,,,,,,,,,,,,,,,
,176876591960,ABC,14/10/2001,001,2023-11-01_21h57.30.924,OS3_Mult_verification,2022.2.4,Win32,59.95203837,,,,,,,,,,,,,,,,,,,,,,,,,,,,,,,,,,,left,1,0.492,,,,,,physical,9,7,9 | 7,2,0.065,0.05,congruent,left,0,7,7,15,1,,,,,,,,,,,,,,,,,,,,,,,,,,,,,,,,,,,,,,,,,,,,,,,,,,,,,,,,,,,,,,,,,,,,,,,,,,,,,,,,,,,,,,,,,,,,,,,,,,,,,,,,,,,,,,,,,,,,,,
,176876591960,ABC,14/10/2001,001,2023-11-01_21h57.30.924,OS3_Mult_verification,2022.2.4,Win32,59.95203837,,,,,,,,,,,,,,,,,,,,,,,,,,,,,,,,,,,left,1,0.4683,,,,,,physical,6,6,6 | 6,0,0.065,0.05,neutral,left,0,8,8,50,1,,,,,,,,,,,,,,,,,,,,,,,,,,,,,,,,,,,,,,,,,,,,,,,,,,,,,,,,,,,,,,,,,,,,,,,,,,,,,,,,,,,,,,,,,,,,,,,,,,,,,,,,,,,,,,,,,,,,,,
,176876591960,ABC,14/10/2001,001,2023-11-01_21h57.30.924,OS3_Mult_verification,2022.2.4,Win32,59.95203837,,,,,,,,,,,,,,,,,,,,,,,,,,,,,,,,,,,right,1,0.4464,,,,,,physical,1,3,1 | 3,2,0.05,0.065,congruent,right,0,9,9,8,1,,,,,,,,,,,,,,,,,,,,,,,,,,,,,,,,,,,,,,,,,,,,,,,,,,,,,,,,,,,,,,,,,,,,,,,,,,,,,,,,,,,,,,,,,,,,,,,,,,,,,,,,,,,,,,,,,,,,,,
,176876591960,ABC,14/10/2001,001,2023-11-01_21h57.30.924,OS3_Mult_verification,2022.2.4,Win32,59.95203837,,,,,,,,,,,,,,,,,,,,,,,,,,,,,,,,,,,left,1,0.4107,,,,,,physical,6,8,6 | 8,2,0.065,0.05,incongruent,left,0,10,10,34,1,,,,,,,,,,,,,,,,,,,,,,,,,,,,,,,,,,,,,,,,,,,,,,,,,,,,,,,,,,,,,,,,,,,,,,,,,,,,,,,,,,,,,,,,,,,,,,,,,,,,,,,,,,,,,,,,,,,,,,
,176876591960,ABC,14/10/2001,001,2023-11-01_21h57.30.924,OS3_Mult_verification,2022.2.4,Win32,59.95203837,,,,,,,,,,,,,,,,,,,,,,,,,,,,,,,,,,,left,1,0.4976,,,,,,physical,9,9,9 | 9,0,0.065,0.05,neutral,left,0,11,11,55,1,,,,,,,,,,,,,,,,,,,,,,,,,,,,,,,,,,,,,,,,,,,,,,,,,,,,,,,,,,,,,,,,,,,,,,,,,,,,,,,,,,,,,,,,,,,,,,,,,,,,,,,,,,,,,,,,,,,,,,
,176876591960,ABC,14/10/2001,001,2023-11-01_21h57.30.924,OS3_Mult_verification,2022.2.4,Win32,59.95203837,,,,,,,,,,,,,,,,,,,,,,,,,,,,,,,,,,,right,1,0.6306,,,,,,physical,9,7,9 | 7,2,0.05,0.065,incongruent,right,0,12,12,39,1,,,,,,,,,,,,,,,,,,,,,,,,,,,,,,,,,,,,,,,,,,,,,,,,,,,,,,,,,,,,,,,,,,,,,,,,,,,,,,,,,,,,,,,,,,,,,,,,,,,,,,,,,,,,,,,,,,,,,,
,176876591960,ABC,14/10/2001,001,2023-11-01_21h57.30.924,OS3_Mult_verification,2022.2.4,Win32,59.95203837,,,,,,,,,,,,,,,,,,,,,,,,,,,,,,,,,,,right,1,0.4629,,,,,,physical,9,9,9 | 9,0,0.05,0.065,neutral,right,0,13,13,71,1,,,,,,,,,,,,,,,,,,,,,,,,,,,,,,,,,,,,,,,,,,,,,,,,,,,,,,,,,,,,,,,,,,,,,,,,,,,,,,,,,,,,,,,,,,,,,,,,,,,,,,,,,,,,,,,,,,,,,,
,176876591960,ABC,14/10/2001,001,2023-11-01_21h57.30.924,OS3_Mult_verification,2022.2.4,Win32,59.95203837,,,,,,,,,,,,,,,,,,,,,,,,,,,,,,,,,,,left,1,0.4147,,,,,,physical,7,7,7 | 7,0,0.065,0.05,neutral,left,0,14,14,54,1,,,,,,,,,,,,,,,,,,,,,,,,,,,,,,,,,,,,,,,,,,,,,,,,,,,,,,,,,,,,,,,,,,,,,,,,,,,,,,,,,,,,,,,,,,,,,,,,,,,,,,,,,,,,,,,,,,,,,,
,176876591960,ABC,14/10/2001,001,2023-11-01_21h57.30.924,OS3_Mult_verification,2022.2.4,Win32,59.95203837,,,,,,,,,,,,,,,,,,,,,,,,,,,,,,,,,,,left,1,0.4526,,,,,,physical,7,6,7 | 6,1,0.065,0.05,congruent,left,0,15,15,6,1,,,,,,,,,,,,,,,,,,,,,,,,,,,,,,,,,,,,,,,,,,,,,,,,,,,,,,,,,,,,,,,,,,,,,,,,,,,,,,,,,,,,,,,,,,,,,,,,,,,,,,,,,,,,,,,,,,,,,,
,176876591960,ABC,14/10/2001,001,2023-11-01_21h57.30.924,OS3_Mult_verification,2022.2.4,Win32,59.95203837,,,,,,,,,,,,,,,,,,,,,,,,,,,,,,,,,,,right,1,0.3825,,,,,,physical,6,7,6 | 7,1,0.05,0.065,congruent,right,0,16,16,2,1,,,,,,,,,,,,,,,,,,,,,,,,,,,,,,,,,,,,,,,,,,,,,,,,,,,,,,,,,,,,,,,,,,,,,,,,,,,,,,,,,,,,,,,,,,,,,,,,,,,,,,,,,,,,,,,,,,,,,,
,176876591960,ABC,14/10/2001,001,2023-11-01_21h57.30.924,OS3_Mult_verification,2022.2.4,Win32,59.95203837,,,,,,,,,,,,,,,,,,,,,,,,,,,,,,,,,,,left,1,0.445,,,,,,physical,1,1,1 | 1,0,0.065,0.05,neutral,left,0,17,17,64,1,,,,,,,,,,,,,,,,,,,,,,,,,,,,,,,,,,,,,,,,,,,,,,,,,,,,,,,,,,,,,,,,,,,,,,,,,,,,,,,,,,,,,,,,,,,,,,,,,,,,,,,,,,,,,,,,,,,,,,
,176876591960,ABC,14/10/2001,001,2023-11-01_21h57.30.924,OS3_Mult_verification,2022.2.4,Win32,59.95203837,,,,,,,,,,,,,,,,,,,,,,,,,,,,,,,,,,,right,1,0.4286,,,,,,physical,1,1,1 | 1,0,0.05,0.065,neutral,right,0,18,18,56,1,,,,,,,,,,,,,,,,,,,,,,,,,,,,,,,,,,,,,,,,,,,,,,,,,,,,,,,,,,,,,,,,,,,,,,,,,,,,,,,,,,,,,,,,,,,,,,,,,,,,,,,,,,,,,,,,,,,,,,
,176876591960,ABC,14/10/2001,001,2023-11-01_21h57.30.924,OS3_Mult_verification,2022.2.4,Win32,59.95203837,,,,,,,,,,,,,,,,,,,,,,,,,,,,,,,,,,,left,1,0.3296,,,,,,physical,4,3,4 | 3,1,0.065,0.05,congruent,left,0,19,19,5,1,,,,,,,,,,,,,,,,,,,,,,,,,,,,,,,,,,,,,,,,,,,,,,,,,,,,,,,,,,,,,,,,,,,,,,,,,,,,,,,,,,,,,,,,,,,,,,,,,,,,,,,,,,,,,,,,,,,,,,
,176876591960,ABC,14/10/2001,001,2023-11-01_21h57.30.924,OS3_Mult_verification,2022.2.4,Win32,59.95203837,,,,,,,,,,,,,,,,,,,,,,,,,,,,,,,,,,,left,1,0.5477,,,,,,physical,8,6,8 | 6,2,0.065,0.05,congruent,left,0,20,20,14,1,,,,,,,,,,,,,,,,,,,,,,,,,,,,,,,,,,,,,,,,,,,,,,,,,,,,,,,,,,,,,,,,,,,,,,,,,,,,,,,,,,,,,,,,,,,,,,,,,,,,,,,,,,,,,,,,,,,,,,
,176876591960,ABC,14/10/2001,001,2023-11-01_21h57.30.924,OS3_Mult_verification,2022.2.4,Win32,59.95203837,,,,,,,,,,,,,,,,,,,,,,,,,,,,,,,,,,,right,1,0.5553,,,,,,physical,2,2,2 | 2,0,0.05,0.065,neutral,right,0,21,21,57,1,,,,,,,,,,,,,,,,,,,,,,,,,,,,,,,,,,,,,,,,,,,,,,,,,,,,,,,,,,,,,,,,,,,,,,,,,,,,,,,,,,,,,,,,,,,,,,,,,,,,,,,,,,,,,,,,,,,,,,
,176876591960,ABC,14/10/2001,001,2023-11-01_21h57.30.924,OS3_Mult_verification,2022.2.4,Win32,59.95203837,,,,,,,,,,,,,,,,,,,,,,,,,,,,,,,,,,,right,1,0.483,,,,,,physical,4,3,4 | 3,1,0.05,0.065,incongruent,right,0,22,22,29,1,,,,,,,,,,,,,,,,,,,,,,,,,,,,,,,,,,,,,,,,,,,,,,,,,,,,,,,,,,,,,,,,,,,,,,,,,,,,,,,,,,,,,,,,,,,,,,,,,,,,,,,,,,,,,,,,,,,,,,
,176876591960,ABC,14/10/2001,001,2023-11-01_21h57.30.924,OS3_Mult_verification,2022.2.4,Win32,59.95203837,,,,,,,,,,,,,,,,,,,,,,,,,,,,,,,,,,,left,1,0.4199,,,,,,physical,2,1,2 | 1,1,0.065,0.05,congruent,left,0,23,23,4,1,,,,,,,,,,,,,,,,,,,,,,,,,,,,,,,,,,,,,,,,,,,,,,,,,,,,,,,,,,,,,,,,,,,,,,,,,,,,,,,,,,,,,,,,,,,,,,,,,,,,,,,,,,,,,,,,,,,,,,
,176876591960,ABC,14/10/2001,001,2023-11-01_21h57.30.924,OS3_Mult_verification,2022.2.4,Win32,59.95203837,,,,,,,,,,,,,,,,,,,,,,,,,,,,,,,,,,,right,1,0.5208,,,,,,physical,4,4,4 | 4,0,0.05,0.065,neutral,right,0,24,24,61,1,,,,,,,,,,,,,,,,,,,,,,,,,,,,,,,,,,,,,,,,,,,,,,,,,,,,,,,,,,,,,,,,,,,,,,,,,,,,,,,,,,,,,,,,,,,,,,,,,,,,,,,,,,,,,,,,,,,,,,
,176876591960,ABC,14/10/2001,001,2023-11-01_21h57.30.924,OS3_Mult_verification,2022.2.4,Win32,59.95203837,,,,,,,,,,,,,,,,,,,,,,,,,,,,,,,,,,,left,1,0.4824,,,,,,physical,3,4,3 | 4,1,0.065,0.05,incongruent,left,0,25,25,25,1,,,,,,,,,,,,,,,,,,,,,,,,,,,,,,,,,,,,,,,,,,,,,,,,,,,,,,,,,,,,,,,,,,,,,,,,,,,,,,,,,,,,,,,,,,,,,,,,,,,,,,,,,,,,,,,,,,,,,,
,176876591960,ABC,14/10/2001,001,2023-11-01_21h57.30.924,OS3_Mult_verification,2022.2.4,Win32,59.95203837,,,,,,,,,,,,,,,,,,,,,,,,,,,,,,,,,,,left,1,0.4197,,,,,,physical,8,9,8 | 9,1,0.065,0.05,incongruent,left,0,26,26,27,1,,,,,,,,,,,,,,,,,,,,,,,,,,,,,,,,,,,,,,,,,,,,,,,,,,,,,,,,,,,,,,,,,,,,,,,,,,,,,,,,,,,,,,,,,,,,,,,,,,,,,,,,,,,,,,,,,,,,,,
,176876591960,ABC,14/10/2001,001,2023-11-01_21h57.30.924,OS3_Mult_verification,2022.2.4,Win32,59.95203837,,,,,,,,,,,,,,,,,,,,,,,,,,,,,,,,,,,left,1,0.4486,,,,,,physical,6,1,6 | 1,5,0.065,0.05,congruent,left,0,27,27,20,1,,,,,,,,,,,,,,,,,,,,,,,,,,,,,,,,,,,,,,,,,,,,,,,,,,,,,,,,,,,,,,,,,,,,,,,,,,,,,,,,,,,,,,,,,,,,,,,,,,,,,,,,,,,,,,,,,,,,,,
,176876591960,ABC,14/10/2001,001,2023-11-01_21h57.30.924,OS3_Mult_verification,2022.2.4,Win32,59.95203837,,,,,,,,,,,,,,,,,,,,,,,,,,,,,,,,,,,right,1,0.42,,,,,,physical,1,6,1 | 6,5,0.05,0.065,congruent,right,0,28,28,16,1,,,,,,,,,,,,,,,,,,,,,,,,,,,,,,,,,,,,,,,,,,,,,,,,,,,,,,,,,,,,,,,,,,,,,,,,,,,,,,,,,,,,,,,,,,,,,,,,,,,,,,,,,,,,,,,,,,,,,,
,176876591960,ABC,14/10/2001,001,2023-11-01_21h57.30.924,OS3_Mult_verification,2022.2.4,Win32,59.95203837,,,,,,,,,,,,,,,,,,,,,,,,,,,,,,,,,,,left,1,0.416,,,,,,physical,4,9,4 | 9,5,0.065,0.05,incongruent,left,0,29,29,43,1,,,,,,,,,,,,,,,,,,,,,,,,,,,,,,,,,,,,,,,,,,,,,,,,,,,,,,,,,,,,,,,,,,,,,,,,,,,,,,,,,,,,,,,,,,,,,,,,,,,,,,,,,,,,,,,,,,,,,,
,176876591960,ABC,14/10/2001,001,2023-11-01_21h57.30.924,OS3_Mult_verification,2022.2.4,Win32,59.95203837,,,,,,,,,,,,,,,,,,,,,,,,,,,,,,,,,,,left,1,0.4233,,,,,,physical,4,4,4 | 4,0,0.065,0.05,neutral,left,0,30,30,53,1,,,,,,,,,,,,,,,,,,,,,,,,,,,,,,,,,,,,,,,,,,,,,,,,,,,,,,,,,,,,,,,,,,,,,,,,,,,,,,,,,,,,,,,,,,,,,,,,,,,,,,,,,,,,,,,,,,,,,,
,176876591960,ABC,14/10/2001,001,2023-11-01_21h57.30.924,OS3_Mult_verification,2022.2.4,Win32,59.95203837,,,,,,,,,,,,,,,,,,,,,,,,,,,,,,,,,,,left,1,0.4635,,,,,,physical,3,1,3 | 1,2,0.065,0.05,congruent,left,0,31,31,12,1,,,,,,,,,,,,,,,,,,,,,,,,,,,,,,,,,,,,,,,,,,,,,,,,,,,,,,,,,,,,,,,,,,,,,,,,,,,,,,,,,,,,,,,,,,,,,,,,,,,,,,,,,,,,,,,,,,,,,,
,176876591960,ABC,14/10/2001,001,2023-11-01_21h57.30.924,OS3_Mult_verification,2022.2.4,Win32,59.95203837,,,,,,,,,,,,,,,,,,,,,,,,,,,,,,,,,,,left,1,0.4208,,,,,,physical,4,2,4 | 2,2,0.065,0.05,congruent,left,0,32,32,13,1,,,,,,,,,,,,,,,,,,,,,,,,,,,,,,,,,,,,,,,,,,,,,,,,,,,,,,,,,,,,,,,,,,,,,,,,,,,,,,,,,,,,,,,,,,,,,,,,,,,,,,,,,,,,,,,,,,,,,,
,176876591960,ABC,14/10/2001,001,2023-11-01_21h57.30.924,OS3_Mult_verification,2022.2.4,Win32,59.95203837,,,,,,,,,,,,,,,,,,,,,,,,,,,,,,,,,,,right,1,0.4108,,,,,,physical,8,9,8 | 9,1,0.05,0.065,congruent,right,0,33,33,3,1,,,,,,,,,,,,,,,,,,,,,,,,,,,,,,,,,,,,,,,,,,,,,,,,,,,,,,,,,,,,,,,,,,,,,,,,,,,,,,,,,,,,,,,,,,,,,,,,,,,,,,,,,,,,,,,,,,,,,,
,176876591960,ABC,14/10/2001,001,2023-11-01_21h57.30.924,OS3_Mult_verification,2022.2.4,Win32,59.95203837,,,,,,,,,,,,,,,,,,,,,,,,,,,,,,,,,,,left,1,0.4634,,,,,,physical,8,3,8 | 3,5,0.065,0.05,congruent,left,0,34,34,22,1,,,,,,,,,,,,,,,,,,,,,,,,,,,,,,,,,,,,,,,,,,,,,,,,,,,,,,,,,,,,,,,,,,,,,,,,,,,,,,,,,,,,,,,,,,,,,,,,,,,,,,,,,,,,,,,,,,,,,,
,176876591960,ABC,14/10/2001,001,2023-11-01_21h57.30.924,OS3_Mult_verification,2022.2.4,Win32,59.95203837,,,,,,,,,,,,,,,,,,,,,,,,,,,,,,,,,,,left,1,0.3774,,,,,,physical,7,2,7 | 2,5,0.065,0.05,congruent,left,0,35,35,21,1,,,,,,,,,,,,,,,,,,,,,,,,,,,,,,,,,,,,,,,,,,,,,,,,,,,,,,,,,,,,,,,,,,,,,,,,,,,,,,,,,,,,,,,,,,,,,,,,,,,,,,,,,,,,,,,,,,,,,,
,176876591960,ABC,14/10/2001,001,2023-11-01_21h57.30.924,OS3_Mult_verification,2022.2.4,Win32,59.95203837,,,,,,,,,,,,,,,,,,,,,,,,,,,,,,,,,,,right,1,0.4638,,,,,,physical,7,6,7 | 6,1,0.05,0.065,incongruent,right,0,36,36,30,1,,,,,,,,,,,,,,,,,,,,,,,,,,,,,,,,,,,,,,,,,,,,,,,,,,,,,,,,,,,,,,,,,,,,,,,,,,,,,,,,,,,,,,,,,,,,,,,,,,,,,,,,,,,,,,,,,,,,,,
,176876591960,ABC,14/10/2001,001,2023-11-01_21h57.30.924,OS3_Mult_verification,2022.2.4,Win32,59.95203837,,,,,,,,,,,,,,,,,,,,,,,,,,,,,,,,,,,right,1,0.474,,,,,,physical,2,4,2 | 4,2,0.05,0.065,congruent,right,0,37,37,9,1,,,,,,,,,,,,,,,,,,,,,,,,,,,,,,,,,,,,,,,,,,,,,,,,,,,,,,,,,,,,,,,,,,,,,,,,,,,,,,,,,,,,,,,,,,,,,,,,,,,,,,,,,,,,,,,,,,,,,,
,176876591960,ABC,14/10/2001,001,2023-11-01_21h57.30.924,OS3_Mult_verification,2022.2.4,Win32,59.95203837,,,,,,,,,,,,,,,,,,,,,,,,,,,,,,,,,,,left,0,0.4137,,,,,,physical,4,2,4 | 2,2,0.05,0.065,incongruent,right,0,38,38,37,1,,,,,,,,,,,,,,,,,,,,,,,,,,,,,,,,,,,,,,,,,,,,,,,,,,,,,,,,,,,,,,,,,,,,,,,,,,,,,,,,,,,,,,,,,,,,,,,,,,,,,,,,,,,,,,,,,,,,,,
,176876591960,ABC,14/10/2001,001,2023-11-01_21h57.30.924,OS3_Mult_verification,2022.2.4,Win32,59.95203837,,,,,,,,,,,,,,,,,,,,,,,,,,,,,,,,,,,right,1,0.6656,,,,,,physical,9,9,9 | 9,0,0.05,0.065,neutral,right,0,39,39,63,1,,,,,,,,,,,,,,,,,,,,,,,,,,,,,,,,,,,,,,,,,,,,,,,,,,,,,,,,,,,,,,,,,,,,,,,,,,,,,,,,,,,,,,,,,,,,,,,,,,,,,,,,,,,,,,,,,,,,,,
,176876591960,ABC,14/10/2001,001,2023-11-01_21h57.30.924,OS3_Mult_verification,2022.2.4,Win32,59.95203837,,,,,,,,,,,,,,,,,,,,,,,,,,,,,,,,,,,right,1,0.5151,,,,,,physical,8,6,8 | 6,2,0.05,0.065,incongruent,right,0,40,40,38,1,,,,,,,,,,,,,,,,,,,,,,,,,,,,,,,,,,,,,,,,,,,,,,,,,,,,,,,,,,,,,,,,,,,,,,,,,,,,,,,,,,,,,,,,,,,,,,,,,,,,,,,,,,,,,,,,,,,,,,
,176876591960,ABC,14/10/2001,001,2023-11-01_21h57.30.924,OS3_Mult_verification,2022.2.4,Win32,59.95203837,,,,,,,,,,,,,,,,,,,,,,,,,,,,,,,,,,,right,1,0.468,,,,,,physical,3,8,3 | 8,5,0.05,0.065,congruent,right,0,41,41,18,1,,,,,,,,,,,,,,,,,,,,,,,,,,,,,,,,,,,,,,,,,,,,,,,,,,,,,,,,,,,,,,,,,,,,,,,,,,,,,,,,,,,,,,,,,,,,,,,,,,,,,,,,,,,,,,,,,,,,,,
,176876591960,ABC,14/10/2001,001,2023-11-01_21h57.30.924,OS3_Mult_verification,2022.2.4,Win32,59.95203837,,,,,,,,,,,,,,,,,,,,,,,,,,,,,,,,,,,left,1,0.4142,,,,,,physical,2,4,2 | 4,2,0.065,0.05,incongruent,left,0,42,42,33,1,,,,,,,,,,,,,,,,,,,,,,,,,,,,,,,,,,,,,,,,,,,,,,,,,,,,,,,,,,,,,,,,,,,,,,,,,,,,,,,,,,,,,,,,,,,,,,,,,,,,,,,,,,,,,,,,,,,,,,
,176876591960,ABC,14/10/2001,001,2023-11-01_21h57.30.924,OS3_Mult_verification,2022.2.4,Win32,59.95203837,,,,,,,,,,,,,,,,,,,,,,,,,,,,,,,,,,,left,1,0.3973,,,,,,physical,3,8,3 | 8,5,0.065,0.05,incongruent,left,0,43,43,42,1,,,,,,,,,,,,,,,,,,,,,,,,,,,,,,,,,,,,,,,,,,,,,,,,,,,,,,,,,,,,,,,,,,,,,,,,,,,,,,,,,,,,,,,,,,,,,,,,,,,,,,,,,,,,,,,,,,,,,,
,176876591960,ABC,14/10/2001,001,2023-11-01_21h57.30.924,OS3_Mult_verification,2022.2.4,Win32,59.95203837,,,,,,,,,,,,,,,,,,,,,,,,,,,,,,,,,,,left,1,0.4729,,,,,,physical,2,2,2 | 2,0,0.065,0.05,neutral,left,0,44,44,52,1,,,,,,,,,,,,,,,,,,,,,,,,,,,,,,,,,,,,,,,,,,,,,,,,,,,,,,,,,,,,,,,,,,,,,,,,,,,,,,,,,,,,,,,,,,,,,,,,,,,,,,,,,,,,,,,,,,,,,,
,176876591960,ABC,14/10/2001,001,2023-11-01_21h57.30.924,OS3_Mult_verification,2022.2.4,Win32,59.95203837,,,,,,,,,,,,,,,,,,,,,,,,,,,,,,,,,,,right,1,0.6032,,,,,,physical,6,1,6 | 1,5,0.05,0.065,incongruent,right,0,45,45,44,1,,,,,,,,,,,,,,,,,,,,,,,,,,,,,,,,,,,,,,,,,,,,,,,,,,,,,,,,,,,,,,,,,,,,,,,,,,,,,,,,,,,,,,,,,,,,,,,,,,,,,,,,,,,,,,,,,,,,,,
,176876591960,ABC,14/10/2001,001,2023-11-01_21h57.30.924,OS3_Mult_verification,2022.2.4,Win32,59.95203837,,,,,,,,,,,,,,,,,,,,,,,,,,,,,,,,,,,right,1,0.4478,,,,,,physical,9,4,9 | 4,5,0.05,0.065,incongruent,right,0,46,46,47,1,,,,,,,,,,,,,,,,,,,,,,,,,,,,,,,,,,,,,,,,,,,,,,,,,,,,,,,,,,,,,,,,,,,,,,,,,,,,,,,,,,,,,,,,,,,,,,,,,,,,,,,,,,,,,,,,,,,,,,
,176876591960,ABC,14/10/2001,001,2023-11-01_21h57.30.924,OS3_Mult_verification,2022.2.4,Win32,59.95203837,,,,,,,,,,,,,,,,,,,,,,,,,,,,,,,,,,,left,1,0.3961,,,,,,physical,3,3,3 | 3,0,0.065,0.05,neutral,left,0,47,47,66,1,,,,,,,,,,,,,,,,,,,,,,,,,,,,,,,,,,,,,,,,,,,,,,,,,,,,,,,,,,,,,,,,,,,,,,,,,,,,,,,,,,,,,,,,,,,,,,,,,,,,,,,,,,,,,,,,,,,,,,
,176876591960,ABC,14/10/2001,001,2023-11-01_21h57.30.924,OS3_Mult_verification,2022.2.4,Win32,59.95203837,,,,,,,,,,,,,,,,,,,,,,,,,,,,,,,,,,,right,1,0.4299,,,,,,physical,7,7,7 | 7,0,0.05,0.065,neutral,right,0,48,48,69,1,,,,,,,,,,,,,,,,,,,,,,,,,,,,,,,,,,,,,,,,,,,,,,,,,,,,,,,,,,,,,,,,,,,,,,,,,,,,,,,,,,,,,,,,,,,,,,,,,,,,,,,,,,,,,,,,,,,,,,
,176876591960,ABC,14/10/2001,001,2023-11-01_21h57.30.924,OS3_Mult_verification,2022.2.4,Win32,59.95203837,,,,,,,,,,,,,,,,,,,,,,,,,,,,,,,,,,,left,0,0.3511,,,,,,physical,7,9,7 | 9,2,0.05,0.065,congruent,right,0,49,49,11,1,,,,,,,,,,,,,,,,,,,,,,,,,,,,,,,,,,,,,,,,,,,,,,,,,,,,,,,,,,,,,,,,,,,,,,,,,,,,,,,,,,,,,,,,,,,,,,,,,,,,,,,,,,,,,,,,,,,,,,
,176876591960,ABC,14/10/2001,001,2023-11-01_21h57.30.924,OS3_Mult_verification,2022.2.4,Win32,59.95203837,,,,,,,,,,,,,,,,,,,,,,,,,,,,,,,,,,,right,1,0.7333,,,,,,physical,8,3,8 | 3,5,0.05,0.065,incongruent,right,0,50,50,46,1,,,,,,,,,,,,,,,,,,,,,,,,,,,,,,,,,,,,,,,,,,,,,,,,,,,,,,,,,,,,,,,,,,,,,,,,,,,,,,,,,,,,,,,,,,,,,,,,,,,,,,,,,,,,,,,,,,,,,,
,176876591960,ABC,14/10/2001,001,2023-11-01_21h57.30.924,OS3_Mult_verification,2022.2.4,Win32,59.95203837,,,,,,,,,,,,,,,,,,,,,,,,,,,,,,,,,,,right,1,0.4619,,,,,,physical,2,1,2 | 1,1,0.05,0.065,incongruent,right,0,51,51,28,1,,,,,,,,,,,,,,,,,,,,,,,,,,,,,,,,,,,,,,,,,,,,,,,,,,,,,,,,,,,,,,,,,,,,,,,,,,,,,,,,,,,,,,,,,,,,,,,,,,,,,,,,,,,,,,,,,,,,,,
,176876591960,ABC,14/10/2001,001,2023-11-01_21h57.30.924,OS3_Mult_verification,2022.2.4,Win32,59.95203837,,,,,,,,,,,,,,,,,,,,,,,,,,,,,,,,,,,right,1,0.4154,,,,,,physical,3,4,3 | 4,1,0.05,0.065,congruent,right,0,52,52,1,1,,,,,,,,,,,,,,,,,,,,,,,,,,,,,,,,,,,,,,,,,,,,,,,,,,,,,,,,,,,,,,,,,,,,,,,,,,,,,,,,,,,,,,,,,,,,,,,,,,,,,,,,,,,,,,,,,,,,,,
,176876591960,ABC,14/10/2001,001,2023-11-01_21h57.30.924,OS3_Mult_verification,2022.2.4,Win32,59.95203837,,,,,,,,,,,,,,,,,,,,,,,,,,,,,,,,,,,right,1,0.5318,,,,,,physical,4,4,4 | 4,0,0.05,0.065,neutral,right,0,53,53,67,1,,,,,,,,,,,,,,,,,,,,,,,,,,,,,,,,,,,,,,,,,,,,,,,,,,,,,,,,,,,,,,,,,,,,,,,,,,,,,,,,,,,,,,,,,,,,,,,,,,,,,,,,,,,,,,,,,,,,,,
,176876591960,ABC,14/10/2001,001,2023-11-01_21h57.30.924,OS3_Mult_verification,2022.2.4,Win32,59.95203837,,,,,,,,,,,,,,,,,,,,,,,,,,,,,,,,,,,left,0,0.3813,,,,,,physical,3,1,3 | 1,2,0.05,0.065,incongruent,right,0,54,54,36,1,,,,,,,,,,,,,,,,,,,,,,,,,,,,,,,,,,,,,,,,,,,,,,,,,,,,,,,,,,,,,,,,,,,,,,,,,,,,,,,,,,,,,,,,,,,,,,,,,,,,,,,,,,,,,,,,,,,,,,
,176876591960,ABC,14/10/2001,001,2023-11-01_21h57.30.924,OS3_Mult_verification,2022.2.4,Win32,59.95203837,,,,,,,,,,,,,,,,,,,,,,,,,,,,,,,,,,,right,1,0.5064,,,,,,physical,7,7,7 | 7,0,0.05,0.065,neutral,right,0,55,55,59,1,,,,,,,,,,,,,,,,,,,,,,,,,,,,,,,,,,,,,,,,,,,,,,,,,,,,,,,,,,,,,,,,,,,,,,,,,,,,,,,,,,,,,,,,,,,,,,,,,,,,,,,,,,,,,,,,,,,,,,
,176876591960,ABC,14/10/2001,001,2023-11-01_21h57.30.924,OS3_Mult_verification,2022.2.4,Win32,59.95203837,,,,,,,,,,,,,,,,,,,,,,,,,,,,,,,,,,,left,1,0.4995,,,,,,physical,7,9,7 | 9,2,0.065,0.05,incongruent,left,0,56,56,35,1,,,,,,,,,,,,,,,,,,,,,,,,,,,,,,,,,,,,,,,,,,,,,,,,,,,,,,,,,,,,,,,,,,,,,,,,,,,,,,,,,,,,,,,,,,,,,,,,,,,,,,,,,,,,,,,,,,,,,,
,176876591960,ABC,14/10/2001,001,2023-11-01_21h57.30.924,OS3_Mult_verification,2022.2.4,Win32,59.95203837,,,,,,,,,,,,,,,,,,,,,,,,,,,,,,,,,,,left,1,0.5478,,,,,,physical,8,8,8 | 8,0,0.065,0.05,neutral,left,0,57,57,70,1,,,,,,,,,,,,,,,,,,,,,,,,,,,,,,,,,,,,,,,,,,,,,,,,,,,,,,,,,,,,,,,,,,,,,,,,,,,,,,,,,,,,,,,,,,,,,,,,,,,,,,,,,,,,,,,,,,,,,,
,176876591960,ABC,14/10/2001,001,2023-11-01_21h57.30.924,OS3_Mult_verification,2022.2.4,Win32,59.95203837,,,,,,,,,,,,,,,,,,,,,,,,,,,,,,,,,,,left,1,0.4702,,,,,,physical,9,8,9 | 8,1,0.065,0.05,congruent,left,0,58,58,7,1,,,,,,,,,,,,,,,,,,,,,,,,,,,,,,,,,,,,,,,,,,,,,,,,,,,,,,,,,,,,,,,,,,,,,,,,,,,,,,,,,,,,,,,,,,,,,,,,,,,,,,,,,,,,,,,,,,,,,,
,176876591960,ABC,14/10/2001,001,2023-11-01_21h57.30.924,OS3_Mult_verification,2022.2.4,Win32,59.95203837,,,,,,,,,,,,,,,,,,,,,,,,,,,,,,,,,,,right,1,0.4469,,,,,,physical,3,3,3 | 3,0,0.05,0.065,neutral,right,0,59,59,60,1,,,,,,,,,,,,,,,,,,,,,,,,,,,,,,,,,,,,,,,,,,,,,,,,,,,,,,,,,,,,,,,,,,,,,,,,,,,,,,,,,,,,,,,,,,,,,,,,,,,,,,,,,,,,,,,,,,,,,,
,176876591960,ABC,14/10/2001,001,2023-11-01_21h57.30.924,OS3_Mult_verification,2022.2.4,Win32,59.95203837,,,,,,,,,,,,,,,,,,,,,,,,,,,,,,,,,,,right,1,0.4501,,,,,,physical,2,2,2 | 2,0,0.05,0.065,neutral,right,0,60,60,65,1,,,,,,,,,,,,,,,,,,,,,,,,,,,,,,,,,,,,,,,,,,,,,,,,,,,,,,,,,,,,,,,,,,,,,,,,,,,,,,,,,,,,,,,,,,,,,,,,,,,,,,,,,,,,,,,,,,,,,,
,176876591960,ABC,14/10/2001,001,2023-11-01_21h57.30.924,OS3_Mult_verification,2022.2.4,Win32,59.95203837,,,,,,,,,,,,,,,,,,,,,,,,,,,,,,,,,,,left,1,0.4685,,,,,,physical,1,6,1 | 6,5,0.065,0.05,incongruent,left,0,61,61,40,1,,,,,,,,,,,,,,,,,,,,,,,,,,,,,,,,,,,,,,,,,,,,,,,,,,,,,,,,,,,,,,,,,,,,,,,,,,,,,,,,,,,,,,,,,,,,,,,,,,,,,,,,,,,,,,,,,,,,,,
,176876591960,ABC,14/10/2001,001,2023-11-01_21h57.30.924,OS3_Mult_verification,2022.2.4,Win32,59.95203837,,,,,,,,,,,,,,,,,,,,,,,,,,,,,,,,,,,left,1,0.4823,,,,,,physical,1,1,1 | 1,0,0.065,0.05,neutral,left,0,62,62,48,1,,,,,,,,,,,,,,,,,,,,,,,,,,,,,,,,,,,,,,,,,,,,,,,,,,,,,,,,,,,,,,,,,,,,,,,,,,,,,,,,,,,,,,,,,,,,,,,,,,,,,,,,,,,,,,,,,,,,,,
,176876591960,ABC,14/10/2001,001,2023-11-01_21h57.30.924,OS3_Mult_verification,2022.2.4,Win32,59.95203837,,,,,,,,,,,,,,,,,,,,,,,,,,,,,,,,,,,right,1,0.3691,,,,,,physical,6,6,6 | 6,0,0.05,0.065,neutral,right,0,63,63,58,1,,,,,,,,,,,,,,,,,,,,,,,,,,,,,,,,,,,,,,,,,,,,,,,,,,,,,,,,,,,,,,,,,,,,,,,,,,,,,,,,,,,,,,,,,,,,,,,,,,,,,,,,,,,,,,,,,,,,,,
,176876591960,ABC,14/10/2001,001,2023-11-01_21h57.30.924,OS3_Mult_verification,2022.2.4,Win32,59.95203837,,,,,,,,,,,,,,,,,,,,,,,,,,,,,,,,,,,left,1,0.4003,,,,,,physical,3,3,3 | 3,0,0.065,0.05,neutral,left,0,64,64,49,1,,,,,,,,,,,,,,,,,,,,,,,,,,,,,,,,,,,,,,,,,,,,,,,,,,,,,,,,,,,,,,,,,,,,,,,,,,,,,,,,,,,,,,,,,,,,,,,,,,,,,,,,,,,,,,,,,,,,,,
,176876591960,ABC,14/10/2001,001,2023-11-01_21h57.30.924,OS3_Mult_verification,2022.2.4,Win32,59.95203837,,,,,,,,,,,,,,,,,,,,,,,,,,,,,,,,,,,right,1,0.3898,,,,,,physical,4,9,4 | 9,5,0.05,0.065,congruent,right,0,65,65,19,1,,,,,,,,,,,,,,,,,,,,,,,,,,,,,,,,,,,,,,,,,,,,,,,,,,,,,,,,,,,,,,,,,,,,,,,,,,,,,,,,,,,,,,,,,,,,,,,,,,,,,,,,,,,,,,,,,,,,,,
,176876591960,ABC,14/10/2001,001,2023-11-01_21h57.30.924,OS3_Mult_verification,2022.2.4,Win32,59.95203837,,,,,,,,,,,,,,,,,,,,,,,,,,,,,,,,,,,left,1,0.5111,,,,,,physical,9,4,9 | 4,5,0.065,0.05,congruent,left,0,66,66,23,1,,,,,,,,,,,,,,,,,,,,,,,,,,,,,,,,,,,,,,,,,,,,,,,,,,,,,,,,,,,,,,,,,,,,,,,,,,,,,,,,,,,,,,,,,,,,,,,,,,,,,,,,,,,,,,,,,,,,,,
,176876591960,ABC,14/10/2001,001,2023-11-01_21h57.30.924,OS3_Mult_verification,2022.2.4,Win32,59.95203837,,,,,,,,,,,,,,,,,,,,,,,,,,,,,,,,,,,left,1,0.4792,,,,,,physical,8,8,8 | 8,0,0.065,0.05,neutral,left,0,67,67,51,1,,,,,,,,,,,,,,,,,,,,,,,,,,,,,,,,,,,,,,,,,,,,,,,,,,,,,,,,,,,,,,,,,,,,,,,,,,,,,,,,,,,,,,,,,,,,,,,,,,,,,,,,,,,,,,,,,,,,,,
,176876591960,ABC,14/10/2001,001,2023-11-01_21h57.30.924,OS3_Mult_verification,2022.2.4,Win32,59.95203837,,,,,,,,,,,,,,,,,,,,,,,,,,,,,,,,,,,left,1,0.4633,,,,,,physical,1,2,1 | 2,1,0.065,0.05,incongruent,left,0,68,68,24,1,,,,,,,,,,,,,,,,,,,,,,,,,,,,,,,,,,,,,,,,,,,,,,,,,,,,,,,,,,,,,,,,,,,,,,,,,,,,,,,,,,,,,,,,,,,,,,,,,,,,,,,,,,,,,,,,,,,,,,
,176876591960,ABC,14/10/2001,001,2023-11-01_21h57.30.924,OS3_Mult_verification,2022.2.4,Win32,59.95203837,,,,,,,,,,,,,,,,,,,,,,,,,,,,,,,,,,,right,1,0.4011,,,,,,physical,6,8,6 | 8,2,0.05,0.065,congruent,right,0,69,69,10,1,,,,,,,,,,,,,,,,,,,,,,,,,,,,,,,,,,,,,,,,,,,,,,,,,,,,,,,,,,,,,,,,,,,,,,,,,,,,,,,,,,,,,,,,,,,,,,,,,,,,,,,,,,,,,,,,,,,,,,
,176876591960,ABC,14/10/2001,001,2023-11-01_21h57.30.924,OS3_Mult_verification,2022.2.4,Win32,59.95203837,,,,,,,,,,,,,,,,,,,,,,,,,,,,,,,,,,,right,1,0.4227,,,,,,physical,7,2,7 | 2,5,0.05,0.065,incongruent,right,0,70,70,45,1,,,,,,,,,,,,,,,,,,,,,,,,,,,,,,,,,,,,,,,,,,,,,,,,,,,,,,,,,,,,,,,,,,,,,,,,,,,,,,,,,,,,,,,,,,,,,,,,,,,,,,,,,,,,,,,,,,,,,,
,176876591960,ABC,14/10/2001,001,2023-11-01_21h57.30.924,OS3_Mult_verification,2022.2.4,Win32,59.95203837,,,,,,,,,,,,,,,,,,,,,,,,,,,,,,,,,,,left,1,0.3976,,,,,,physical,1,3,1 | 3,2,0.065,0.05,incongruent,left,0,71,71,32,1,,,,,,,,,,,,,,,,,,,,,,,,,,,,,,,,,,,,,,,,,,,,,,,,,,,,,,,,,,,,,,,,,,,,,,,,,,,,,,,,,,,,,,,,,,,,,,,,,,,,,,,,,,,,,,,,,,,,,,
,176876591960,ABC,14/10/2001,001,2023-11-01_21h57.30.924,OS3_Mult_verification,2022.2.4,Win32,59.95203837,,,,,,,,,,,,,,,,,,,,,,,,,,,,,,,,,,,,,,,,,,,,,,,,,,,,,,,,,0,0,0,1,1,stroop_stim/physical.xlsx,stroop_stim/prac_physical.xlsx,PHYSICALLY larger (larger font size).,images/physicallyLarger.png,,,,,,,,,,,,,,,,,,,,,,,,,,,,,,,,,,,,,,,,,,,,,,,,,,,,,,,,,,,,,,,,,,,,,,,,,,,,,,,,,,,,,,,,,,,,,,,,,,,,,,,,,,,,,
,176876591960,ABC,14/10/2001,001,2023-11-01_21h57.30.924,OS3_Mult_verification,2022.2.4,Win32,59.95203837,,,,,,,,,,,,,,,,space,1.8014,,,,,,,,,,,,,,,,,,right,1,1.2767,0,0,0,2,1,practice,4,9,4 | 9,5,0.06,0.06,neutral,right,,,,,,,,,,,,,,,,,,,,,,,,,,,,,,,,,,,,,,,,,,,,,,,,,,,,,,,,,,,,,,,,,,,,,,,,,,,,,,,,,,,,,,,,,,,,,,,,,,,,,,,,,,,,,,,,,,,,,,,,,,,
,176876591960,ABC,14/10/2001,001,2023-11-01_21h57.30.924,OS3_Mult_verification,2022.2.4,Win32,59.95203837,,,,,,,,,,,,,,,,,,,,,,,,,,,,,,,,,,,right,1,0.5349,0,1,1,0,1,practice,1,2,1 | 2,1,0.05,0.065,congruent,right,,,,,,,,,,,,,,,,,,,,,,,,,,,,,,,,,,,,,,,,,,,,,,,,,,,,,,,,,,,,,,,,,,,,,,,,,,,,,,,,,,,,,,,,,,,,,,,,,,,,,,,,,,,,,,,,,,,,,,,,,,,
,176876591960,ABC,14/10/2001,001,2023-11-01_21h57.30.924,OS3_Mult_verification,2022.2.4,Win32,59.95203837,,,,,,,,,,,,,,,,,,,,,,,,,,,,,,,,,,,right,1,0.6915,0,2,2,1,1,practice,7,8,7 | 8,1,0.065,0.05,incongruent,right,,,,,,,,,,,,,,,,,,,,,,,,,,,,,,,,,,,,,,,,,,,,,,,,,,,,,,,,,,,,,,,,,,,,,,,,,,,,,,,,,,,,,,,,,,,,,,,,,,,,,,,,,,,,,,,,,,,,,,,,,,,
,176876591960,ABC,14/10/2001,001,2023-11-01_21h57.30.924,OS3_Mult_verification,2022.2.4,Win32,59.95203837,,,,,,,,,,,,,,,,,,,,,,,,,,,,,,,,,,,right,1,0.8334,,,,,,magnitude,3,4,3 | 4,1,0.065,0.05,incongruent,right,0,0,0,25,1,,,,,,,,,,,,,,,,,,,,,,,,,,,,,,,,,,,,,,,,,,,,,,,,,,,,,,,,,,,,,,,,,,,,,,,,,,,,,,,,,,,,,,,,,,,,,,,,,,,,,,,,,,,,,,,,,,,,,,
,176876591960,ABC,14/10/2001,001,2023-11-01_21h57.30.924,OS3_Mult_verification,2022.2.4,Win32,59.95203837,,,,,,,,,,,,,,,,,,,,,,,,,,,,,,,,,,,right,1,0.5343,,,,,,magnitude,4,9,4 | 9,5,0.06,0.06,neutral,right,0,1,1,67,1,,,,,,,,,,,,,,,,,,,,,,,,,,,,,,,,,,,,,,,,,,,,,,,,,,,,,,,,,,,,,,,,,,,,,,,,,,,,,,,,,,,,,,,,,,,,,,,,,,,,,,,,,,,,,,,,,,,,,,
,176876591960,ABC,14/10/2001,001,2023-11-01_21h57.30.924,OS3_Mult_verification,2022.2.4,Win32,59.95203837,,,,,,,,,,,,,,,,,,,,,,,,,,,,,,,,,,,left,1,0.5169,,,,,,magnitude,9,4,9 | 4,5,0.05,0.065,incongruent,left,0,2,2,47,1,,,,,,,,,,,,,,,,,,,,,,,,,,,,,,,,,,,,,,,,,,,,,,,,,,,,,,,,,,,,,,,,,,,,,,,,,,,,,,,,,,,,,,,,,,,,,,,,,,,,,,,,,,,,,,,,,,,,,,
,176876591960,ABC,14/10/2001,001,2023-11-01_21h57.30.924,OS3_Mult_verification,2022.2.4,Win32,59.95203837,,,,,,,,,,,,,,,,,,,,,,,,,,,,,,,,,,,right,0,0.4506,,,,,,magnitude,9,7,9 | 7,2,0.05,0.065,incongruent,left,0,3,3,39,1,,,,,,,,,,,,,,,,,,,,,,,,,,,,,,,,,,,,,,,,,,,,,,,,,,,,,,,,,,,,,,,,,,,,,,,,,,,,,,,,,,,,,,,,,,,,,,,,,,,,,,,,,,,,,,,,,,,,,,
,176876591960,ABC,14/10/2001,001,2023-11-01_21h57.30.924,OS3_Mult_verification,2022.2.4,Win32,59.95203837,,,,,,,,,,,,,,,,,,,,,,,,,,,,,,,,,,,left,1,0.9201,,,,,,magnitude,3,1,3 | 1,2,0.05,0.065,incongruent,left,0,4,4,36,1,,,,,,,,,,,,,,,,,,,,,,,,,,,,,,,,,,,,,,,,,,,,,,,,,,,,,,,,,,,,,,,,,,,,,,,,,,,,,,,,,,,,,,,,,,,,,,,,,,,,,,,,,,,,,,,,,,,,,,
,176876591960,ABC,14/10/2001,001,2023-11-01_21h57.30.924,OS3_Mult_verification,2022.2.4,Win32,59.95203837,,,,,,,,,,,,,,,,,,,,,,,,,,,,,,,,,,,left,1,0.5505,,,,,,magnitude,4,2,4 | 2,2,0.06,0.06,neutral,left,0,5,5,61,1,,,,,,,,,,,,,,,,,,,,,,,,,,,,,,,,,,,,,,,,,,,,,,,,,,,,,,,,,,,,,,,,,,,,,,,,,,,,,,,,,,,,,,,,,,,,,,,,,,,,,,,,,,,,,,,,,,,,,,
,176876591960,ABC,14/10/2001,001,2023-11-01_21h57.30.924,OS3_Mult_verification,2022.2.4,Win32,59.95203837,,,,,,,,,,,,,,,,,,,,,,,,,,,,,,,,,,,left,1,0.6715,,,,,,magnitude,2,1,2 | 1,1,0.05,0.065,incongruent,left,0,6,6,28,1,,,,,,,,,,,,,,,,,,,,,,,,,,,,,,,,,,,,,,,,,,,,,,,,,,,,,,,,,,,,,,,,,,,,,,,,,,,,,,,,,,,,,,,,,,,,,,,,,,,,,,,,,,,,,,,,,,,,,,
,176876591960,ABC,14/10/2001,001,2023-11-01_21h57.30.924,OS3_Mult_verification,2022.2.4,Win32,59.95203837,,,,,,,,,,,,,,,,,,,,,,,,,,,,,,,,,,,left,1,0.6981,,,,,,magnitude,8,6,8 | 6,2,0.06,0.06,neutral,left,0,7,7,62,1,,,,,,,,,,,,,,,,,,,,,,,,,,,,,,,,,,,,,,,,,,,,,,,,,,,,,,,,,,,,,,,,,,,,,,,,,,,,,,,,,,,,,,,,,,,,,,,,,,,,,,,,,,,,,,,,,,,,,,
,176876591960,ABC,14/10/2001,001,2023-11-01_21h57.30.924,OS3_Mult_verification,2022.2.4,Win32,59.95203837,,,,,,,,,,,,,,,,,,,,,,,,,,,,,,,,,,,right,1,0.475,,,,,,magnitude,1,6,1 | 6,5,0.06,0.06,neutral,right,0,8,8,64,1,,,,,,,,,,,,,,,,,,,,,,,,,,,,,,,,,,,,,,,,,,,,,,,,,,,,,,,,,,,,,,,,,,,,,,,,,,,,,,,,,,,,,,,,,,,,,,,,,,,,,,,,,,,,,,,,,,,,,,
,176876591960,ABC,14/10/2001,001,2023-11-01_21h57.30.924,OS3_Mult_verification,2022.2.4,Win32,59.95203837,,,,,,,,,,,,,,,,,,,,,,,,,,,,,,,,,,,left,1,0.6839,,,,,,magnitude,3,1,3 | 1,2,0.06,0.06,neutral,left,0,9,9,60,1,,,,,,,,,,,,,,,,,,,,,,,,,,,,,,,,,,,,,,,,,,,,,,,,,,,,,,,,,,,,,,,,,,,,,,,,,,,,,,,,,,,,,,,,,,,,,,,,,,,,,,,,,,,,,,,,,,,,,,
,176876591960,ABC,14/10/2001,001,2023-11-01_21h57.30.924,OS3_Mult_verification,2022.2.4,Win32,59.95203837,,,,,,,,,,,,,,,,,,,,,,,,,,,,,,,,,,,left,1,0.8228,,,,,,magnitude,7,6,7 | 6,1,0.06,0.06,neutral,left,0,10,10,54,1,,,,,,,,,,,,,,,,,,,,,,,,,,,,,,,,,,,,,,,,,,,,,,,,,,,,,,,,,,,,,,,,,,,,,,,,,,,,,,,,,,,,,,,,,,,,,,,,,,,,,,,,,,,,,,,,,,,,,,
,176876591960,ABC,14/10/2001,001,2023-11-01_21h57.30.924,OS3_Mult_verification,2022.2.4,Win32,59.95203837,,,,,,,,,,,,,,,,,,,,,,,,,,,,,,,,,,,right,1,0.5516,,,,,,magnitude,8,9,8 | 9,1,0.065,0.05,incongruent,right,0,11,11,27,1,,,,,,,,,,,,,,,,,,,,,,,,,,,,,,,,,,,,,,,,,,,,,,,,,,,,,,,,,,,,,,,,,,,,,,,,,,,,,,,,,,,,,,,,,,,,,,,,,,,,,,,,,,,,,,,,,,,,,,
,176876591960,ABC,14/10/2001,001,2023-11-01_21h57.30.924,OS3_Mult_verification,2022.2.4,Win32,59.95203837,,,,,,,,,,,,,,,,,,,,,,,,,,,,,,,,,,,left,1,0.8004,,,,,,magnitude,7,2,7 | 2,5,0.065,0.05,congruent,left,0,12,12,21,1,,,,,,,,,,,,,,,,,,,,,,,,,,,,,,,,,,,,,,,,,,,,,,,,,,,,,,,,,,,,,,,,,,,,,,,,,,,,,,,,,,,,,,,,,,,,,,,,,,,,,,,,,,,,,,,,,,,,,,
,176876591960,ABC,14/10/2001,001,2023-11-01_21h57.30.924,OS3_Mult_verification,2022.2.4,Win32,59.95203837,,,,,,,,,,,,,,,,,,,,,,,,,,,,,,,,,,,right,1,0.5348,,,,,,magnitude,6,7,6 | 7,1,0.06,0.06,neutral,right,0,13,13,50,1,,,,,,,,,,,,,,,,,,,,,,,,,,,,,,,,,,,,,,,,,,,,,,,,,,,,,,,,,,,,,,,,,,,,,,,,,,,,,,,,,,,,,,,,,,,,,,,,,,,,,,,,,,,,,,,,,,,,,,
,176876591960,ABC,14/10/2001,001,2023-11-01_21h57.30.924,OS3_Mult_verification,2022.2.4,Win32,59.95203837,,,,,,,,,,,,,,,,,,,,,,,,,,,,,,,,,,,left,1,0.4672,,,,,,magnitude,2,1,2 | 1,1,0.06,0.06,neutral,left,0,14,14,52,1,,,,,,,,,,,,,,,,,,,,,,,,,,,,,,,,,,,,,,,,,,,,,,,,,,,,,,,,,,,,,,,,,,,,,,,,,,,,,,,,,,,,,,,,,,,,,,,,,,,,,,,,,,,,,,,,,,,,,,
,176876591960,ABC,14/10/2001,001,2023-11-01_21h57.30.924,OS3_Mult_verification,2022.2.4,Win32,59.95203837,,,,,,,,,,,,,,,,,,,,,,,,,,,,,,,,,,,left,1,0.6648,,,,,,magnitude,7,6,7 | 6,1,0.05,0.065,incongruent,left,0,15,15,30,1,,,,,,,,,,,,,,,,,,,,,,,,,,,,,,,,,,,,,,,,,,,,,,,,,,,,,,,,,,,,,,,,,,,,,,,,,,,,,,,,,,,,,,,,,,,,,,,,,,,,,,,,,,,,,,,,,,,,,,
,176876591960,ABC,14/10/2001,001,2023-11-01_21h57.30.924,OS3_Mult_verification,2022.2.4,Win32,59.95203837,,,,,,,,,,,,,,,,,,,,,,,,,,,,,,,,,,,left,1,0.7237,,,,,,magnitude,4,3,4 | 3,1,0.05,0.065,incongruent,left,0,16,16,29,1,,,,,,,,,,,,,,,,,,,,,,,,,,,,,,,,,,,,,,,,,,,,,,,,,,,,,,,,,,,,,,,,,,,,,,,,,,,,,,,,,,,,,,,,,,,,,,,,,,,,,,,,,,,,,,,,,,,,,,
,176876591960,ABC,14/10/2001,001,2023-11-01_21h57.30.924,OS3_Mult_verification,2022.2.4,Win32,59.95203837,,,,,,,,,,,,,,,,,,,,,,,,,,,,,,,,,,,left,1,0.4917,,,,,,magnitude,8,3,8 | 3,5,0.065,0.05,congruent,left,0,17,17,22,1,,,,,,,,,,,,,,,,,,,,,,,,,,,,,,,,,,,,,,,,,,,,,,,,,,,,,,,,,,,,,,,,,,,,,,,,,,,,,,,,,,,,,,,,,,,,,,,,,,,,,,,,,,,,,,,,,,,,,,
,176876591960,ABC,14/10/2001,001,2023-11-01_21h57.30.924,OS3_Mult_verification,2022.2.4,Win32,59.95203837,,,,,,,,,,,,,,,,,,,,,,,,,,,,,,,,,,,right,1,0.5006,,,,,,magnitude,4,9,4 | 9,5,0.05,0.065,congruent,right,0,18,18,19,1,,,,,,,,,,,,,,,,,,,,,,,,,,,,,,,,,,,,,,,,,,,,,,,,,,,,,,,,,,,,,,,,,,,,,,,,,,,,,,,,,,,,,,,,,,,,,,,,,,,,,,,,,,,,,,,,,,,,,,
,176876591960,ABC,14/10/2001,001,2023-11-01_21h57.30.924,OS3_Mult_verification,2022.2.4,Win32,59.95203837,,,,,,,,,,,,,,,,,,,,,,,,,,,,,,,,,,,left,1,0.5673,,,,,,magnitude,4,2,4 | 2,2,0.05,0.065,incongruent,left,0,19,19,37,1,,,,,,,,,,,,,,,,,,,,,,,,,,,,,,,,,,,,,,,,,,,,,,,,,,,,,,,,,,,,,,,,,,,,,,,,,,,,,,,,,,,,,,,,,,,,,,,,,,,,,,,,,,,,,,,,,,,,,,
,176876591960,ABC,14/10/2001,001,2023-11-01_21h57.30.924,OS3_Mult_verification,2022.2.4,Win32,59.95203837,,,,,,,,,,,,,,,,,,,,,,,,,,,,,,,,,,,left,1,0.4852,,,,,,magnitude,3,1,3 | 1,2,0.065,0.05,congruent,left,0,20,20,12,1,,,,,,,,,,,,,,,,,,,,,,,,,,,,,,,,,,,,,,,,,,,,,,,,,,,,,,,,,,,,,,,,,,,,,,,,,,,,,,,,,,,,,,,,,,,,,,,,,,,,,,,,,,,,,,,,,,,,,,
,176876591960,ABC,14/10/2001,001,2023-11-01_21h57.30.924,OS3_Mult_verification,2022.2.4,Win32,59.95203837,,,,,,,,,,,,,,,,,,,,,,,,,,,,,,,,,,,right,1,0.4222,,,,,,magnitude,1,2,1 | 2,1,0.06,0.06,neutral,right,0,21,21,48,1,,,,,,,,,,,,,,,,,,,,,,,,,,,,,,,,,,,,,,,,,,,,,,,,,,,,,,,,,,,,,,,,,,,,,,,,,,,,,,,,,,,,,,,,,,,,,,,,,,,,,,,,,,,,,,,,,,,,,,
,176876591960,ABC,14/10/2001,001,2023-11-01_21h57.30.924,OS3_Mult_verification,2022.2.4,Win32,59.95203837,,,,,,,,,,,,,,,,,,,,,,,,,,,,,,,,,,,left,1,0.5016,,,,,,magnitude,4,3,4 | 3,1,0.06,0.06,neutral,left,0,22,22,53,1,,,,,,,,,,,,,,,,,,,,,,,,,,,,,,,,,,,,,,,,,,,,,,,,,,,,,,,,,,,,,,,,,,,,,,,,,,,,,,,,,,,,,,,,,,,,,,,,,,,,,,,,,,,,,,,,,,,,,,
,176876591960,ABC,14/10/2001,001,2023-11-01_21h57.30.924,OS3_Mult_verification,2022.2.4,Win32,59.95203837,,,,,,,,,,,,,,,,,,,,,,,,,,,,,,,,,,,right,1,0.4845,,,,,,magnitude,2,4,2 | 4,2,0.06,0.06,neutral,right,0,23,23,57,1,,,,,,,,,,,,,,,,,,,,,,,,,,,,,,,,,,,,,,,,,,,,,,,,,,,,,,,,,,,,,,,,,,,,,,,,,,,,,,,,,,,,,,,,,,,,,,,,,,,,,,,,,,,,,,,,,,,,,,
,176876591960,ABC,14/10/2001,001,2023-11-01_21h57.30.924,OS3_Mult_verification,2022.2.4,Win32,59.95203837,,,,,,,,,,,,,,,,,,,,,,,,,,,,,,,,,,,right,1,0.5339,,,,,,magnitude,2,7,2 | 7,5,0.065,0.05,incongruent,right,0,24,24,41,1,,,,,,,,,,,,,,,,,,,,,,,,,,,,,,,,,,,,,,,,,,,,,,,,,,,,,,,,,,,,,,,,,,,,,,,,,,,,,,,,,,,,,,,,,,,,,,,,,,,,,,,,,,,,,,,,,,,,,,
,176876591960,ABC,14/10/2001,001,2023-11-01_21h57.30.924,OS3_Mult_verification,2022.2.4,Win32,59.95203837,,,,,,,,,,,,,,,,,,,,,,,,,,,,,,,,,,,right,1,0.7837,,,,,,magnitude,1,2,1 | 2,1,0.05,0.065,congruent,right,0,25,25,0,1,,,,,,,,,,,,,,,,,,,,,,,,,,,,,,,,,,,,,,,,,,,,,,,,,,,,,,,,,,,,,,,,,,,,,,,,,,,,,,,,,,,,,,,,,,,,,,,,,,,,,,,,,,,,,,,,,,,,,,
,176876591960,ABC,14/10/2001,001,2023-11-01_21h57.30.924,OS3_Mult_verification,2022.2.4,Win32,59.95203837,,,,,,,,,,,,,,,,,,,,,,,,,,,,,,,,,,,right,1,0.5509,,,,,,magnitude,7,9,7 | 9,2,0.05,0.065,congruent,right,0,26,26,11,1,,,,,,,,,,,,,,,,,,,,,,,,,,,,,,,,,,,,,,,,,,,,,,,,,,,,,,,,,,,,,,,,,,,,,,,,,,,,,,,,,,,,,,,,,,,,,,,,,,,,,,,,,,,,,,,,,,,,,,
,176876591960,ABC,14/10/2001,001,2023-11-01_21h57.30.924,OS3_Mult_verification,2022.2.4,Win32,59.95203837,,,,,,,,,,,,,,,,,,,,,,,,,,,,,,,,,,,right,1,0.5836,,,,,,magnitude,3,8,3 | 8,5,0.065,0.05,incongruent,right,0,27,27,42,1,,,,,,,,,,,,,,,,,,,,,,,,,,,,,,,,,,,,,,,,,,,,,,,,,,,,,,,,,,,,,,,,,,,,,,,,,,,,,,,,,,,,,,,,,,,,,,,,,,,,,,,,,,,,,,,,,,,,,,
,176876591960,ABC,14/10/2001,001,2023-11-01_21h57.30.924,OS3_Mult_verification,2022.2.4,Win32,59.95203837,,,,,,,,,,,,,,,,,,,,,,,,,,,,,,,,,,,right,1,0.5196,,,,,,magnitude,1,6,1 | 6,5,0.05,0.065,congruent,right,0,28,28,16,1,,,,,,,,,,,,,,,,,,,,,,,,,,,,,,,,,,,,,,,,,,,,,,,,,,,,,,,,,,,,,,,,,,,,,,,,,,,,,,,,,,,,,,,,,,,,,,,,,,,,,,,,,,,,,,,,,,,,,,
,176876591960,ABC,14/10/2001,001,2023-11-01_21h57.30.924,OS3_Mult_verification,2022.2.4,Win32,59.95203837,,,,,,,,,,,,,,,,,,,,,,,,,,,,,,,,,,,right,1,0.6716,,,,,,magnitude,3,8,3 | 8,5,0.06,0.06,neutral,right,0,29,29,66,1,,,,,,,,,,,,,,,,,,,,,,,,,,,,,,,,,,,,,,,,,,,,,,,,,,,,,,,,,,,,,,,,,,,,,,,,,,,,,,,,,,,,,,,,,,,,,,,,,,,,,,,,,,,,,,,,,,,,,,
,176876591960,ABC,14/10/2001,001,2023-11-01_21h57.30.924,OS3_Mult_verification,2022.2.4,Win32,59.95203837,,,,,,,,,,,,,,,,,,,,,,,,,,,,,,,,,,,right,1,0.5838,,,,,,magnitude,2,4,2 | 4,2,0.065,0.05,incongruent,right,0,30,30,33,1,,,,,,,,,,,,,,,,,,,,,,,,,,,,,,,,,,,,,,,,,,,,,,,,,,,,,,,,,,,,,,,,,,,,,,,,,,,,,,,,,,,,,,,,,,,,,,,,,,,,,,,,,,,,,,,,,,,,,,
,176876591960,ABC,14/10/2001,001,2023-11-01_21h57.30.924,OS3_Mult_verification,2022.2.4,Win32,59.95203837,,,,,,,,,,,,,,,,,,,,,,,,,,,,,,,,,,,right,1,0.7505,,,,,,magnitude,7,9,7 | 9,2,0.06,0.06,neutral,right,0,31,31,59,1,,,,,,,,,,,,,,,,,,,,,,,,,,,,,,,,,,,,,,,,,,,,,,,,,,,,,,,,,,,,,,,,,,,,,,,,,,,,,,,,,,,,,,,,,,,,,,,,,,,,,,,,,,,,,,,,,,,,,,
,176876591960,ABC,14/10/2001,001,2023-11-01_21h57.30.924,OS3_Mult_verification,2022.2.4,Win32,59.95203837,,,,,,,,,,,,,,,,,,,,,,,,,,,,,,,,,,,right,1,0.439,,,,,,magnitude,1,6,1 | 6,5,0.065,0.05,incongruent,right,0,32,32,40,1,,,,,,,,,,,,,,,,,,,,,,,,,,,,,,,,,,,,,,,,,,,,,,,,,,,,,,,,,,,,,,,,,,,,,,,,,,,,,,,,,,,,,,,,,,,,,,,,,,,,,,,,,,,,,,,,,,,,,,
,176876591960,ABC,14/10/2001,001,2023-11-01_21h57.30.924,OS3_Mult_verification,2022.2.4,Win32,59.95203837,,,,,,,,,,,,,,,,,,,,,,,,,,,,,,,,,,,right,1,0.5222,,,,,,magnitude,6,8,6 | 8,2,0.05,0.065,congruent,right,0,33,33,10,1,,,,,,,,,,,,,,,,,,,,,,,,,,,,,,,,,,,,,,,,,,,,,,,,,,,,,,,,,,,,,,,,,,,,,,,,,,,,,,,,,,,,,,,,,,,,,,,,,,,,,,,,,,,,,,,,,,,,,,
,176876591960,ABC,14/10/2001,001,2023-11-01_21h57.30.924,OS3_Mult_verification,2022.2.4,Win32,59.95203837,,,,,,,,,,,,,,,,,,,,,,,,,,,,,,,,,,,left,1,0.4007,,,,,,magnitude,7,6,7 | 6,1,0.065,0.05,congruent,left,0,34,34,6,1,,,,,,,,,,,,,,,,,,,,,,,,,,,,,,,,,,,,,,,,,,,,,,,,,,,,,,,,,,,,,,,,,,,,,,,,,,,,,,,,,,,,,,,,,,,,,,,,,,,,,,,,,,,,,,,,,,,,,,
,176876591960,ABC,14/10/2001,001,2023-11-01_21h57.30.924,OS3_Mult_verification,2022.2.4,Win32,59.95203837,,,,,,,,,,,,,,,,,,,,,,,,,,,,,,,,,,,left,0,0.7674,,,,,,magnitude,1,2,1 | 2,1,0.065,0.05,incongruent,right,0,35,35,24,1,,,,,,,,,,,,,,,,,,,,,,,,,,,,,,,,,,,,,,,,,,,,,,,,,,,,,,,,,,,,,,,,,,,,,,,,,,,,,,,,,,,,,,,,,,,,,,,,,,,,,,,,,,,,,,,,,,,,,,
,176876591960,ABC,14/10/2001,001,2023-11-01_21h57.30.924,OS3_Mult_verification,2022.2.4,Win32,59.95203837,,,,,,,,,,,,,,,,,,,,,,,,,,,,,,,,,,,right,1,0.9503,,,,,,magnitude,7,9,7 | 9,2,0.065,0.05,incongruent,right,0,36,36,35,1,,,,,,,,,,,,,,,,,,,,,,,,,,,,,,,,,,,,,,,,,,,,,,,,,,,,,,,,,,,,,,,,,,,,,,,,,,,,,,,,,,,,,,,,,,,,,,,,,,,,,,,,,,,,,,,,,,,,,,
,176876591960,ABC,14/10/2001,001,2023-11-01_21h57.30.924,OS3_Mult_verification,2022.2.4,Win32,59.95203837,,,,,,,,,,,,,,,,,,,,,,,,,,,,,,,,,,,left,1,0.8008,,,,,,magnitude,8,3,8 | 3,5,0.05,0.065,incongruent,left,0,37,37,46,1,,,,,,,,,,,,,,,,,,,,,,,,,,,,,,,,,,,,,,,,,,,,,,,,,,,,,,,,,,,,,,,,,,,,,,,,,,,,,,,,,,,,,,,,,,,,,,,,,,,,,,,,,,,,,,,,,,,,,,
,176876591960,ABC,14/10/2001,001,2023-11-01_21h57.30.924,OS3_Mult_verification,2022.2.4,Win32,59.95203837,,,,,,,,,,,,,,,,,,,,,,,,,,,,,,,,,,,right,1,0.451,,,,,,magnitude,2,7,2 | 7,5,0.06,0.06,neutral,right,0,38,38,65,1,,,,,,,,,,,,,,,,,,,,,,,,,,,,,,,,,,,,,,,,,,,,,,,,,,,,,,,,,,,,,,,,,,,,,,,,,,,,,,,,,,,,,,,,,,,,,,,,,,,,,,,,,,,,,,,,,,,,,,
,176876591960,ABC,14/10/2001,001,2023-11-01_21h57.30.924,OS3_Mult_verification,2022.2.4,Win32,59.95203837,,,,,,,,,,,,,,,,,,,,,,,,,,,,,,,,,,,right,1,0.4838,,,,,,magnitude,3,8,3 | 8,5,0.05,0.065,congruent,right,0,39,39,18,1,,,,,,,,,,,,,,,,,,,,,,,,,,,,,,,,,,,,,,,,,,,,,,,,,,,,,,,,,,,,,,,,,,,,,,,,,,,,,,,,,,,,,,,,,,,,,,,,,,,,,,,,,,,,,,,,,,,,,,
,176876591960,ABC,14/10/2001,001,2023-11-01_21h57.30.924,OS3_Mult_verification,2022.2.4,Win32,59.95203837,,,,,,,,,,,,,,,,,,,,,,,,,,,,,,,,,,,left,0,0.534,,,,,,magnitude,1,3,1 | 3,2,0.065,0.05,incongruent,right,0,40,40,32,1,,,,,,,,,,,,,,,,,,,,,,,,,,,,,,,,,,,,,,,,,,,,,,,,,,,,,,,,,,,,,,,,,,,,,,,,,,,,,,,,,,,,,,,,,,,,,,,,,,,,,,,,,,,,,,,,,,,,,,
,176876591960,ABC,14/10/2001,001,2023-11-01_21h57.30.924,OS3_Mult_verification,2022.2.4,Win32,59.95203837,,,,,,,,,,,,,,,,,,,,,,,,,,,,,,,,,,,right,1,1.0881,,,,,,magnitude,3,4,3 | 4,1,0.06,0.06,neutral,right,0,41,41,49,1,,,,,,,,,,,,,,,,,,,,,,,,,,,,,,,,,,,,,,,,,,,,,,,,,,,,,,,,,,,,,,,,,,,,,,,,,,,,,,,,,,,,,,,,,,,,,,,,,,,,,,,,,,,,,,,,,,,,,,
,176876591960,ABC,14/10/2001,001,2023-11-01_21h57.30.924,OS3_Mult_verification,2022.2.4,Win32,59.95203837,,,,,,,,,,,,,,,,,,,,,,,,,,,,,,,,,,,left,1,0.7671,,,,,,magnitude,6,1,6 | 1,5,0.065,0.05,congruent,left,0,42,42,20,1,,,,,,,,,,,,,,,,,,,,,,,,,,,,,,,,,,,,,,,,,,,,,,,,,,,,,,,,,,,,,,,,,,,,,,,,,,,,,,,,,,,,,,,,,,,,,,,,,,,,,,,,,,,,,,,,,,,,,,
,176876591960,ABC,14/10/2001,001,2023-11-01_21h57.30.924,OS3_Mult_verification,2022.2.4,Win32,59.95203837,,,,,,,,,,,,,,,,,,,,,,,,,,,,,,,,,,,left,1,0.4722,,,,,,magnitude,6,1,6 | 1,5,0.05,0.065,incongruent,left,0,43,43,44,1,,,,,,,,,,,,,,,,,,,,,,,,,,,,,,,,,,,,,,,,,,,,,,,,,,,,,,,,,,,,,,,,,,,,,,,,,,,,,,,,,,,,,,,,,,,,,,,,,,,,,,,,,,,,,,,,,,,,,,
,176876591960,ABC,14/10/2001,001,2023-11-01_21h57.30.924,OS3_Mult_verification,2022.2.4,Win32,59.95203837,,,,,,,,,,,,,,,,,,,,,,,,,,,,,,,,,,,left,1,0.5673,,,,,,magnitude,4,3,4 | 3,1,0.065,0.05,congruent,left,0,44,44,5,1,,,,,,,,,,,,,,,,,,,,,,,,,,,,,,,,,,,,,,,,,,,,,,,,,,,,,,,,,,,,,,,,,,,,,,,,,,,,,,,,,,,,,,,,,,,,,,,,,,,,,,,,,,,,,,,,,,,,,,
,176876591960,ABC,14/10/2001,001,2023-11-01_21h57.30.924,OS3_Mult_verification,2022.2.4,Win32,59.95203837,,,,,,,,,,,,,,,,,,,,,,,,,,,,,,,,,,,left,1,0.6179,,,,,,magnitude,4,2,4 | 2,2,0.065,0.05,congruent,left,0,45,45,13,1,,,,,,,,,,,,,,,,,,,,,,,,,,,,,,,,,,,,,,,,,,,,,,,,,,,,,,,,,,,,,,,,,,,,,,,,,,,,,,,,,,,,,,,,,,,,,,,,,,,,,,,,,,,,,,,,,,,,,,
,176876591960,ABC,14/10/2001,001,2023-11-01_21h57.30.924,OS3_Mult_verification,2022.2.4,Win32,59.95203837,,,,,,,,,,,,,,,,,,,,,,,,,,,,,,,,,,,right,1,0.4609,,,,,,magnitude,3,4,3 | 4,1,0.05,0.065,congruent,right,0,46,46,1,1,,,,,,,,,,,,,,,,,,,,,,,,,,,,,,,,,,,,,,,,,,,,,,,,,,,,,,,,,,,,,,,,,,,,,,,,,,,,,,,,,,,,,,,,,,,,,,,,,,,,,,,,,,,,,,,,,,,,,,
,176876591960,ABC,14/10/2001,001,2023-11-01_21h57.30.924,OS3_Mult_verification,2022.2.4,Win32,59.95203837,,,,,,,,,,,,,,,,,,,,,,,,,,,,,,,,,,,left,1,0.4506,,,,,,magnitude,2,1,2 | 1,1,0.065,0.05,congruent,left,0,47,47,4,1,,,,,,,,,,,,,,,,,,,,,,,,,,,,,,,,,,,,,,,,,,,,,,,,,,,,,,,,,,,,,,,,,,,,,,,,,,,,,,,,,,,,,,,,,,,,,,,,,,,,,,,,,,,,,,,,,,,,,,
,176876591960,ABC,14/10/2001,001,2023-11-01_21h57.30.924,OS3_Mult_verification,2022.2.4,Win32,59.95203837,,,,,,,,,,,,,,,,,,,,,,,,,,,,,,,,,,,right,1,0.4513,,,,,,magnitude,2,7,2 | 7,5,0.05,0.065,congruent,right,0,48,48,17,1,,,,,,,,,,,,,,,,,,,,,,,,,,,,,,,,,,,,,,,,,,,,,,,,,,,,,,,,,,,,,,,,,,,,,,,,,,,,,,,,,,,,,,,,,,,,,,,,,,,,,,,,,,,,,,,,,,,,,,
,176876591960,ABC,14/10/2001,001,2023-11-01_21h57.30.924,OS3_Mult_verification,2022.2.4,Win32,59.95203837,,,,,,,,,,,,,,,,,,,,,,,,,,,,,,,,,,,left,1,0.8005,,,,,,magnitude,8,6,8 | 6,2,0.05,0.065,incongruent,left,0,49,49,38,1,,,,,,,,,,,,,,,,,,,,,,,,,,,,,,,,,,,,,,,,,,,,,,,,,,,,,,,,,,,,,,,,,,,,,,,,,,,,,,,,,,,,,,,,,,,,,,,,,,,,,,,,,,,,,,,,,,,,,,
,176876591960,ABC,14/10/2001,001,2023-11-01_21h57.30.924,OS3_Mult_verification,2022.2.4,Win32,59.95203837,,,,,,,,,,,,,,,,,,,,,,,,,,,,,,,,,,,left,1,0.5176,,,,,,magnitude,9,7,9 | 7,2,0.065,0.05,congruent,left,0,50,50,15,1,,,,,,,,,,,,,,,,,,,,,,,,,,,,,,,,,,,,,,,,,,,,,,,,,,,,,,,,,,,,,,,,,,,,,,,,,,,,,,,,,,,,,,,,,,,,,,,,,,,,,,,,,,,,,,,,,,,,,,
,176876591960,ABC,14/10/2001,001,2023-11-01_21h57.30.924,OS3_Mult_verification,2022.2.4,Win32,59.95203837,,,,,,,,,,,,,,,,,,,,,,,,,,,,,,,,,,,left,1,0.5716,,,,,,magnitude,7,2,7 | 2,5,0.05,0.065,incongruent,left,0,51,51,45,1,,,,,,,,,,,,,,,,,,,,,,,,,,,,,,,,,,,,,,,,,,,,,,,,,,,,,,,,,,,,,,,,,,,,,,,,,,,,,,,,,,,,,,,,,,,,,,,,,,,,,,,,,,,,,,,,,,,,,,
,176876591960,ABC,14/10/2001,001,2023-11-01_21h57.30.924,OS3_Mult_verification,2022.2.4,Win32,59.95203837,,,,,,,,,,,,,,,,,,,,,,,,,,,,,,,,,,,left,1,0.5776,,,,,,magnitude,8,6,8 | 6,2,0.065,0.05,congruent,left,0,52,52,14,1,,,,,,,,,,,,,,,,,,,,,,,,,,,,,,,,,,,,,,,,,,,,,,,,,,,,,,,,,,,,,,,,,,,,,,,,,,,,,,,,,,,,,,,,,,,,,,,,,,,,,,,,,,,,,,,,,,,,,,
,176876591960,ABC,14/10/2001,001,2023-11-01_21h57.30.924,OS3_Mult_verification,2022.2.4,Win32,59.95203837,,,,,,,,,,,,,,,,,,,,,,,,,,,,,,,,,,,left,1,0.5847,,,,,,magnitude,9,8,9 | 8,1,0.05,0.065,incongruent,left,0,53,53,31,1,,,,,,,,,,,,,,,,,,,,,,,,,,,,,,,,,,,,,,,,,,,,,,,,,,,,,,,,,,,,,,,,,,,,,,,,,,,,,,,,,,,,,,,,,,,,,,,,,,,,,,,,,,,,,,,,,,,,,,
,176876591960,ABC,14/10/2001,001,2023-11-01_21h57.30.924,OS3_Mult_verification,2022.2.4,Win32,59.95203837,,,,,,,,,,,,,,,,,,,,,,,,,,,,,,,,,,,right,1,0.6001,,,,,,magnitude,1,3,1 | 3,2,0.05,0.065,congruent,right,0,54,54,8,1,,,,,,,,,,,,,,,,,,,,,,,,,,,,,,,,,,,,,,,,,,,,,,,,,,,,,,,,,,,,,,,,,,,,,,,,,,,,,,,,,,,,,,,,,,,,,,,,,,,,,,,,,,,,,,,,,,,,,,
,176876591960,ABC,14/10/2001,001,2023-11-01_21h57.30.924,OS3_Mult_verification,2022.2.4,Win32,59.95203837,,,,,,,,,,,,,,,,,,,,,,,,,,,,,,,,,,,right,1,0.5315,,,,,,magnitude,2,4,2 | 4,2,0.05,0.065,congruent,right,0,55,55,9,1,,,,,,,,,,,,,,,,,,,,,,,,,,,,,,,,,,,,,,,,,,,,,,,,,,,,,,,,,,,,,,,,,,,,,,,,,,,,,,,,,,,,,,,,,,,,,,,,,,,,,,,,,,,,,,,,,,,,,,
,176876591960,ABC,14/10/2001,001,2023-11-01_21h57.30.924,OS3_Mult_verification,2022.2.4,Win32,59.95203837,,,,,,,,,,,,,,,,,,,,,,,,,,,,,,,,,,,left,1,0.6028,,,,,,magnitude,8,3,8 | 3,5,0.06,0.06,neutral,left,0,56,56,70,1,,,,,,,,,,,,,,,,,,,,,,,,,,,,,,,,,,,,,,,,,,,,,,,,,,,,,,,,,,,,,,,,,,,,,,,,,,,,,,,,,,,,,,,,,,,,,,,,,,,,,,,,,,,,,,,,,,,,,,
,176876591960,ABC,14/10/2001,001,2023-11-01_21h57.30.924,OS3_Mult_verification,2022.2.4,Win32,59.95203837,,,,,,,,,,,,,,,,,,,,,,,,,,,,,,,,,,,left,1,0.5124,,,,,,magnitude,9,4,9 | 4,5,0.06,0.06,neutral,left,0,57,57,71,1,,,,,,,,,,,,,,,,,,,,,,,,,,,,,,,,,,,,,,,,,,,,,,,,,,,,,,,,,,,,,,,,,,,,,,,,,,,,,,,,,,,,,,,,,,,,,,,,,,,,,,,,,,,,,,,,,,,,,,
,176876591960,ABC,14/10/2001,001,2023-11-01_21h57.30.924,OS3_Mult_verification,2022.2.4,Win32,59.95203837,,,,,,,,,,,,,,,,,,,,,,,,,,,,,,,,,,,right,1,0.5846,,,,,,magnitude,4,9,4 | 9,5,0.065,0.05,incongruent,right,0,58,58,43,1,,,,,,,,,,,,,,,,,,,,,,,,,,,,,,,,,,,,,,,,,,,,,,,,,,,,,,,,,,,,,,,,,,,,,,,,,,,,,,,,,,,,,,,,,,,,,,,,,,,,,,,,,,,,,,,,,,,,,,
,176876591960,ABC,14/10/2001,001,2023-11-01_21h57.30.924,OS3_Mult_verification,2022.2.4,Win32,59.95203837,,,,,,,,,,,,,,,,,,,,,,,,,,,,,,,,,,,right,1,0.5344,,,,,,magnitude,6,7,6 | 7,1,0.05,0.065,congruent,right,0,59,59,2,1,,,,,,,,,,,,,,,,,,,,,,,,,,,,,,,,,,,,,,,,,,,,,,,,,,,,,,,,,,,,,,,,,,,,,,,,,,,,,,,,,,,,,,,,,,,,,,,,,,,,,,,,,,,,,,,,,,,,,,
,176876591960,ABC,14/10/2001,001,2023-11-01_21h57.30.924,OS3_Mult_verification,2022.2.4,Win32,59.95203837,,,,,,,,,,,,,,,,,,,,,,,,,,,,,,,,,,,left,1,0.5506,,,,,,magnitude,9,8,9 | 8,1,0.065,0.05,congruent,left,0,60,60,7,1,,,,,,,,,,,,,,,,,,,,,,,,,,,,,,,,,,,,,,,,,,,,,,,,,,,,,,,,,,,,,,,,,,,,,,,,,,,,,,,,,,,,,,,,,,,,,,,,,,,,,,,,,,,,,,,,,,,,,,
,176876591960,ABC,14/10/2001,001,2023-11-01_21h57.30.924,OS3_Mult_verification,2022.2.4,Win32,59.95203837,,,,,,,,,,,,,,,,,,,,,,,,,,,,,,,,,,,left,1,0.517,,,,,,magnitude,9,8,9 | 8,1,0.06,0.06,neutral,left,0,61,61,55,1,,,,,,,,,,,,,,,,,,,,,,,,,,,,,,,,,,,,,,,,,,,,,,,,,,,,,,,,,,,,,,,,,,,,,,,,,,,,,,,,,,,,,,,,,,,,,,,,,,,,,,,,,,,,,,,,,,,,,,
