windowSize,participant,group,DOB (DD/MM/YEAR),session,date,expName,psychopyVersion,OS,frameRate,typing_instr_resp.keys,typing_instr_resp.rt,typing_response,typing_rt,typing_score,typingSpeed_input_resp.keys,typingSpeed_input_resp.rt,typing_speed_trials.thisRepN,typing_speed_trials.thisTrialN,typing_speed_trials.thisN,typing_speed_trials.thisIndex,typing_speed_trials.ran,typing_speed_stim,typing_report_resp.keys,typing_report_resp.rt,vpt_trial_resp1.keys,vpt_trial_resp1.rt,typedResponse,fluency_rt,fluency_score,fluencyInputResp.keys,fluencyInputResp.rt,fluencyPracLoop.thisRepN,fluencyPracLoop.thisTrialN,fluencyPracLoop.thisN,fluencyPracLoop.thisIndex,fluencyPracLoop.ran,problem,answers,fluencyLoop.thisRepN,fluencyLoop.thisTrialN,fluencyLoop.thisN,fluencyLoop.thisIndex,fluencyLoop.ran,vptCorrect,vpt_rt,respMouse.x,respMouse.y,respMouse.leftButton,respMouse.midButton,respMouse.rightButton,vptPracticeLoop.thisRepN,vptPracticeLoop.thisTrialN,vptPracticeLoop.thisN,vptPracticeLoop.thisIndex,vptPracticeLoop.ran,trialType,tiles,rows,cols,vptTrialLoop.thisRepN,vptTrialLoop.thisTrialN,vptTrialLoop.thisN,vptTrialLoop.thisIndex,vptTrialLoop.ran,noOfBlocks,TASK_B.thisRepN,TASK_B.thisTrialN,TASK_B.thisN,TASK_B.thisIndex,TASK_B.ran,controlTaskOrder.thisRepN,controlTaskOrder.thisTrialN,controlTaskOrder.thisN,controlTaskOrder.thisIndex,controlTaskOrder.ran,nRepsTask1,nRepsTask2,nRepsTask3,stroopResp.keys,stroopResp.corr,stroopResp.rt,stroopPracLoop.thisRepN,stroopPracLoop.thisTrialN,stroopPracLoop.thisN,stroopPracLoop.thisIndex,stroopPracLoop.ran,stroopCond,leftNo,rightNo,displayProblem,numDistance,leftNo_size,rightNo_size,Dims,keyAnswer,stroopLoop.thisRepN,stroopLoop.thisTrialN,stroopLoop.thisN,stroopLoop.thisIndex,stroopLoop.ran,stroopBlocks.thisRepN,stroopBlocks.thisTrialN,stroopBlocks.thisN,stroopBlocks.thisIndex,stroopBlocks.ran,stroop_condition,stroop_pracFile,ActionInst,instrImage,TASK_A.thisRepN,TASK_A.thisTrialN,TASK_A.thisN,TASK_A.thisIndex,TASK_A.ran,sampleAudio_resp.keys,sampleAudio_resp.rt,subjResponse,audio_rt,DS_score,inputResp.keys,inputResp.rt,audioPracticeLoop.thisRepN,audioPracticeLoop.thisTrialN,audioPracticeLoop.thisN,audioPracticeLoop.thisIndex,audioPracticeLoop.ran,digitSpan,digits_audioStim,soundsFile,typeDS,audioTrials_Loop.thisRepN,audioTrials_Loop.thisTrialN,audioTrials_Loop.thisN,audioTrials_Loop.thisIndex,audioTrials_Loop.ran,audioBlocks_loop.thisRepN,audioBlocks_loop.thisTrialN,audioBlocks_loop.thisN,audioBlocks_loop.thisIndex,audioBlocks_loop.ran,ConditionFile,digitSpanTask_loop.thisRepN,digitSpanTask_loop.thisTrialN,digitSpanTask_loop.thisN,digitSpanTask_loop.thisIndex,digitSpanTask_loop.ran,dsFile,TASK_C.thisRepN,TASK_C.thisTrialN,TASK_C.thisN,TASK_C.thisIndex,TASK_C.ran,veriStim_resp.keys,veriStim_resp.corr,veriStim_resp.rt,verificationPracLoop.thisRepN,verificationPracLoop.thisTrialN,verificationPracLoop.thisN,verificationPracLoop.thisIndex,verificationPracLoop.ran,mult_problem,mult_answer,mult_type,error_distance,interferenceScore,problemType,interferenceLevel,problemSize,img_leftButton,img_rightButton,veriLoop.thisRepN,veriLoop.thisTrialN,veriLoop.thisN,veriLoop.thisIndex,veriLoop.ran,veriBlock.thisRepN,veriBlock.thisTrialN,veriBlock.thisN,veriBlock.thisIndex,veriBlock.ran,verificationFiles,end_resp.keys,end_resp.rt
"[1536,746]",484025127976,BAC,14/11/1999,001,2023-04-03_11h17.52.000,OS3_Mult_verification,2022.2.4,Win32,60.10337781,,,,,,,,,,,,,,,,,,,,,,,,,,,,,,,,,,,,,,,,,,,,,,,,,,,,,,,,,,,,,,,,,,,,,,,,,,,,,,,,,,,,,,,,,,,,,,,,,,,,,,,,,,,,,,,,,,,,,,,,,,,,,,,,,,,,,,,,,,,,,,,,,,,,,,,,,,,,,,,,,,,,,,,,,,,,,,
,484025127976,BAC,14/11/1999,001,2023-04-03_11h17.52.000,OS3_Mult_verification,2022.2.4,Win32,60.10337781,,,,,,,,,,,,,,,,,,,,,,,,,,,,,,,,,,,,,,,,,,,,,,,,,,,,,,,,,,,,,,,,,,,,,,,,,,,,,,,,,,,,,,,,,,,,,,,,,,,,,,,,,,,,,,,,,,,,,,,,,,,,,,,,,,,,,,,,,,,,,,,,,,,,,,,,,,,,,,,,,,,,,,,,,,,,,,
,484025127976,BAC,14/11/1999,001,2023-04-03_11h17.52.000,OS3_Mult_verification,2022.2.4,Win32,60.10337781,space,1.1324,,,,,,,,,,,,,,,,,,,,,,,,,,,,,,,,,,,,,,,,,,,,,,,,,,,,,,,,,,,,,,,,,,,,,,,,,,,,,,,,,,,,,,,,,,,,,,,,,,,,,,,,,,,,,,,,,,,,,,,,,,,,,,,,,,,,,,,,,,,,,,,,,,,,,,,,,,,,,,,,,,,,,,,,,,,,
,484025127976,BAC,14/11/1999,001,2023-04-03_11h17.52.000,OS3_Mult_verification,2022.2.4,Win32,60.10337781,,,14,6.4954,1,"[""1"",""4"",""return""]","[5.848200000047683,5.94960000014305,6.4521000001430515]",0,0,0,6,1,14,,,,,,,,,,,,,,,,,,,,,,,,,,,,,,,,,,,,,,,,,,,,,,,,,,,,,,,,,,,,,,,,,,,,,,,,,,,,,,,,,,,,,,,,,,,,,,,,,,,,,,,,,,,,,,,,,,,,,,,,,,,,,,,,,,,,,,,,,,,,,,,,,,,,,,,,,,,,,,,,,
,484025127976,BAC,14/11/1999,001,2023-04-03_11h17.52.000,OS3_Mult_verification,2022.2.4,Win32,60.10337781,,,45,1.3319,1,"[""4"",""5"",""return""]","[0.9854000000953675,1.1676000001430502,1.2826000001430486]",0,1,1,22,1,45,,,,,,,,,,,,,,,,,,,,,,,,,,,,,,,,,,,,,,,,,,,,,,,,,,,,,,,,,,,,,,,,,,,,,,,,,,,,,,,,,,,,,,,,,,,,,,,,,,,,,,,,,,,,,,,,,,,,,,,,,,,,,,,,,,,,,,,,,,,,,,,,,,,,,,,,,,,,,,,,,
,484025127976,BAC,14/11/1999,001,2023-04-03_11h17.52.000,OS3_Mult_verification,2022.2.4,Win32,60.10337781,,,15,1.6787,1,"[""1"",""5"",""return""]","[1.1665999999046335,1.4075999999046331,1.6337999999523163]",0,2,2,7,1,15,,,,,,,,,,,,,,,,,,,,,,,,,,,,,,,,,,,,,,,,,,,,,,,,,,,,,,,,,,,,,,,,,,,,,,,,,,,,,,,,,,,,,,,,,,,,,,,,,,,,,,,,,,,,,,,,,,,,,,,,,,,,,,,,,,,,,,,,,,,,,,,,,,,,,,,,,,,,,,,,,
,484025127976,BAC,14/11/1999,001,2023-04-03_11h17.52.000,OS3_Mult_verification,2022.2.4,Win32,60.10337781,,,42,1.2475,1,"[""4"",""2"",""return""]","[0.871500000000001,1.0253999998569476,1.217299999952317]",0,3,3,21,1,42,,,,,,,,,,,,,,,,,,,,,,,,,,,,,,,,,,,,,,,,,,,,,,,,,,,,,,,,,,,,,,,,,,,,,,,,,,,,,,,,,,,,,,,,,,,,,,,,,,,,,,,,,,,,,,,,,,,,,,,,,,,,,,,,,,,,,,,,,,,,,,,,,,,,,,,,,,,,,,,,,
,484025127976,BAC,14/11/1999,001,2023-04-03_11h17.52.000,OS3_Mult_verification,2022.2.4,Win32,60.10337781,,,49,1.7656,1,"[""4"",""9"",""return""]","[0.8505999999046345,1.2000000000000028,1.717299999952317]",0,4,4,24,1,49,,,,,,,,,,,,,,,,,,,,,,,,,,,,,,,,,,,,,,,,,,,,,,,,,,,,,,,,,,,,,,,,,,,,,,,,,,,,,,,,,,,,,,,,,,,,,,,,,,,,,,,,,,,,,,,,,,,,,,,,,,,,,,,,,,,,,,,,,,,,,,,,,,,,,,,,,,,,,,,,,
,484025127976,BAC,14/11/1999,001,2023-04-03_11h17.52.000,OS3_Mult_verification,2022.2.4,Win32,60.10337781,,,72,2.1817,1,"[""7"",""2"",""return""]","[0.9092999999523173,1.1163999998569487,2.1367999999523164]",0,5,5,29,1,72,,,,,,,,,,,,,,,,,,,,,,,,,,,,,,,,,,,,,,,,,,,,,,,,,,,,,,,,,,,,,,,,,,,,,,,,,,,,,,,,,,,,,,,,,,,,,,,,,,,,,,,,,,,,,,,,,,,,,,,,,,,,,,,,,,,,,,,,,,,,,,,,,,,,,,,,,,,,,,,,,
,484025127976,BAC,14/11/1999,001,2023-04-03_11h17.52.000,OS3_Mult_verification,2022.2.4,Win32,60.10337781,,,9,1.1991,1,"[""9"",""return""]","[0.8361000001430519,1.1585]",0,6,6,3,1,9,,,,,,,,,,,,,,,,,,,,,,,,,,,,,,,,,,,,,,,,,,,,,,,,,,,,,,,,,,,,,,,,,,,,,,,,,,,,,,,,,,,,,,,,,,,,,,,,,,,,,,,,,,,,,,,,,,,,,,,,,,,,,,,,,,,,,,,,,,,,,,,,,,,,,,,,,,,,,,,,,
,484025127976,BAC,14/11/1999,001,2023-04-03_11h17.52.000,OS3_Mult_verification,2022.2.4,Win32,60.10337781,,,27,1.4161,1,"[""2"",""7"",""return""]","[0.8191000001430524,1.2181000001430498,1.383100000143056]",0,7,7,14,1,27,,,,,,,,,,,,,,,,,,,,,,,,,,,,,,,,,,,,,,,,,,,,,,,,,,,,,,,,,,,,,,,,,,,,,,,,,,,,,,,,,,,,,,,,,,,,,,,,,,,,,,,,,,,,,,,,,,,,,,,,,,,,,,,,,,,,,,,,,,,,,,,,,,,,,,,,,,,,,,,,,
,484025127976,BAC,14/11/1999,001,2023-04-03_11h17.52.000,OS3_Mult_verification,2022.2.4,Win32,60.10337781,,,24,1.0953,1,"[""2"",""4"",""return""]","[0.6677999999523223,0.9258999998569521,1.056199999809266]",0,8,8,12,1,24,,,,,,,,,,,,,,,,,,,,,,,,,,,,,,,,,,,,,,,,,,,,,,,,,,,,,,,,,,,,,,,,,,,,,,,,,,,,,,,,,,,,,,,,,,,,,,,,,,,,,,,,,,,,,,,,,,,,,,,,,,,,,,,,,,,,,,,,,,,,,,,,,,,,,,,,,,,,,,,,,
,484025127976,BAC,14/11/1999,001,2023-04-03_11h17.52.000,OS3_Mult_verification,2022.2.4,Win32,60.10337781,,,54,1.0991,1,"[""5"",""4"",""return""]","[0.8628999998569427,0.9525999999046277,1.057899999856943]",0,9,9,25,1,54,,,,,,,,,,,,,,,,,,,,,,,,,,,,,,,,,,,,,,,,,,,,,,,,,,,,,,,,,,,,,,,,,,,,,,,,,,,,,,,,,,,,,,,,,,,,,,,,,,,,,,,,,,,,,,,,,,,,,,,,,,,,,,,,,,,,,,,,,,,,,,,,,,,,,,,,,,,,,,,,,
,484025127976,BAC,14/11/1999,001,2023-04-03_11h17.52.000,OS3_Mult_verification,2022.2.4,Win32,60.10337781,,,81,1.2155,1,"[""8"",""1"",""return""]","[0.875,1.0218999998569487,1.172899999856945]",0,10,10,30,1,81,,,,,,,,,,,,,,,,,,,,,,,,,,,,,,,,,,,,,,,,,,,,,,,,,,,,,,,,,,,,,,,,,,,,,,,,,,,,,,,,,,,,,,,,,,,,,,,,,,,,,,,,,,,,,,,,,,,,,,,,,,,,,,,,,,,,,,,,,,,,,,,,,,,,,,,,,,,,,,,,,
,484025127976,BAC,14/11/1999,001,2023-04-03_11h17.52.000,OS3_Mult_verification,2022.2.4,Win32,60.10337781,,,35,1.282,1,"[""3"",""5"",""return""]","[0.9277999999523203,1.1267999999523184,1.2418999998569547]",0,11,11,18,1,35,,,,,,,,,,,,,,,,,,,,,,,,,,,,,,,,,,,,,,,,,,,,,,,,,,,,,,,,,,,,,,,,,,,,,,,,,,,,,,,,,,,,,,,,,,,,,,,,,,,,,,,,,,,,,,,,,,,,,,,,,,,,,,,,,,,,,,,,,,,,,,,,,,,,,,,,,,,,,,,,,
,484025127976,BAC,14/11/1999,001,2023-04-03_11h17.52.000,OS3_Mult_verification,2022.2.4,Win32,60.10337781,,,30,1.466,1,"[""3"",""0"",""return""]","[0.9840999999046289,1.1093999998569473,1.4172000000476785]",0,12,12,16,1,30,,,,,,,,,,,,,,,,,,,,,,,,,,,,,,,,,,,,,,,,,,,,,,,,,,,,,,,,,,,,,,,,,,,,,,,,,,,,,,,,,,,,,,,,,,,,,,,,,,,,,,,,,,,,,,,,,,,,,,,,,,,,,,,,,,,,,,,,,,,,,,,,,,,,,,,,,,,,,,,,,
,484025127976,BAC,14/11/1999,001,2023-04-03_11h17.52.000,OS3_Mult_verification,2022.2.4,Win32,60.10337781,,,8,1.0825,1,"[""8"",""return""]","[0.9068999998569467,1.035299999952315]",0,13,13,2,1,8,,,,,,,,,,,,,,,,,,,,,,,,,,,,,,,,,,,,,,,,,,,,,,,,,,,,,,,,,,,,,,,,,,,,,,,,,,,,,,,,,,,,,,,,,,,,,,,,,,,,,,,,,,,,,,,,,,,,,,,,,,,,,,,,,,,,,,,,,,,,,,,,,,,,,,,,,,,,,,,,,
,484025127976,BAC,14/11/1999,001,2023-04-03_11h17.52.000,OS3_Mult_verification,2022.2.4,Win32,60.10337781,,,4,1.0152,1,"[""4"",""return""]","[0.8587999999523177,0.9674000000953669]",0,14,14,0,1,4,,,,,,,,,,,,,,,,,,,,,,,,,,,,,,,,,,,,,,,,,,,,,,,,,,,,,,,,,,,,,,,,,,,,,,,,,,,,,,,,,,,,,,,,,,,,,,,,,,,,,,,,,,,,,,,,,,,,,,,,,,,,,,,,,,,,,,,,,,,,,,,,,,,,,,,,,,,,,,,,,
,484025127976,BAC,14/11/1999,001,2023-04-03_11h17.52.000,OS3_Mult_verification,2022.2.4,Win32,60.10337781,,,56,1.6486,1,"[""5"",""6"",""return""]","[1.1350999999046323,1.3700000000000045,1.6024999999999991]",0,15,15,26,1,56,,,,,,,,,,,,,,,,,,,,,,,,,,,,,,,,,,,,,,,,,,,,,,,,,,,,,,,,,,,,,,,,,,,,,,,,,,,,,,,,,,,,,,,,,,,,,,,,,,,,,,,,,,,,,,,,,,,,,,,,,,,,,,,,,,,,,,,,,,,,,,,,,,,,,,,,,,,,,,,,,
,484025127976,BAC,14/11/1999,001,2023-04-03_11h17.52.000,OS3_Mult_verification,2022.2.4,Win32,60.10337781,,,48,1.5323,1,"[""4"",""8"",""return""]","[0.8395999999046353,1.3782999999523184,1.485399999856952]",0,16,16,23,1,48,,,,,,,,,,,,,,,,,,,,,,,,,,,,,,,,,,,,,,,,,,,,,,,,,,,,,,,,,,,,,,,,,,,,,,,,,,,,,,,,,,,,,,,,,,,,,,,,,,,,,,,,,,,,,,,,,,,,,,,,,,,,,,,,,,,,,,,,,,,,,,,,,,,,,,,,,,,,,,,,,
,484025127976,BAC,14/11/1999,001,2023-04-03_11h17.52.000,OS3_Mult_verification,2022.2.4,Win32,60.10337781,,,28,2.0988,1,"[""2"",""8"",""return""]","[1.32509999990463,1.9010000000000034,2.049500000000002]",0,17,17,15,1,28,,,,,,,,,,,,,,,,,,,,,,,,,,,,,,,,,,,,,,,,,,,,,,,,,,,,,,,,,,,,,,,,,,,,,,,,,,,,,,,,,,,,,,,,,,,,,,,,,,,,,,,,,,,,,,,,,,,,,,,,,,,,,,,,,,,,,,,,,,,,,,,,,,,,,,,,,,,,,,,,,
,484025127976,BAC,14/11/1999,001,2023-04-03_11h17.52.000,OS3_Mult_verification,2022.2.4,Win32,60.10337781,,,16,1.549,1,"[""1"",""6"",""return""]","[0.684599999904627,1.0498999998569474,1.502799999952316]",0,18,18,8,1,16,,,,,,,,,,,,,,,,,,,,,,,,,,,,,,,,,,,,,,,,,,,,,,,,,,,,,,,,,,,,,,,,,,,,,,,,,,,,,,,,,,,,,,,,,,,,,,,,,,,,,,,,,,,,,,,,,,,,,,,,,,,,,,,,,,,,,,,,,,,,,,,,,,,,,,,,,,,,,,,,,
,484025127976,BAC,14/11/1999,001,2023-04-03_11h17.52.000,OS3_Mult_verification,2022.2.4,Win32,60.10337781,,,32,1.0661,1,"[""3"",""2"",""return""]","[0.7886000001430489,0.8828000001907341,1.024000000000001]",0,19,19,17,1,32,,,,,,,,,,,,,,,,,,,,,,,,,,,,,,,,,,,,,,,,,,,,,,,,,,,,,,,,,,,,,,,,,,,,,,,,,,,,,,,,,,,,,,,,,,,,,,,,,,,,,,,,,,,,,,,,,,,,,,,,,,,,,,,,,,,,,,,,,,,,,,,,,,,,,,,,,,,,,,,,,
,484025127976,BAC,14/11/1999,001,2023-04-03_11h17.52.000,OS3_Mult_verification,2022.2.4,Win32,60.10337781,,,40,1.3988,1,"[""4"",""0"",""return""]","[0.8180999999046321,1.1942000000476796,1.3595999999046313]",0,20,20,20,1,40,,,,,,,,,,,,,,,,,,,,,,,,,,,,,,,,,,,,,,,,,,,,,,,,,,,,,,,,,,,,,,,,,,,,,,,,,,,,,,,,,,,,,,,,,,,,,,,,,,,,,,,,,,,,,,,,,,,,,,,,,,,,,,,,,,,,,,,,,,,,,,,,,,,,,,,,,,,,,,,,,
,484025127976,BAC,14/11/1999,001,2023-04-03_11h17.52.000,OS3_Mult_verification,2022.2.4,Win32,60.10337781,,,25,1.3528,1,"[""2"",""5"",""return""]","[1.0010000000000048,1.1325000000000003,1.3165000000000049]",0,21,21,13,1,25,,,,,,,,,,,,,,,,,,,,,,,,,,,,,,,,,,,,,,,,,,,,,,,,,,,,,,,,,,,,,,,,,,,,,,,,,,,,,,,,,,,,,,,,,,,,,,,,,,,,,,,,,,,,,,,,,,,,,,,,,,,,,,,,,,,,,,,,,,,,,,,,,,,,,,,,,,,,,,,,,
,484025127976,BAC,14/11/1999,001,2023-04-03_11h17.52.000,OS3_Mult_verification,2022.2.4,Win32,60.10337781,,,6,0.9988,1,"[""6"",""return""]","[0.835099999904628,0.9617000000476779]",0,22,22,1,1,6,,,,,,,,,,,,,,,,,,,,,,,,,,,,,,,,,,,,,,,,,,,,,,,,,,,,,,,,,,,,,,,,,,,,,,,,,,,,,,,,,,,,,,,,,,,,,,,,,,,,,,,,,,,,,,,,,,,,,,,,,,,,,,,,,,,,,,,,,,,,,,,,,,,,,,,,,,,,,,,,,
,484025127976,BAC,14/11/1999,001,2023-04-03_11h17.52.000,OS3_Mult_verification,2022.2.4,Win32,60.10337781,,,64,1.3198,1,"[""6"",""4"",""return""]","[0.8110999999046342,1.0838999998569534,1.2828999998569515]",0,23,23,28,1,64,,,,,,,,,,,,,,,,,,,,,,,,,,,,,,,,,,,,,,,,,,,,,,,,,,,,,,,,,,,,,,,,,,,,,,,,,,,,,,,,,,,,,,,,,,,,,,,,,,,,,,,,,,,,,,,,,,,,,,,,,,,,,,,,,,,,,,,,,,,,,,,,,,,,,,,,,,,,,,,,,
,484025127976,BAC,14/11/1999,001,2023-04-03_11h17.52.000,OS3_Mult_verification,2022.2.4,Win32,60.10337781,,,12,1.2487,1,"[""1"",""2"",""return""]","[0.8995000000000033,0.9933000001907359,1.203400000095371]",0,24,24,5,1,12,,,,,,,,,,,,,,,,,,,,,,,,,,,,,,,,,,,,,,,,,,,,,,,,,,,,,,,,,,,,,,,,,,,,,,,,,,,,,,,,,,,,,,,,,,,,,,,,,,,,,,,,,,,,,,,,,,,,,,,,,,,,,,,,,,,,,,,,,,,,,,,,,,,,,,,,,,,,,,,,,
,484025127976,BAC,14/11/1999,001,2023-04-03_11h17.52.000,OS3_Mult_verification,2022.2.4,Win32,60.10337781,,,21,0.9196,1,"[""2"",""1"",""return""]","[0.6344000000953685,0.7185999999046331,0.883099999904637]",0,25,25,11,1,21,,,,,,,,,,,,,,,,,,,,,,,,,,,,,,,,,,,,,,,,,,,,,,,,,,,,,,,,,,,,,,,,,,,,,,,,,,,,,,,,,,,,,,,,,,,,,,,,,,,,,,,,,,,,,,,,,,,,,,,,,,,,,,,,,,,,,,,,,,,,,,,,,,,,,,,,,,,,,,,,,
,484025127976,BAC,14/11/1999,001,2023-04-03_11h17.52.000,OS3_Mult_verification,2022.2.4,Win32,60.10337781,,,18,1.1534,1,"[""1"",""8"",""return""]","[0.5192000000476895,1.0089000000953732,1.1164000000953678]",0,26,26,9,1,18,,,,,,,,,,,,,,,,,,,,,,,,,,,,,,,,,,,,,,,,,,,,,,,,,,,,,,,,,,,,,,,,,,,,,,,,,,,,,,,,,,,,,,,,,,,,,,,,,,,,,,,,,,,,,,,,,,,,,,,,,,,,,,,,,,,,,,,,,,,,,,,,,,,,,,,,,,,,,,,,,
,484025127976,BAC,14/11/1999,001,2023-04-03_11h17.52.000,OS3_Mult_verification,2022.2.4,Win32,60.10337781,,,10,1.1327,1,"[""1"",""0"",""return""]","[0.5005999999046367,0.9828999998569472,1.0840000000000032]",0,27,27,4,1,10,,,,,,,,,,,,,,,,,,,,,,,,,,,,,,,,,,,,,,,,,,,,,,,,,,,,,,,,,,,,,,,,,,,,,,,,,,,,,,,,,,,,,,,,,,,,,,,,,,,,,,,,,,,,,,,,,,,,,,,,,,,,,,,,,,,,,,,,,,,,,,,,,,,,,,,,,,,,,,,,,
,484025127976,BAC,14/11/1999,001,2023-04-03_11h17.52.000,OS3_Mult_verification,2022.2.4,Win32,60.10337781,,,36,1.4495,1,"[""3"",""6"",""return""]","[0.9720999999046285,1.2874999999999943,1.4004999999999939]",0,28,28,19,1,36,,,,,,,,,,,,,,,,,,,,,,,,,,,,,,,,,,,,,,,,,,,,,,,,,,,,,,,,,,,,,,,,,,,,,,,,,,,,,,,,,,,,,,,,,,,,,,,,,,,,,,,,,,,,,,,,,,,,,,,,,,,,,,,,,,,,,,,,,,,,,,,,,,,,,,,,,,,,,,,,,
,484025127976,BAC,14/11/1999,001,2023-04-03_11h17.52.000,OS3_Mult_verification,2022.2.4,Win32,60.10337781,,,63,1.3988,1,"[""6"",""3"",""return""]","[0.9752999999523126,1.2419999999999902,1.3540999999046335]",0,29,29,27,1,63,,,,,,,,,,,,,,,,,,,,,,,,,,,,,,,,,,,,,,,,,,,,,,,,,,,,,,,,,,,,,,,,,,,,,,,,,,,,,,,,,,,,,,,,,,,,,,,,,,,,,,,,,,,,,,,,,,,,,,,,,,,,,,,,,,,,,,,,,,,,,,,,,,,,,,,,,,,,,,,,,
,484025127976,BAC,14/11/1999,001,2023-04-03_11h17.52.000,OS3_Mult_verification,2022.2.4,Win32,60.10337781,,,20,1.2489,1,"[""2"",""0"",""return""]","[0.6831000001430567,1.106600000143061,1.2027000000476846]",0,30,30,10,1,20,,,,,,,,,,,,,,,,,,,,,,,,,,,,,,,,,,,,,,,,,,,,,,,,,,,,,,,,,,,,,,,,,,,,,,,,,,,,,,,,,,,,,,,,,,,,,,,,,,,,,,,,,,,,,,,,,,,,,,,,,,,,,,,,,,,,,,,,,,,,,,,,,,,,,,,,,,,,,,,,,
,484025127976,BAC,14/11/1999,001,2023-04-03_11h17.52.000,OS3_Mult_verification,2022.2.4,Win32,60.10337781,,,15,1.1863,1,"[""1"",""5"",""return""]","[0.7999000000953629,0.9942999999523181,1.1499000000953714]",1,0,31,7,1,15,,,,,,,,,,,,,,,,,,,,,,,,,,,,,,,,,,,,,,,,,,,,,,,,,,,,,,,,,,,,,,,,,,,,,,,,,,,,,,,,,,,,,,,,,,,,,,,,,,,,,,,,,,,,,,,,,,,,,,,,,,,,,,,,,,,,,,,,,,,,,,,,,,,,,,,,,,,,,,,,,
,484025127976,BAC,14/11/1999,001,2023-04-03_11h17.52.000,OS3_Mult_verification,2022.2.4,Win32,60.10337781,,,25,1.0826,1,"[""2"",""5"",""return""]","[0.6019000000953696,0.8867000000476821,1.0337000000476877]",1,1,32,13,1,25,,,,,,,,,,,,,,,,,,,,,,,,,,,,,,,,,,,,,,,,,,,,,,,,,,,,,,,,,,,,,,,,,,,,,,,,,,,,,,,,,,,,,,,,,,,,,,,,,,,,,,,,,,,,,,,,,,,,,,,,,,,,,,,,,,,,,,,,,,,,,,,,,,,,,,,,,,,,,,,,,
,484025127976,BAC,14/11/1999,001,2023-04-03_11h17.52.000,OS3_Mult_verification,2022.2.4,Win32,60.10337781,,,63,1.1992,1,"[""6"",""3"",""return""]","[0.7505000000000024,1.0247000000476874,1.1573000001907445]",1,2,33,27,1,63,,,,,,,,,,,,,,,,,,,,,,,,,,,,,,,,,,,,,,,,,,,,,,,,,,,,,,,,,,,,,,,,,,,,,,,,,,,,,,,,,,,,,,,,,,,,,,,,,,,,,,,,,,,,,,,,,,,,,,,,,,,,,,,,,,,,,,,,,,,,,,,,,,,,,,,,,,,,,,,,,
,484025127976,BAC,14/11/1999,001,2023-04-03_11h17.52.000,OS3_Mult_verification,2022.2.4,Win32,60.10337781,,,9,0.9202,1,"[""9"",""return""]","[0.8166000001430405,0.8832999999523139]",1,3,34,3,1,9,,,,,,,,,,,,,,,,,,,,,,,,,,,,,,,,,,,,,,,,,,,,,,,,,,,,,,,,,,,,,,,,,,,,,,,,,,,,,,,,,,,,,,,,,,,,,,,,,,,,,,,,,,,,,,,,,,,,,,,,,,,,,,,,,,,,,,,,,,,,,,,,,,,,,,,,,,,,,,,,,
,484025127976,BAC,14/11/1999,001,2023-04-03_11h17.52.000,OS3_Mult_verification,2022.2.4,Win32,60.10337781,,,10,1.1321,1,"[""1"",""0"",""return""]","[0.6340000000000003,0.9849999999999994,1.0951000001430486]",1,4,35,4,1,10,,,,,,,,,,,,,,,,,,,,,,,,,,,,,,,,,,,,,,,,,,,,,,,,,,,,,,,,,,,,,,,,,,,,,,,,,,,,,,,,,,,,,,,,,,,,,,,,,,,,,,,,,,,,,,,,,,,,,,,,,,,,,,,,,,,,,,,,,,,,,,,,,,,,,,,,,,,,,,,,,
,484025127976,BAC,14/11/1999,001,2023-04-03_11h17.52.000,OS3_Mult_verification,2022.2.4,Win32,60.10337781,,,6,0.9198,1,"[""6"",""return""]","[0.8175000000000097,0.8835999999046322]",1,5,36,1,1,6,,,,,,,,,,,,,,,,,,,,,,,,,,,,,,,,,,,,,,,,,,,,,,,,,,,,,,,,,,,,,,,,,,,,,,,,,,,,,,,,,,,,,,,,,,,,,,,,,,,,,,,,,,,,,,,,,,,,,,,,,,,,,,,,,,,,,,,,,,,,,,,,,,,,,,,,,,,,,,,,,
,484025127976,BAC,14/11/1999,001,2023-04-03_11h17.52.000,OS3_Mult_verification,2022.2.4,Win32,60.10337781,,,12,1.2531,1,"[""1"",""2"",""return""]","[0.8449999999999989,1.0005999999046225,1.2162999999523123]",1,6,37,5,1,12,,,,,,,,,,,,,,,,,,,,,,,,,,,,,,,,,,,,,,,,,,,,,,,,,,,,,,,,,,,,,,,,,,,,,,,,,,,,,,,,,,,,,,,,,,,,,,,,,,,,,,,,,,,,,,,,,,,,,,,,,,,,,,,,,,,,,,,,,,,,,,,,,,,,,,,,,,,,,,,,,
,484025127976,BAC,14/11/1999,001,2023-04-03_11h17.52.000,OS3_Mult_verification,2022.2.4,Win32,60.10337781,,,48,1.3323,1,"[""4"",""8"",""return""]","[0.8672000000476743,1.1412999999523095,1.2868999998569421]",1,7,38,23,1,48,,,,,,,,,,,,,,,,,,,,,,,,,,,,,,,,,,,,,,,,,,,,,,,,,,,,,,,,,,,,,,,,,,,,,,,,,,,,,,,,,,,,,,,,,,,,,,,,,,,,,,,,,,,,,,,,,,,,,,,,,,,,,,,,,,,,,,,,,,,,,,,,,,,,,,,,,,,,,,,,,
,484025127976,BAC,14/11/1999,001,2023-04-03_11h17.52.000,OS3_Mult_verification,2022.2.4,Win32,60.10337781,,,8,1.0662,1,"[""8"",""return""]","[0.8876000001430526,1.0187999999523214]",1,8,39,2,1,8,,,,,,,,,,,,,,,,,,,,,,,,,,,,,,,,,,,,,,,,,,,,,,,,,,,,,,,,,,,,,,,,,,,,,,,,,,,,,,,,,,,,,,,,,,,,,,,,,,,,,,,,,,,,,,,,,,,,,,,,,,,,,,,,,,,,,,,,,,,,,,,,,,,,,,,,,,,,,,,,,
,484025127976,BAC,14/11/1999,001,2023-04-03_11h17.52.000,OS3_Mult_verification,2022.2.4,Win32,60.10337781,,,81,1.7032,1,"[""8"",""1"",""return""]","[0.906099999904626,1.221599999904626,1.6665999999046335]",1,9,40,30,1,81,,,,,,,,,,,,,,,,,,,,,,,,,,,,,,,,,,,,,,,,,,,,,,,,,,,,,,,,,,,,,,,,,,,,,,,,,,,,,,,,,,,,,,,,,,,,,,,,,,,,,,,,,,,,,,,,,,,,,,,,,,,,,,,,,,,,,,,,,,,,,,,,,,,,,,,,,,,,,,,,,
,484025127976,BAC,14/11/1999,001,2023-04-03_11h17.52.000,OS3_Mult_verification,2022.2.4,Win32,60.10337781,,,30,1.4653,1,"[""3"",""0"",""return""]","[0.9334000000953608,1.3174000000953612,1.4210999999046265]",1,10,41,16,1,30,,,,,,,,,,,,,,,,,,,,,,,,,,,,,,,,,,,,,,,,,,,,,,,,,,,,,,,,,,,,,,,,,,,,,,,,,,,,,,,,,,,,,,,,,,,,,,,,,,,,,,,,,,,,,,,,,,,,,,,,,,,,,,,,,,,,,,,,,,,,,,,,,,,,,,,,,,,,,,,,,
,484025127976,BAC,14/11/1999,001,2023-04-03_11h17.52.000,OS3_Mult_verification,2022.2.4,Win32,60.10337781,,,56,1.2823,1,"[""5"",""6"",""return""]","[0.9343999998569501,1.1005999999046452,1.2415999999046363]",1,11,42,26,1,56,,,,,,,,,,,,,,,,,,,,,,,,,,,,,,,,,,,,,,,,,,,,,,,,,,,,,,,,,,,,,,,,,,,,,,,,,,,,,,,,,,,,,,,,,,,,,,,,,,,,,,,,,,,,,,,,,,,,,,,,,,,,,,,,,,,,,,,,,,,,,,,,,,,,,,,,,,,,,,,,,
,484025127976,BAC,14/11/1999,001,2023-04-03_11h17.52.000,OS3_Mult_verification,2022.2.4,Win32,60.10337781,,,18,1.3661,1,"[""1"",""8"",""return""]","[0.8922000000476942,1.1898000001907434,1.328400000095371]",1,12,43,9,1,18,,,,,,,,,,,,,,,,,,,,,,,,,,,,,,,,,,,,,,,,,,,,,,,,,,,,,,,,,,,,,,,,,,,,,,,,,,,,,,,,,,,,,,,,,,,,,,,,,,,,,,,,,,,,,,,,,,,,,,,,,,,,,,,,,,,,,,,,,,,,,,,,,,,,,,,,,,,,,,,,,
,484025127976,BAC,14/11/1999,001,2023-04-03_11h17.52.000,OS3_Mult_verification,2022.2.4,Win32,60.10337781,,,20,1.3321,1,"[""2"",""0"",""return""]","[0.7552000000476937,1.1582999999523196,1.2857000000476972]",1,13,44,10,1,20,,,,,,,,,,,,,,,,,,,,,,,,,,,,,,,,,,,,,,,,,,,,,,,,,,,,,,,,,,,,,,,,,,,,,,,,,,,,,,,,,,,,,,,,,,,,,,,,,,,,,,,,,,,,,,,,,,,,,,,,,,,,,,,,,,,,,,,,,,,,,,,,,,,,,,,,,,,,,,,,,
,484025127976,BAC,14/11/1999,001,2023-04-03_11h17.52.000,OS3_Mult_verification,2022.2.4,Win32,60.10337781,,,54,1.1157,1,"[""5"",""4"",""return""]","[0.7682000000476847,0.9514999999999958,1.0676000001430452]",1,14,45,25,1,54,,,,,,,,,,,,,,,,,,,,,,,,,,,,,,,,,,,,,,,,,,,,,,,,,,,,,,,,,,,,,,,,,,,,,,,,,,,,,,,,,,,,,,,,,,,,,,,,,,,,,,,,,,,,,,,,,,,,,,,,,,,,,,,,,,,,,,,,,,,,,,,,,,,,,,,,,,,,,,,,,
,484025127976,BAC,14/11/1999,001,2023-04-03_11h17.52.000,OS3_Mult_verification,2022.2.4,Win32,60.10337781,,,72,1.6645,1,"[""7"",""2"",""return""]","[0.784600000143044,1.4367999999523136,1.616900000095356]",1,15,46,29,1,72,,,,,,,,,,,,,,,,,,,,,,,,,,,,,,,,,,,,,,,,,,,,,,,,,,,,,,,,,,,,,,,,,,,,,,,,,,,,,,,,,,,,,,,,,,,,,,,,,,,,,,,,,,,,,,,,,,,,,,,,,,,,,,,,,,,,,,,,,,,,,,,,,,,,,,,,,,,,,,,,,
,484025127976,BAC,14/11/1999,001,2023-04-03_11h17.52.000,OS3_Mult_verification,2022.2.4,Win32,60.10337781,,,32,2.1816,1,"[""4"",""backspace"",""3"",""2"",""return""]","[1.0677000000476795,1.8006000001430493,1.9334999999999951,2.019999999999996,2.1497000000476874]",1,16,47,17,1,32,,,,,,,,,,,,,,,,,,,,,,,,,,,,,,,,,,,,,,,,,,,,,,,,,,,,,,,,,,,,,,,,,,,,,,,,,,,,,,,,,,,,,,,,,,,,,,,,,,,,,,,,,,,,,,,,,,,,,,,,,,,,,,,,,,,,,,,,,,,,,,,,,,,,,,,,,,,,,,,,,
,484025127976,BAC,14/11/1999,001,2023-04-03_11h17.52.000,OS3_Mult_verification,2022.2.4,Win32,60.10337781,,,24,1.3657,1,"[""2"",""4"",""return""]","[0.9445999999046393,1.1620000000000061,1.3180999999046321]",1,17,48,12,1,24,,,,,,,,,,,,,,,,,,,,,,,,,,,,,,,,,,,,,,,,,,,,,,,,,,,,,,,,,,,,,,,,,,,,,,,,,,,,,,,,,,,,,,,,,,,,,,,,,,,,,,,,,,,,,,,,,,,,,,,,,,,,,,,,,,,,,,,,,,,,,,,,,,,,,,,,,,,,,,,,,
,484025127976,BAC,14/11/1999,001,2023-04-03_11h17.52.000,OS3_Mult_verification,2022.2.4,Win32,60.10337781,,,42,1.0201,1,"[""4"",""2"",""return""]","[0.7830999999046355,0.8504999999999967,0.9845999999046313]",1,18,49,21,1,42,,,,,,,,,,,,,,,,,,,,,,,,,,,,,,,,,,,,,,,,,,,,,,,,,,,,,,,,,,,,,,,,,,,,,,,,,,,,,,,,,,,,,,,,,,,,,,,,,,,,,,,,,,,,,,,,,,,,,,,,,,,,,,,,,,,,,,,,,,,,,,,,,,,,,,,,,,,,,,,,,
,484025127976,BAC,14/11/1999,001,2023-04-03_11h17.52.000,OS3_Mult_verification,2022.2.4,Win32,60.10337781,,,28,1.1867,1,"[""2"",""8"",""return""]","[0.5862000000476826,1.0019999999999953,1.1499000000953572]",1,19,50,15,1,28,,,,,,,,,,,,,,,,,,,,,,,,,,,,,,,,,,,,,,,,,,,,,,,,,,,,,,,,,,,,,,,,,,,,,,,,,,,,,,,,,,,,,,,,,,,,,,,,,,,,,,,,,,,,,,,,,,,,,,,,,,,,,,,,,,,,,,,,,,,,,,,,,,,,,,,,,,,,,,,,,
,484025127976,BAC,14/11/1999,001,2023-04-03_11h17.52.000,OS3_Mult_verification,2022.2.4,Win32,60.10337781,,,15,3.2356,0,"[""1"",""5"",""return""]","[1.9834000000953722,2.9741000001430535,3.19850000000001]",1,20,51,6,1,14,,,,,,,,,,,,,,,,,,,,,,,,,,,,,,,,,,,,,,,,,,,,,,,,,,,,,,,,,,,,,,,,,,,,,,,,,,,,,,,,,,,,,,,,,,,,,,,,,,,,,,,,,,,,,,,,,,,,,,,,,,,,,,,,,,,,,,,,,,,,,,,,,,,,,,,,,,,,,,,,,
,484025127976,BAC,14/11/1999,001,2023-04-03_11h17.52.000,OS3_Mult_verification,2022.2.4,Win32,60.10337781,,,16,1.3654,1,"[""1"",""6"",""return""]","[0.8672999999523086,1.2172999999523029,1.3269999999999982]",1,21,52,8,1,16,,,,,,,,,,,,,,,,,,,,,,,,,,,,,,,,,,,,,,,,,,,,,,,,,,,,,,,,,,,,,,,,,,,,,,,,,,,,,,,,,,,,,,,,,,,,,,,,,,,,,,,,,,,,,,,,,,,,,,,,,,,,,,,,,,,,,,,,,,,,,,,,,,,,,,,,,,,,,,,,,
,484025127976,BAC,14/11/1999,001,2023-04-03_11h17.52.000,OS3_Mult_verification,2022.2.4,Win32,60.10337781,,,21,0.8493,1,"[""2"",""1"",""return""]","[0.6048000001907354,0.6942000000476867,0.8061000001430614]",1,22,53,11,1,21,,,,,,,,,,,,,,,,,,,,,,,,,,,,,,,,,,,,,,,,,,,,,,,,,,,,,,,,,,,,,,,,,,,,,,,,,,,,,,,,,,,,,,,,,,,,,,,,,,,,,,,,,,,,,,,,,,,,,,,,,,,,,,,,,,,,,,,,,,,,,,,,,,,,,,,,,,,,,,,,,
,484025127976,BAC,14/11/1999,001,2023-04-03_11h17.52.000,OS3_Mult_verification,2022.2.4,Win32,60.10337781,,,27,1.0824,1,"[""2"",""7"",""return""]","[0.5534000000953654,0.9425999999046297,1.0342999999523101]",1,23,54,14,1,27,,,,,,,,,,,,,,,,,,,,,,,,,,,,,,,,,,,,,,,,,,,,,,,,,,,,,,,,,,,,,,,,,,,,,,,,,,,,,,,,,,,,,,,,,,,,,,,,,,,,,,,,,,,,,,,,,,,,,,,,,,,,,,,,,,,,,,,,,,,,,,,,,,,,,,,,,,,,,,,,,
,484025127976,BAC,14/11/1999,001,2023-04-03_11h17.52.000,OS3_Mult_verification,2022.2.4,Win32,60.10337781,,,45,1.2031,1,"[""4"",""5"",""return""]","[0.8901999998092691,1.033599999904638,1.1655000000000086]",1,24,55,22,1,45,,,,,,,,,,,,,,,,,,,,,,,,,,,,,,,,,,,,,,,,,,,,,,,,,,,,,,,,,,,,,,,,,,,,,,,,,,,,,,,,,,,,,,,,,,,,,,,,,,,,,,,,,,,,,,,,,,,,,,,,,,,,,,,,,,,,,,,,,,,,,,,,,,,,,,,,,,,,,,,,,
,484025127976,BAC,14/11/1999,001,2023-04-03_11h17.52.000,OS3_Mult_verification,2022.2.4,Win32,60.10337781,,,49,1.4193,1,"[""4"",""9"",""return""]","[0.8050999999046411,1.2675000000000125,1.383099999904644]",1,25,56,24,1,49,,,,,,,,,,,,,,,,,,,,,,,,,,,,,,,,,,,,,,,,,,,,,,,,,,,,,,,,,,,,,,,,,,,,,,,,,,,,,,,,,,,,,,,,,,,,,,,,,,,,,,,,,,,,,,,,,,,,,,,,,,,,,,,,,,,,,,,,,,,,,,,,,,,,,,,,,,,,,,,,,
,484025127976,BAC,14/11/1999,001,2023-04-03_11h17.52.000,OS3_Mult_verification,2022.2.4,Win32,60.10337781,,,4,0.9199,1,"[""4"",""return""]","[0.7837999999523078,0.8832000000476796]",1,26,57,0,1,4,,,,,,,,,,,,,,,,,,,,,,,,,,,,,,,,,,,,,,,,,,,,,,,,,,,,,,,,,,,,,,,,,,,,,,,,,,,,,,,,,,,,,,,,,,,,,,,,,,,,,,,,,,,,,,,,,,,,,,,,,,,,,,,,,,,,,,,,,,,,,,,,,,,,,,,,,,,,,,,,,
,484025127976,BAC,14/11/1999,001,2023-04-03_11h17.52.000,OS3_Mult_verification,2022.2.4,Win32,60.10337781,,,36,1.3206,1,"[""3"",""6"",""return""]","[0.7373999998569474,1.1352999999523092,1.2830000000000013]",1,27,58,19,1,36,,,,,,,,,,,,,,,,,,,,,,,,,,,,,,,,,,,,,,,,,,,,,,,,,,,,,,,,,,,,,,,,,,,,,,,,,,,,,,,,,,,,,,,,,,,,,,,,,,,,,,,,,,,,,,,,,,,,,,,,,,,,,,,,,,,,,,,,,,,,,,,,,,,,,,,,,,,,,,,,,
,484025127976,BAC,14/11/1999,001,2023-04-03_11h17.52.000,OS3_Mult_verification,2022.2.4,Win32,60.10337781,,,40,1.2659,1,"[""4"",""0"",""return""]","[0.6677999999523081,1.1102000000476835,1.2209999999999894]",1,28,59,20,1,40,,,,,,,,,,,,,,,,,,,,,,,,,,,,,,,,,,,,,,,,,,,,,,,,,,,,,,,,,,,,,,,,,,,,,,,,,,,,,,,,,,,,,,,,,,,,,,,,,,,,,,,,,,,,,,,,,,,,,,,,,,,,,,,,,,,,,,,,,,,,,,,,,,,,,,,,,,,,,,,,,
,484025127976,BAC,14/11/1999,001,2023-04-03_11h17.52.000,OS3_Mult_verification,2022.2.4,Win32,60.10337781,,,35,1.1322,1,"[""3"",""5"",""return""]","[0.7187999999523242,0.8702999999523229,1.0840999999046375]",1,29,60,18,1,35,,,,,,,,,,,,,,,,,,,,,,,,,,,,,,,,,,,,,,,,,,,,,,,,,,,,,,,,,,,,,,,,,,,,,,,,,,,,,,,,,,,,,,,,,,,,,,,,,,,,,,,,,,,,,,,,,,,,,,,,,,,,,,,,,,,,,,,,,,,,,,,,,,,,,,,,,,,,,,,,,
,484025127976,BAC,14/11/1999,001,2023-04-03_11h17.52.000,OS3_Mult_verification,2022.2.4,Win32,60.10337781,,,64,1.2322,1,"[""6"",""4"",""return""]","[0.9537000000476752,1.0842999999523073,1.1914999999999907]",1,30,61,28,1,64,,,,,,,,,,,,,,,,,,,,,,,,,,,,,,,,,,,,,,,,,,,,,,,,,,,,,,,,,,,,,,,,,,,,,,,,,,,,,,,,,,,,,,,,,,,,,,,,,,,,,,,,,,,,,,,,,,,,,,,,,,,,,,,,,,,,,,,,,,,,,,,,,,,,,,,,,,,,,,,,,
,484025127976,BAC,14/11/1999,001,2023-04-03_11h17.52.000,OS3_Mult_verification,2022.2.4,Win32,60.10337781,,,,,,,,,,,,,,space,3.3925,,,,,,,,,,,,,,,,,,,,,,,,,,,,,,,,,,,,,,,,,,,,,,,,,,,,,,,,,,,,,,,,,,,,,,,,,,,,,,,,,,,,,,,,,,,,,,,,,,,,,,,,,,,,,,,,,,,,,,,,,,,,,,,,,,,,,,,,,,,,,,,,,,,,,,,,,,,,,,,
,484025127976,BAC,14/11/1999,001,2023-04-03_11h17.52.000,OS3_Mult_verification,2022.2.4,Win32,60.10337781,,,,,,,,,,,,,,,,,,,,,,,,,,,,,,,,,,,,,,,,,,,,,,,,,,,,,,,,,,,,,,,,,,,,,,,,,,,,,,,,,,,,,,,,,,,,,,,,,,,,,,,,,,,,,,,,,,,,,,,,,,,,,,,,,,,,,,,,,,,,,,,,,,,,,,,,,,,,,,,,,,,,,,,,,,,,,,
,484025127976,BAC,14/11/1999,001,2023-04-03_11h17.52.000,OS3_Mult_verification,2022.2.4,Win32,60.10337781,,,,,,,,,,,,,,,,space,2.1768,,,,,,,,,,,,,,,,,,,,,,,,,,,,,,,,,,,,,,,,,,,,,,,,,,,,,,,,,,,,,,,,,,,,,,,,,,,,,,,,,,,,,,,,,,,,,,,,,,,,,,,,,,,,,,,,,,,,,,,,,,,,,,,,,,,,,,,,,,,,,,,,,,,,,,,,,,,,,
,484025127976,BAC,14/11/1999,001,2023-04-03_11h17.52.000,OS3_Mult_verification,2022.2.4,Win32,60.10337781,,,,,,,,,,,,,,,,,,7,1.807,1,"[""7"",""return""]","[1.4101000001430606,1.5019000000953753]",0,0,0,0,1,1 × 7 =,7,,,,,,,,,,,,,,,,,,,,,,,,,,,,,,,,,,,,,,,,,,,,,,,,,,,,,,,,,,,,,,,,,,,,,,,,,,,,,,,,,,,,,,,,,,,,,,,,,,,,,,,,,,,,,,,,,,,,,,,,,,,,,,,,,,,,,,,,,,,,,,,,,
,484025127976,BAC,14/11/1999,001,2023-04-03_11h17.52.000,OS3_Mult_verification,2022.2.4,Win32,60.10337781,,,,,,,,,,,,,,,,,,22,1.7518,1,"[""2"",""2"",""return""]","[1.2521000001430593,1.4007000000476921,1.4668000001907444]",0,1,1,2,1,2 × 11 =,22,,,,,,,,,,,,,,,,,,,,,,,,,,,,,,,,,,,,,,,,,,,,,,,,,,,,,,,,,,,,,,,,,,,,,,,,,,,,,,,,,,,,,,,,,,,,,,,,,,,,,,,,,,,,,,,,,,,,,,,,,,,,,,,,,,,,,,,,,,,,,,,,,
,484025127976,BAC,14/11/1999,001,2023-04-03_11h17.52.000,OS3_Mult_verification,2022.2.4,Win32,60.10337781,,,,,,,,,,,,,,,,,,20,1.6793,1,"[""2"",""0"",""return""]","[0.8865000000000123,1.2357999999523201,1.3830000000000098]",0,2,2,1,1,2 × 10 =,20,,,,,,,,,,,,,,,,,,,,,,,,,,,,,,,,,,,,,,,,,,,,,,,,,,,,,,,,,,,,,,,,,,,,,,,,,,,,,,,,,,,,,,,,,,,,,,,,,,,,,,,,,,,,,,,,,,,,,,,,,,,,,,,,,,,,,,,,,,,,,,,,,
,484025127976,BAC,14/11/1999,001,2023-04-03_11h17.52.000,OS3_Mult_verification,2022.2.4,Win32,60.10337781,,,,,,,,,,,,,,,,,,,,,,,,,,,,,,,,,,,,,,,,,,,,,,,,,,,,,,,,,,,,,,,,,,,,,,,,,,,,,,,,,,,,,,,,,,,,,,,,,,,,,,,,,,,,,,,,,,,,,,,,,,,,,,,,,,,,,,,,,,,,,,,,,,,,,,,,,,,,,,,,,,,,,,,,,,,,,,
,484025127976,BAC,14/11/1999,001,2023-04-03_11h17.52.000,OS3_Mult_verification,2022.2.4,Win32,60.10337781,,,,,,,,,,,,,,,,,,,,,,,,,,,,,,,,,,,,,,,,,,,,,,,,,,,,,,,,,,,,,,,,,,,,,,,,,,,,,,,,,,,,,,,,,,,,,,,,,,,,,,,,,,,,,,,,,,,,,,,,,,,,,,,,,,,,,,,,,,,,,,,,,,,,,,,,,,,,,,,,,,,,,,,,,,,,,,
,484025127976,BAC,14/11/1999,001,2023-04-03_11h17.52.000,OS3_Mult_verification,2022.2.4,Win32,60.10337781,,,,,,,,,,,,,,,,,,6,1.7561,1,"[""6"",""return""]","[1.292700000047688,1.4510000000000218]",,,,,,2 × 3 =,6,0,0,0,0,1,,,,,,,,,,,,,,,,,,,,,,,,,,,,,,,,,,,,,,,,,,,,,,,,,,,,,,,,,,,,,,,,,,,,,,,,,,,,,,,,,,,,,,,,,,,,,,,,,,,,,,,,,,,,,,,,,,,,,,,,,,,,,,,,,,,,,,,,,,,,
,484025127976,BAC,14/11/1999,001,2023-04-03_11h17.52.000,OS3_Mult_verification,2022.2.4,Win32,60.10337781,,,,,,,,,,,,,,,,,,40,1.8955,1,"[""4"",""0"",""return""]","[1.1011999998092676,1.4931999998092635,1.585000000000008]",,,,,,5 × 8 =,40,0,1,1,1,1,,,,,,,,,,,,,,,,,,,,,,,,,,,,,,,,,,,,,,,,,,,,,,,,,,,,,,,,,,,,,,,,,,,,,,,,,,,,,,,,,,,,,,,,,,,,,,,,,,,,,,,,,,,,,,,,,,,,,,,,,,,,,,,,,,,,,,,,,,,,
,484025127976,BAC,14/11/1999,001,2023-04-03_11h17.52.000,OS3_Mult_verification,2022.2.4,Win32,60.10337781,,,,,,,,,,,,,,,,,,12,2.2977,1,"[""1"",""2"",""backspace"",""1"",""2"",""return""]","[0.9102999999523149,0.9104999999999848,1.6885999999046248,1.778700000047678,1.866700000047672,1.9922999999523086]",,,,,,3 × 4 =,12,0,2,2,2,1,,,,,,,,,,,,,,,,,,,,,,,,,,,,,,,,,,,,,,,,,,,,,,,,,,,,,,,,,,,,,,,,,,,,,,,,,,,,,,,,,,,,,,,,,,,,,,,,,,,,,,,,,,,,,,,,,,,,,,,,,,,,,,,,,,,,,,,,,,,,
,484025127976,BAC,14/11/1999,001,2023-04-03_11h17.52.000,OS3_Mult_verification,2022.2.4,Win32,60.10337781,,,,,,,,,,,,,,,,,,15,1.6356,1,"[""1"",""5"",""return""]","[0.908799999952322,1.1843999998569643,1.333500000000015]",,,,,,5 × 3 =,15,0,3,3,3,1,,,,,,,,,,,,,,,,,,,,,,,,,,,,,,,,,,,,,,,,,,,,,,,,,,,,,,,,,,,,,,,,,,,,,,,,,,,,,,,,,,,,,,,,,,,,,,,,,,,,,,,,,,,,,,,,,,,,,,,,,,,,,,,,,,,,,,,,,,,,
,484025127976,BAC,14/11/1999,001,2023-04-03_11h17.52.000,OS3_Mult_verification,2022.2.4,Win32,60.10337781,,,,,,,,,,,,,,,,,,8,1.8817,1,"[""8"",""return""]","[1.4837999999523106,1.58290000009535]",,,,,,2 × 4 =,8,0,4,4,4,1,,,,,,,,,,,,,,,,,,,,,,,,,,,,,,,,,,,,,,,,,,,,,,,,,,,,,,,,,,,,,,,,,,,,,,,,,,,,,,,,,,,,,,,,,,,,,,,,,,,,,,,,,,,,,,,,,,,,,,,,,,,,,,,,,,,,,,,,,,,,
,484025127976,BAC,14/11/1999,001,2023-04-03_11h17.52.000,OS3_Mult_verification,2022.2.4,Win32,60.10337781,,,,,,,,,,,,,,,,,,4,1.3826,1,"[""4"",""return""]","[0.9781999998092772,1.0832999999523167]",,,,,,2 × 2 =,4,0,5,5,5,1,,,,,,,,,,,,,,,,,,,,,,,,,,,,,,,,,,,,,,,,,,,,,,,,,,,,,,,,,,,,,,,,,,,,,,,,,,,,,,,,,,,,,,,,,,,,,,,,,,,,,,,,,,,,,,,,,,,,,,,,,,,,,,,,,,,,,,,,,,,,
,484025127976,BAC,14/11/1999,001,2023-04-03_11h17.52.000,OS3_Mult_verification,2022.2.4,Win32,60.10337781,,,,,,,,,,,,,,,,,,20,1.7661,1,"[""2"",""0"",""return""]","[0.9830999999046242,1.3684999999999832,1.467700000047671]",,,,,,4 × 5 =,20,0,6,6,6,1,,,,,,,,,,,,,,,,,,,,,,,,,,,,,,,,,,,,,,,,,,,,,,,,,,,,,,,,,,,,,,,,,,,,,,,,,,,,,,,,,,,,,,,,,,,,,,,,,,,,,,,,,,,,,,,,,,,,,,,,,,,,,,,,,,,,,,,,,,,,
,484025127976,BAC,14/11/1999,001,2023-04-03_11h17.52.000,OS3_Mult_verification,2022.2.4,Win32,60.10337781,,,,,,,,,,,,,,,,,,9,1.3649,1,"[""9"",""return""]","[0.9606999998092647,1.0666999998092592]",,,,,,3 × 3 =,9,0,7,7,7,1,,,,,,,,,,,,,,,,,,,,,,,,,,,,,,,,,,,,,,,,,,,,,,,,,,,,,,,,,,,,,,,,,,,,,,,,,,,,,,,,,,,,,,,,,,,,,,,,,,,,,,,,,,,,,,,,,,,,,,,,,,,,,,,,,,,,,,,,,,,,
,484025127976,BAC,14/11/1999,001,2023-04-03_11h17.52.000,OS3_Mult_verification,2022.2.4,Win32,60.10337781,,,,,,,,,,,,,,,,,,10,1.582,1,"[""1"",""0"",""return""]","[0.7182999999523076,1.1082999999523224,1.272500000000008]",,,,,,5 × 2 =,10,0,8,8,8,1,,,,,,,,,,,,,,,,,,,,,,,,,,,,,,,,,,,,,,,,,,,,,,,,,,,,,,,,,,,,,,,,,,,,,,,,,,,,,,,,,,,,,,,,,,,,,,,,,,,,,,,,,,,,,,,,,,,,,,,,,,,,,,,,,,,,,,,,,,,,
,484025127976,BAC,14/11/1999,001,2023-04-03_11h17.52.000,OS3_Mult_verification,2022.2.4,Win32,60.10337781,,,,,,,,,,,,,,,,,,16,1.6948,1,"[""1"",""6"",""return""]","[0.8183999998569504,1.2331999998092442,1.3839999999999861]",,,,,,4 × 4 =,16,0,9,9,9,1,,,,,,,,,,,,,,,,,,,,,,,,,,,,,,,,,,,,,,,,,,,,,,,,,,,,,,,,,,,,,,,,,,,,,,,,,,,,,,,,,,,,,,,,,,,,,,,,,,,,,,,,,,,,,,,,,,,,,,,,,,,,,,,,,,,,,,,,,,,,
,484025127976,BAC,14/11/1999,001,2023-04-03_11h17.52.000,OS3_Mult_verification,2022.2.4,Win32,60.10337781,,,,,,,,,,,,,,,,,,24,1.5649,1,"[""2"",""4"",""return""]","[1.0011000001430546,1.1197000000476862,1.2666000001430575]",,,,,,8 × 3 =,24,0,10,10,10,1,,,,,,,,,,,,,,,,,,,,,,,,,,,,,,,,,,,,,,,,,,,,,,,,,,,,,,,,,,,,,,,,,,,,,,,,,,,,,,,,,,,,,,,,,,,,,,,,,,,,,,,,,,,,,,,,,,,,,,,,,,,,,,,,,,,,,,,,,,,,
,484025127976,BAC,14/11/1999,001,2023-04-03_11h17.52.000,OS3_Mult_verification,2022.2.4,Win32,60.10337781,,,,,,,,,,,,,,,,,,30,1.7186,1,"[""3"",""0"",""return""]","[0.9331999998092613,1.2934999999999945,1.416699999809282]",,,,,,6 × 5 =,30,0,11,11,11,1,,,,,,,,,,,,,,,,,,,,,,,,,,,,,,,,,,,,,,,,,,,,,,,,,,,,,,,,,,,,,,,,,,,,,,,,,,,,,,,,,,,,,,,,,,,,,,,,,,,,,,,,,,,,,,,,,,,,,,,,,,,,,,,,,,,,,,,,,,,,
,484025127976,BAC,14/11/1999,001,2023-04-03_11h17.52.000,OS3_Mult_verification,2022.2.4,Win32,60.10337781,,,,,,,,,,,,,,,,,,14,1.4282,1,"[""1"",""4"",""return""]","[0.7931999998092749,1.0010000000000048,1.1189999999999998]",,,,,,7 × 2 =,14,0,12,12,12,1,,,,,,,,,,,,,,,,,,,,,,,,,,,,,,,,,,,,,,,,,,,,,,,,,,,,,,,,,,,,,,,,,,,,,,,,,,,,,,,,,,,,,,,,,,,,,,,,,,,,,,,,,,,,,,,,,,,,,,,,,,,,,,,,,,,,,,,,,,,,
,484025127976,BAC,14/11/1999,001,2023-04-03_11h17.52.000,OS3_Mult_verification,2022.2.4,Win32,60.10337781,,,,,,,,,,,,,,,,,,27,1.731,1,"[""2"",""7"",""return""]","[0.948700000047694,1.2921000001430514,1.435900000095387]",,,,,,3 × 9 =,27,0,13,13,13,1,,,,,,,,,,,,,,,,,,,,,,,,,,,,,,,,,,,,,,,,,,,,,,,,,,,,,,,,,,,,,,,,,,,,,,,,,,,,,,,,,,,,,,,,,,,,,,,,,,,,,,,,,,,,,,,,,,,,,,,,,,,,,,,,,,,,,,,,,,,,
,484025127976,BAC,14/11/1999,001,2023-04-03_11h17.52.000,OS3_Mult_verification,2022.2.4,Win32,60.10337781,,,,,,,,,,,,,,,,,,16,1.4656,1,"[""1"",""6"",""return""]","[0.6841000001430473,1.0065000000000168,1.160600000143063]",,,,,,2 × 8 =,16,0,14,14,14,1,,,,,,,,,,,,,,,,,,,,,,,,,,,,,,,,,,,,,,,,,,,,,,,,,,,,,,,,,,,,,,,,,,,,,,,,,,,,,,,,,,,,,,,,,,,,,,,,,,,,,,,,,,,,,,,,,,,,,,,,,,,,,,,,,,,,,,,,,,,,
,484025127976,BAC,14/11/1999,001,2023-04-03_11h17.52.000,OS3_Mult_verification,2022.2.4,Win32,60.10337781,,,,,,,,,,,,,,,,,,24,1.4975,1,"[""2"",""4"",""return""]","[0.9750999999046428,1.0860000000000127,1.1907000000476842]",,,,,,4 × 6 =,24,0,15,15,15,1,,,,,,,,,,,,,,,,,,,,,,,,,,,,,,,,,,,,,,,,,,,,,,,,,,,,,,,,,,,,,,,,,,,,,,,,,,,,,,,,,,,,,,,,,,,,,,,,,,,,,,,,,,,,,,,,,,,,,,,,,,,,,,,,,,,,,,,,,,,,
,484025127976,BAC,14/11/1999,001,2023-04-03_11h17.52.000,OS3_Mult_verification,2022.2.4,Win32,60.10337781,,,,,,,,,,,,,,,,,,21,1.6811,1,"[""2"",""1"",""return""]","[1.116400000095382,1.2387999999523345,1.3670000000000186]",,,,,,7 × 3 =,21,0,16,16,16,1,,,,,,,,,,,,,,,,,,,,,,,,,,,,,,,,,,,,,,,,,,,,,,,,,,,,,,,,,,,,,,,,,,,,,,,,,,,,,,,,,,,,,,,,,,,,,,,,,,,,,,,,,,,,,,,,,,,,,,,,,,,,,,,,,,,,,,,,,,,,
,484025127976,BAC,14/11/1999,001,2023-04-03_11h17.52.000,OS3_Mult_verification,2022.2.4,Win32,60.10337781,,,,,,,,,,,,,,,,,,28,1.8813,0,"[""2"",""8"",""return""]","[0.9437999999523186,1.383599999904618,1.568200000047682]",,,,,,9 × 3 =,27,0,17,17,17,1,,,,,,,,,,,,,,,,,,,,,,,,,,,,,,,,,,,,,,,,,,,,,,,,,,,,,,,,,,,,,,,,,,,,,,,,,,,,,,,,,,,,,,,,,,,,,,,,,,,,,,,,,,,,,,,,,,,,,,,,,,,,,,,,,,,,,,,,,,,,
,484025127976,BAC,14/11/1999,001,2023-04-03_11h17.52.000,OS3_Mult_verification,2022.2.4,Win32,60.10337781,,,,,,,,,,,,,,,,,,28,2.0813,1,"[""2"",""8"",""return""]","[1.2870999999046262,1.6675999999046098,1.7764999999999986]",,,,,,4 × 7 =,28,0,18,18,18,1,,,,,,,,,,,,,,,,,,,,,,,,,,,,,,,,,,,,,,,,,,,,,,,,,,,,,,,,,,,,,,,,,,,,,,,,,,,,,,,,,,,,,,,,,,,,,,,,,,,,,,,,,,,,,,,,,,,,,,,,,,,,,,,,,,,,,,,,,,,,
,484025127976,BAC,14/11/1999,001,2023-04-03_11h17.52.000,OS3_Mult_verification,2022.2.4,Win32,60.10337781,,,,,,,,,,,,,,,,,,18,1.8643,1,"[""1"",""8"",""return""]","[0.8017999999523227,1.4495999999046205,1.550899999856938]",,,,,,2 × 9 =,18,0,19,19,19,1,,,,,,,,,,,,,,,,,,,,,,,,,,,,,,,,,,,,,,,,,,,,,,,,,,,,,,,,,,,,,,,,,,,,,,,,,,,,,,,,,,,,,,,,,,,,,,,,,,,,,,,,,,,,,,,,,,,,,,,,,,,,,,,,,,,,,,,,,,,,
,484025127976,BAC,14/11/1999,001,2023-04-03_11h17.52.000,OS3_Mult_verification,2022.2.4,Win32,60.10337781,,,,,,,,,,,,,,,,,,72,2.3351,1,"[""7"",""2"",""return""]","[1.5159999999999911,1.8752999999523183,2.032599999904619]",,,,,,9 × 8 =,72,0,20,20,20,1,,,,,,,,,,,,,,,,,,,,,,,,,,,,,,,,,,,,,,,,,,,,,,,,,,,,,,,,,,,,,,,,,,,,,,,,,,,,,,,,,,,,,,,,,,,,,,,,,,,,,,,,,,,,,,,,,,,,,,,,,,,,,,,,,,,,,,,,,,,,
,484025127976,BAC,14/11/1999,001,2023-04-03_11h17.52.000,OS3_Mult_verification,2022.2.4,Win32,60.10337781,,,,,,,,,,,,,,,,,,42,1.7155,1,"[""4"",""2"",""return""]","[1.1667000000476833,1.272500000000008,1.4330000000000211]",,,,,,7 × 6 =,42,0,21,21,21,1,,,,,,,,,,,,,,,,,,,,,,,,,,,,,,,,,,,,,,,,,,,,,,,,,,,,,,,,,,,,,,,,,,,,,,,,,,,,,,,,,,,,,,,,,,,,,,,,,,,,,,,,,,,,,,,,,,,,,,,,,,,,,,,,,,,,,,,,,,,,
,484025127976,BAC,14/11/1999,001,2023-04-03_11h17.52.000,OS3_Mult_verification,2022.2.4,Win32,60.10337781,,,,,,,,,,,,,,,,,,54,1.7283,1,"[""5"",""4"",""return""]","[1.1837000000476792,1.2954000000953556,1.4274000000953606]",,,,,,6 × 9 =,54,0,22,22,22,1,,,,,,,,,,,,,,,,,,,,,,,,,,,,,,,,,,,,,,,,,,,,,,,,,,,,,,,,,,,,,,,,,,,,,,,,,,,,,,,,,,,,,,,,,,,,,,,,,,,,,,,,,,,,,,,,,,,,,,,,,,,,,,,,,,,,,,,,,,,,
,484025127976,BAC,14/11/1999,001,2023-04-03_11h17.52.000,OS3_Mult_verification,2022.2.4,Win32,60.10337781,,,,,,,,,,,,,,,,,,45,1.7019,1,"[""4"",""5"",""return""]","[1.1002999999523126,1.2831000001430652,1.399000000000001]",,,,,,9 × 5 =,45,0,23,23,23,1,,,,,,,,,,,,,,,,,,,,,,,,,,,,,,,,,,,,,,,,,,,,,,,,,,,,,,,,,,,,,,,,,,,,,,,,,,,,,,,,,,,,,,,,,,,,,,,,,,,,,,,,,,,,,,,,,,,,,,,,,,,,,,,,,,,,,,,,,,,,
,484025127976,BAC,14/11/1999,001,2023-04-03_11h17.52.000,OS3_Mult_verification,2022.2.4,Win32,60.10337781,,,,,,,,,,,,,,,,,,56,3.0441,1,"[""5"",""6"",""return""]","[2.466100000143058,2.6327999999523115,2.748900000095375]",,,,,,8 × 7 =,56,0,24,24,24,1,,,,,,,,,,,,,,,,,,,,,,,,,,,,,,,,,,,,,,,,,,,,,,,,,,,,,,,,,,,,,,,,,,,,,,,,,,,,,,,,,,,,,,,,,,,,,,,,,,,,,,,,,,,,,,,,,,,,,,,,,,,,,,,,,,,,,,,,,,,,
,484025127976,BAC,14/11/1999,001,2023-04-03_11h17.52.000,OS3_Mult_verification,2022.2.4,Win32,60.10337781,,,,,,,,,,,,,,,,,,36,1.6143,1,"[""3"",""6"",""return""]","[0.9319000000953679,1.2086000001430648,1.302000000000021]",,,,,,6 × 6 =,36,0,25,25,25,1,,,,,,,,,,,,,,,,,,,,,,,,,,,,,,,,,,,,,,,,,,,,,,,,,,,,,,,,,,,,,,,,,,,,,,,,,,,,,,,,,,,,,,,,,,,,,,,,,,,,,,,,,,,,,,,,,,,,,,,,,,,,,,,,,,,,,,,,,,,,
,484025127976,BAC,14/11/1999,001,2023-04-03_11h17.52.000,OS3_Mult_verification,2022.2.4,Win32,60.10337781,,,,,,,,,,,,,,,,,,35,2.4352,1,"[""2"",""backspace"",""3"",""5"",""return""]","[0.8945999999046421,1.3826999998092617,1.5317999999523124,1.816399999856941,2.132499999999993]",,,,,,5 × 7 =,35,0,26,26,26,1,,,,,,,,,,,,,,,,,,,,,,,,,,,,,,,,,,,,,,,,,,,,,,,,,,,,,,,,,,,,,,,,,,,,,,,,,,,,,,,,,,,,,,,,,,,,,,,,,,,,,,,,,,,,,,,,,,,,,,,,,,,,,,,,,,,,,,,,,,,,
,484025127976,BAC,14/11/1999,001,2023-04-03_11h17.52.000,OS3_Mult_verification,2022.2.4,Win32,60.10337781,,,,,,,,,,,,,,,,,,36,2.3488,1,"[""3"",""6"",""return""]","[1.6454999999999984,1.9551000001430339,2.0494999999999948]",,,,,,4 × 9 =,36,0,27,27,27,1,,,,,,,,,,,,,,,,,,,,,,,,,,,,,,,,,,,,,,,,,,,,,,,,,,,,,,,,,,,,,,,,,,,,,,,,,,,,,,,,,,,,,,,,,,,,,,,,,,,,,,,,,,,,,,,,,,,,,,,,,,,,,,,,,,,,,,,,,,,,
,484025127976,BAC,14/11/1999,001,2023-04-03_11h17.52.000,OS3_Mult_verification,2022.2.4,Win32,60.10337781,,,,,,,,,,,,,,,,,,48,1.8323,1,"[""4"",""8"",""return""]","[1.0152000000476846,1.4082000000476853,1.5324999999999989]",,,,,,8 × 6 =,48,0,28,28,28,1,,,,,,,,,,,,,,,,,,,,,,,,,,,,,,,,,,,,,,,,,,,,,,,,,,,,,,,,,,,,,,,,,,,,,,,,,,,,,,,,,,,,,,,,,,,,,,,,,,,,,,,,,,,,,,,,,,,,,,,,,,,,,,,,,,,,,,,,,,,,
,484025127976,BAC,14/11/1999,001,2023-04-03_11h17.52.000,OS3_Mult_verification,2022.2.4,Win32,60.10337781,,,,,,,,,,,,,,,,,,63,3.031,1,"[""6"",""3"",""return""]","[2.332499999999982,2.5504999999999995,2.7195999999046307]",,,,,,9 × 7 =,63,0,29,29,29,1,,,,,,,,,,,,,,,,,,,,,,,,,,,,,,,,,,,,,,,,,,,,,,,,,,,,,,,,,,,,,,,,,,,,,,,,,,,,,,,,,,,,,,,,,,,,,,,,,,,,,,,,,,,,,,,,,,,,,,,,,,,,,,,,,,,,,,,,,,,,
,484025127976,BAC,14/11/1999,001,2023-04-03_11h17.52.000,OS3_Mult_verification,2022.2.4,Win32,60.10337781,,,,,,,,,,,,,,,,,,12,1.4567,1,"[""1"",""2"",""return""]","[0.9172999999523199,1.0037000000476723,1.159900000095348]",,,,,,4 × 3 =,12,0,30,30,30,1,,,,,,,,,,,,,,,,,,,,,,,,,,,,,,,,,,,,,,,,,,,,,,,,,,,,,,,,,,,,,,,,,,,,,,,,,,,,,,,,,,,,,,,,,,,,,,,,,,,,,,,,,,,,,,,,,,,,,,,,,,,,,,,,,,,,,,,,,,,,
,484025127976,BAC,14/11/1999,001,2023-04-03_11h17.52.000,OS3_Mult_verification,2022.2.4,Win32,60.10337781,,,,,,,,,,,,,,,,,,25,2.0976,1,"[""3"",""backspace"",""2"",""5"",""return""]","[0.8072999999523347,1.316099999904651,1.449599999904649,1.6886999998092733,1.7858999998569516]",,,,,,5 × 5 =,25,0,31,31,31,1,,,,,,,,,,,,,,,,,,,,,,,,,,,,,,,,,,,,,,,,,,,,,,,,,,,,,,,,,,,,,,,,,,,,,,,,,,,,,,,,,,,,,,,,,,,,,,,,,,,,,,,,,,,,,,,,,,,,,,,,,,,,,,,,,,,,,,,,,,,,
,484025127976,BAC,14/11/1999,001,2023-04-03_11h17.52.000,OS3_Mult_verification,2022.2.4,Win32,60.10337781,,,,,,,,,,,,,,,,,,6,1.5194,1,"[""6"",""return""]","[1.1287999999523208,1.2179000000953693]",,,,,,3 × 2 =,6,0,32,32,32,1,,,,,,,,,,,,,,,,,,,,,,,,,,,,,,,,,,,,,,,,,,,,,,,,,,,,,,,,,,,,,,,,,,,,,,,,,,,,,,,,,,,,,,,,,,,,,,,,,,,,,,,,,,,,,,,,,,,,,,,,,,,,,,,,,,,,,,,,,,,,
,484025127976,BAC,14/11/1999,001,2023-04-03_11h17.52.000,OS3_Mult_verification,2022.2.4,Win32,60.10337781,,,,,,,,,,,,,,,,,,20,1.6651,1,"[""2"",""0"",""return""]","[0.8501000001430441,1.227499999999992,1.3661000001430637]",,,,,,5 × 4 =,20,0,33,33,33,1,,,,,,,,,,,,,,,,,,,,,,,,,,,,,,,,,,,,,,,,,,,,,,,,,,,,,,,,,,,,,,,,,,,,,,,,,,,,,,,,,,,,,,,,,,,,,,,,,,,,,,,,,,,,,,,,,,,,,,,,,,,,,,,,,,,,,,,,,,,,
,484025127976,BAC,14/11/1999,001,2023-04-03_11h17.52.000,OS3_Mult_verification,2022.2.4,Win32,60.10337781,,,,,,,,,,,,,,,,,,8,1.3829,1,"[""8"",""return""]","[0.9660999999046282,1.0825999999046303]",,,,,,4 × 2 =,8,0,34,34,34,1,,,,,,,,,,,,,,,,,,,,,,,,,,,,,,,,,,,,,,,,,,,,,,,,,,,,,,,,,,,,,,,,,,,,,,,,,,,,,,,,,,,,,,,,,,,,,,,,,,,,,,,,,,,,,,,,,,,,,,,,,,,,,,,,,,,,,,,,,,,,
,484025127976,BAC,14/11/1999,001,2023-04-03_11h17.52.000,OS3_Mult_verification,2022.2.4,Win32,60.10337781,,,,,,,,,,,,,,,,,,12,1.4941,1,"[""1"",""2"",""return""]","[0.9194999999999993,1.0755999999046253,1.1932999999523304]",,,,,,2 × 6 =,12,0,35,35,35,1,,,,,,,,,,,,,,,,,,,,,,,,,,,,,,,,,,,,,,,,,,,,,,,,,,,,,,,,,,,,,,,,,,,,,,,,,,,,,,,,,,,,,,,,,,,,,,,,,,,,,,,,,,,,,,,,,,,,,,,,,,,,,,,,,,,,,,,,,,,,
,484025127976,BAC,14/11/1999,001,2023-04-03_11h17.52.000,OS3_Mult_verification,2022.2.4,Win32,60.10337781,,,,,,,,,,,,,,,,,,15,1.4681,1,"[""1"",""5"",""return""]","[0.6997000000476703,1.0359000000953529,1.1662000000476667]",,,,,,3 × 5 =,15,0,36,36,36,1,,,,,,,,,,,,,,,,,,,,,,,,,,,,,,,,,,,,,,,,,,,,,,,,,,,,,,,,,,,,,,,,,,,,,,,,,,,,,,,,,,,,,,,,,,,,,,,,,,,,,,,,,,,,,,,,,,,,,,,,,,,,,,,,,,,,,,,,,,,,
,484025127976,BAC,14/11/1999,001,2023-04-03_11h17.52.000,OS3_Mult_verification,2022.2.4,Win32,60.10337781,,,,,,,,,,,,,,,,,,18,1.879,1,"[""1"",""8"",""return""]","[0.9660000000000082,1.4779000000953886,1.5769999999999982]",,,,,,6 × 3 =,18,0,37,37,37,1,,,,,,,,,,,,,,,,,,,,,,,,,,,,,,,,,,,,,,,,,,,,,,,,,,,,,,,,,,,,,,,,,,,,,,,,,,,,,,,,,,,,,,,,,,,,,,,,,,,,,,,,,,,,,,,,,,,,,,,,,,,,,,,,,,,,,,,,,,,,
,484025127976,BAC,14/11/1999,001,2023-04-03_11h17.52.000,OS3_Mult_verification,2022.2.4,Win32,60.10337781,,,,,,,,,,,,,,,,,,10,1.4847,1,"[""1"",""0"",""return""]","[0.6442999999522954,1.0767999999523,1.1829999999999927]",,,,,,2 × 5 =,10,0,38,38,38,1,,,,,,,,,,,,,,,,,,,,,,,,,,,,,,,,,,,,,,,,,,,,,,,,,,,,,,,,,,,,,,,,,,,,,,,,,,,,,,,,,,,,,,,,,,,,,,,,,,,,,,,,,,,,,,,,,,,,,,,,,,,,,,,,,,,,,,,,,,,,
,484025127976,BAC,14/11/1999,001,2023-04-03_11h17.52.000,OS3_Mult_verification,2022.2.4,Win32,60.10337781,,,,,,,,,,,,,,,,,,32,1.7782,1,"[""3"",""2"",""return""]","[1.2103999998569464,1.300899999856938,1.4692999999523124]",,,,,,4 × 8 =,32,0,39,39,39,1,,,,,,,,,,,,,,,,,,,,,,,,,,,,,,,,,,,,,,,,,,,,,,,,,,,,,,,,,,,,,,,,,,,,,,,,,,,,,,,,,,,,,,,,,,,,,,,,,,,,,,,,,,,,,,,,,,,,,,,,,,,,,,,,,,,,,,,,,,,,
,484025127976,BAC,14/11/1999,001,2023-04-03_11h17.52.000,OS3_Mult_verification,2022.2.4,Win32,60.10337781,,,,,,,,,,,,,,,,,,24,1.5811,1,"[""2"",""4"",""return""]","[0.8037000000476837,1.1357999999522974,1.2692000000476753]",,,,,,3 × 8 =,24,0,40,40,40,1,,,,,,,,,,,,,,,,,,,,,,,,,,,,,,,,,,,,,,,,,,,,,,,,,,,,,,,,,,,,,,,,,,,,,,,,,,,,,,,,,,,,,,,,,,,,,,,,,,,,,,,,,,,,,,,,,,,,,,,,,,,,,,,,,,,,,,,,,,,,
,484025127976,BAC,14/11/1999,001,2023-04-03_11h17.52.000,OS3_Mult_verification,2022.2.4,Win32,60.10337781,,,,,,,,,,,,,,,,,,30,1.648,1,"[""3"",""0"",""return""]","[0.883499999999998,1.22190000009536,1.3339000000953831]",,,,,,5 × 6 =,30,0,41,41,41,1,,,,,,,,,,,,,,,,,,,,,,,,,,,,,,,,,,,,,,,,,,,,,,,,,,,,,,,,,,,,,,,,,,,,,,,,,,,,,,,,,,,,,,,,,,,,,,,,,,,,,,,,,,,,,,,,,,,,,,,,,,,,,,,,,,,,,,,,,,,,
,484025127976,BAC,14/11/1999,001,2023-04-03_11h17.52.000,OS3_Mult_verification,2022.2.4,Win32,60.10337781,,,,,,,,,,,,,,,,,,14,1.8687,1,"[""1"",""4"",""return""]","[0.7172000000476828,1.4399000000953492,1.5664999999999907]",,,,,,2 × 7 =,14,0,42,42,42,1,,,,,,,,,,,,,,,,,,,,,,,,,,,,,,,,,,,,,,,,,,,,,,,,,,,,,,,,,,,,,,,,,,,,,,,,,,,,,,,,,,,,,,,,,,,,,,,,,,,,,,,,,,,,,,,,,,,,,,,,,,,,,,,,,,,,,,,,,,,,
,484025127976,BAC,14/11/1999,001,2023-04-03_11h17.52.000,OS3_Mult_verification,2022.2.4,Win32,60.10337781,,,,,,,,,,,,,,,,,,24,1.4615,1,"[""2"",""4"",""return""]","[0.8274999999999864,1.0030999999046344,1.1519000000953667]",,,,,,6 × 4 =,24,0,43,43,43,1,,,,,,,,,,,,,,,,,,,,,,,,,,,,,,,,,,,,,,,,,,,,,,,,,,,,,,,,,,,,,,,,,,,,,,,,,,,,,,,,,,,,,,,,,,,,,,,,,,,,,,,,,,,,,,,,,,,,,,,,,,,,,,,,,,,,,,,,,,,,
,484025127976,BAC,14/11/1999,001,2023-04-03_11h17.52.000,OS3_Mult_verification,2022.2.4,Win32,60.10337781,,,,,,,,,,,,,,,,,,21,2.3979,1,"[""2"",""1"",""return""]","[1.9167000000476833,1.9833999998569425,2.1107000000476717]",,,,,,3 × 7 =,21,0,44,44,44,1,,,,,,,,,,,,,,,,,,,,,,,,,,,,,,,,,,,,,,,,,,,,,,,,,,,,,,,,,,,,,,,,,,,,,,,,,,,,,,,,,,,,,,,,,,,,,,,,,,,,,,,,,,,,,,,,,,,,,,,,,,,,,,,,,,,,,,,,,,,,
,484025127976,BAC,14/11/1999,001,2023-04-03_11h17.52.000,OS3_Mult_verification,2022.2.4,Win32,60.10337781,,,,,,,,,,,,,,,,,,81,1.702,1,"[""8"",""1"",""return""]","[0.9099999999999966,1.2494999999999834,1.3999000000953572]",,,,,,9 × 9 =,81,0,45,45,45,1,,,,,,,,,,,,,,,,,,,,,,,,,,,,,,,,,,,,,,,,,,,,,,,,,,,,,,,,,,,,,,,,,,,,,,,,,,,,,,,,,,,,,,,,,,,,,,,,,,,,,,,,,,,,,,,,,,,,,,,,,,,,,,,,,,,,,,,,,,,,
,484025127976,BAC,14/11/1999,001,2023-04-03_11h17.52.000,OS3_Mult_verification,2022.2.4,Win32,60.10337781,,,,,,,,,,,,,,,,,,16,1.4655,1,"[""1"",""6"",""return""]","[0.7364000000953865,1.0406000001430584,1.1514000000953786]",,,,,,8 × 2 =,16,0,46,46,46,1,,,,,,,,,,,,,,,,,,,,,,,,,,,,,,,,,,,,,,,,,,,,,,,,,,,,,,,,,,,,,,,,,,,,,,,,,,,,,,,,,,,,,,,,,,,,,,,,,,,,,,,,,,,,,,,,,,,,,,,,,,,,,,,,,,,,,,,,,,,,
,484025127976,BAC,14/11/1999,001,2023-04-03_11h17.52.000,OS3_Mult_verification,2022.2.4,Win32,60.10337781,,,,,,,,,,,,,,,,,,48,1.7322,1,"[""4"",""8"",""return""]","[0.9188999998569614,1.3183999998569504,1.4327999999523229]",,,,,,6 × 8 =,48,0,47,47,47,1,,,,,,,,,,,,,,,,,,,,,,,,,,,,,,,,,,,,,,,,,,,,,,,,,,,,,,,,,,,,,,,,,,,,,,,,,,,,,,,,,,,,,,,,,,,,,,,,,,,,,,,,,,,,,,,,,,,,,,,,,,,,,,,,,,,,,,,,,,,,
,484025127976,BAC,14/11/1999,001,2023-04-03_11h17.52.000,OS3_Mult_verification,2022.2.4,Win32,60.10337781,,,,,,,,,,,,,,,,,,28,2.0777,1,"[""2"",""8"",""return""]","[1.1287999999522924,1.6674999999999898,1.7694999999999936]",,,,,,7 × 4 =,28,0,48,48,48,1,,,,,,,,,,,,,,,,,,,,,,,,,,,,,,,,,,,,,,,,,,,,,,,,,,,,,,,,,,,,,,,,,,,,,,,,,,,,,,,,,,,,,,,,,,,,,,,,,,,,,,,,,,,,,,,,,,,,,,,,,,,,,,,,,,,,,,,,,,,,
,484025127976,BAC,14/11/1999,001,2023-04-03_11h17.52.000,OS3_Mult_verification,2022.2.4,Win32,60.10337781,,,,,,,,,,,,,,,,,,18,1.3982,1,"[""1"",""8"",""return""]","[0.6614999999999895,1.0003999998569384,1.0848999998569298]",,,,,,9 × 2 =,18,0,49,49,49,1,,,,,,,,,,,,,,,,,,,,,,,,,,,,,,,,,,,,,,,,,,,,,,,,,,,,,,,,,,,,,,,,,,,,,,,,,,,,,,,,,,,,,,,,,,,,,,,,,,,,,,,,,,,,,,,,,,,,,,,,,,,,,,,,,,,,,,,,,,,,
,484025127976,BAC,14/11/1999,001,2023-04-03_11h17.52.000,OS3_Mult_verification,2022.2.4,Win32,60.10337781,,,,,,,,,,,,,,,,,,,0.4486,0,,,,,,,,7 × 5 =,35,0,50,50,50,1,,,,,,,,,,,,,,,,,,,,,,,,,,,,,,,,,,,,,,,,,,,,,,,,,,,,,,,,,,,,,,,,,,,,,,,,,,,,,,,,,,,,,,,,,,,,,,,,,,,,,,,,,,,,,,,,,,,,,,,,,,,,,,,,,,,,,,,,,,,,
,484025127976,BAC,14/11/1999,001,2023-04-03_11h17.52.000,OS3_Mult_verification,2022.2.4,Win32,60.10337781,,,,,,,,,,,,,,,,space,1.3837,,,,,,,,,,,,,,,,,,TRUE,5.2306,0.008333347,-0.341666681,1,0,0,0,0,0,0,1,practice trial,,3,3,,,,,,,,,,,,,,,,,,,,,,,,,,,,,,,,,,,,,,,,,,,,,,,,,,,,,,,,,,,,,,,,,,,,,,,,,,,,,,,,,,,,,,,,,,,,,,,,,,,,,,,,,,,,,,,,,,,,,,,,,,,,
,484025127976,BAC,14/11/1999,001,2023-04-03_11h17.52.000,OS3_Mult_verification,2022.2.4,Win32,60.10337781,,,,,,,,,,,,,,,,,,,,,,,,,,,,,,,,,,,TRUE,3.7821,-0.012036995,-0.338888875,1,0,0,0,1,1,2,1,practice trial,,3,3,,,,,,,,,,,,,,,,,,,,,,,,,,,,,,,,,,,,,,,,,,,,,,,,,,,,,,,,,,,,,,,,,,,,,,,,,,,,,,,,,,,,,,,,,,,,,,,,,,,,,,,,,,,,,,,,,,,,,,,,,,,,
,484025127976,BAC,14/11/1999,001,2023-04-03_11h17.52.000,OS3_Mult_verification,2022.2.4,Win32,60.10337781,,,,,,,,,,,,,,,,,,,,,,,,,,,,,,,,,,,TRUE,4.0803,0.042592578,-0.368518547,1,0,0,0,2,2,1,1,practice trial,,3,3,,,,,,,,,,,,,,,,,,,,,,,,,,,,,,,,,,,,,,,,,,,,,,,,,,,,,,,,,,,,,,,,,,,,,,,,,,,,,,,,,,,,,,,,,,,,,,,,,,,,,,,,,,,,,,,,,,,,,,,,,,,,
,484025127976,BAC,14/11/1999,001,2023-04-03_11h17.52.000,OS3_Mult_verification,2022.2.4,Win32,60.10337781,,,,,,,,,,,,,,,,,,,,,,,,,,,,,,,,,,,TRUE,2.0319,0,-0.327777792,1,0,0,,,,,,Trial #1,,2,2,0,0,0,0,1,2,,,,,,,,,,,,,,,,,,,,,,,,,,,,,,,,,,,,,,,,,,,,,,,,,,,,,,,,,,,,,,,,,,,,,,,,,,,,,,,,,,,,,,,,,,,,,,,,,,,,,,,,,,,,,,,,,,,,,,
,484025127976,BAC,14/11/1999,001,2023-04-03_11h17.52.000,OS3_Mult_verification,2022.2.4,Win32,60.10337781,,,,,,,,,,,,,,,,,,,,,,,,,,,,,,,,,,,TRUE,3.7812,-0.01944443,-0.362037023,1,0,0,,,,,,Trial #1,,2,2,0,1,1,1,1,2,,,,,,,,,,,,,,,,,,,,,,,,,,,,,,,,,,,,,,,,,,,,,,,,,,,,,,,,,,,,,,,,,,,,,,,,,,,,,,,,,,,,,,,,,,,,,,,,,,,,,,,,,,,,,,,,,,,,,,
,484025127976,BAC,14/11/1999,001,2023-04-03_11h17.52.000,OS3_Mult_verification,2022.2.4,Win32,60.10337781,,,,,,,,,,,,,,,,,,,,,,,,,,,,,,,,,,,TRUE,2.2317,-0.032407407,-0.329629616,1,0,0,,,,,,Trial #1,,2,2,0,2,2,2,1,2,,,,,,,,,,,,,,,,,,,,,,,,,,,,,,,,,,,,,,,,,,,,,,,,,,,,,,,,,,,,,,,,,,,,,,,,,,,,,,,,,,,,,,,,,,,,,,,,,,,,,,,,,,,,,,,,,,,,,,
,484025127976,BAC,14/11/1999,001,2023-04-03_11h17.52.000,OS3_Mult_verification,2022.2.4,Win32,60.10337781,,,,,,,,,,,,,,,,,,,,,,,,,,,,,,,,,,,TRUE,2.9274,0.033333319,-0.324999986,1,0,0,,,,,,Trial #2,,3,3,0,0,0,0,1,3,,,,,,,,,,,,,,,,,,,,,,,,,,,,,,,,,,,,,,,,,,,,,,,,,,,,,,,,,,,,,,,,,,,,,,,,,,,,,,,,,,,,,,,,,,,,,,,,,,,,,,,,,,,,,,,,,,,,,,
,484025127976,BAC,14/11/1999,001,2023-04-03_11h17.52.000,OS3_Mult_verification,2022.2.4,Win32,60.10337781,,,,,,,,,,,,,,,,,,,,,,,,,,,,,,,,,,,TRUE,2.9537,0.040740755,-0.334259245,1,0,0,,,,,,Trial #2,,3,3,0,1,1,1,1,3,,,,,,,,,,,,,,,,,,,,,,,,,,,,,,,,,,,,,,,,,,,,,,,,,,,,,,,,,,,,,,,,,,,,,,,,,,,,,,,,,,,,,,,,,,,,,,,,,,,,,,,,,,,,,,,,,,,,,,
,484025127976,BAC,14/11/1999,001,2023-04-03_11h17.52.000,OS3_Mult_verification,2022.2.4,Win32,60.10337781,,,,,,,,,,,,,,,,,,,,,,,,,,,,,,,,,,,TRUE,2.8646,-0.023148148,-0.362037023,1,0,0,,,,,,Trial #2,,3,3,0,2,2,2,1,3,,,,,,,,,,,,,,,,,,,,,,,,,,,,,,,,,,,,,,,,,,,,,,,,,,,,,,,,,,,,,,,,,,,,,,,,,,,,,,,,,,,,,,,,,,,,,,,,,,,,,,,,,,,,,,,,,,,,,,
,484025127976,BAC,14/11/1999,001,2023-04-03_11h17.52.000,OS3_Mult_verification,2022.2.4,Win32,60.10337781,,,,,,,,,,,,,,,,,,,,,,,,,,,,,,,,,,,TRUE,3.9134,0.079629616,-0.357407393,1,0,0,,,,,,Trial #3,,3,3,0,0,0,0,1,4,,,,,,,,,,,,,,,,,,,,,,,,,,,,,,,,,,,,,,,,,,,,,,,,,,,,,,,,,,,,,,,,,,,,,,,,,,,,,,,,,,,,,,,,,,,,,,,,,,,,,,,,,,,,,,,,,,,,,,
,484025127976,BAC,14/11/1999,001,2023-04-03_11h17.52.000,OS3_Mult_verification,2022.2.4,Win32,60.10337781,,,,,,,,,,,,,,,,,,,,,,,,,,,,,,,,,,,TRUE,3.4201,0,-0.347222222,1,0,0,,,,,,Trial #3,,3,3,0,1,1,1,1,4,,,,,,,,,,,,,,,,,,,,,,,,,,,,,,,,,,,,,,,,,,,,,,,,,,,,,,,,,,,,,,,,,,,,,,,,,,,,,,,,,,,,,,,,,,,,,,,,,,,,,,,,,,,,,,,,,,,,,,
,484025127976,BAC,14/11/1999,001,2023-04-03_11h17.52.000,OS3_Mult_verification,2022.2.4,Win32,60.10337781,,,,,,,,,,,,,,,,,,,,,,,,,,,,,,,,,,,TRUE,3.4025,-0.034259231,-0.359259288,1,0,0,,,,,,Trial #3,,3,3,0,2,2,2,1,4,,,,,,,,,,,,,,,,,,,,,,,,,,,,,,,,,,,,,,,,,,,,,,,,,,,,,,,,,,,,,,,,,,,,,,,,,,,,,,,,,,,,,,,,,,,,,,,,,,,,,,,,,,,,,,,,,,,,,,
,484025127976,BAC,14/11/1999,001,2023-04-03_11h17.52.000,OS3_Mult_verification,2022.2.4,Win32,60.10337781,,,,,,,,,,,,,,,,,,,,,,,,,,,,,,,,,,,TRUE,4.3522,-0.000925912,-0.353703746,1,0,0,,,,,,Trial #4,,4,4,0,0,0,0,1,5,,,,,,,,,,,,,,,,,,,,,,,,,,,,,,,,,,,,,,,,,,,,,,,,,,,,,,,,,,,,,,,,,,,,,,,,,,,,,,,,,,,,,,,,,,,,,,,,,,,,,,,,,,,,,,,,,,,,,,
,484025127976,BAC,14/11/1999,001,2023-04-03_11h17.52.000,OS3_Mult_verification,2022.2.4,Win32,60.10337781,,,,,,,,,,,,,,,,,,,,,,,,,,,,,,,,,,,TRUE,4.3142,-0.011111083,-0.34629631,1,0,0,,,,,,Trial #4,,4,4,0,1,1,1,1,5,,,,,,,,,,,,,,,,,,,,,,,,,,,,,,,,,,,,,,,,,,,,,,,,,,,,,,,,,,,,,,,,,,,,,,,,,,,,,,,,,,,,,,,,,,,,,,,,,,,,,,,,,,,,,,,,,,,,,,
,484025127976,BAC,14/11/1999,001,2023-04-03_11h17.52.000,OS3_Mult_verification,2022.2.4,Win32,60.10337781,,,,,,,,,,,,,,,,,,,,,,,,,,,,,,,,,,,TRUE,4.0471,-0.023148148,-0.316666709,1,0,0,,,,,,Trial #4,,4,4,0,2,2,2,1,5,,,,,,,,,,,,,,,,,,,,,,,,,,,,,,,,,,,,,,,,,,,,,,,,,,,,,,,,,,,,,,,,,,,,,,,,,,,,,,,,,,,,,,,,,,,,,,,,,,,,,,,,,,,,,,,,,,,,,,
,484025127976,BAC,14/11/1999,001,2023-04-03_11h17.52.000,OS3_Mult_verification,2022.2.4,Win32,60.10337781,,,,,,,,,,,,,,,,,,,,,,,,,,,,,,,,,,,TRUE,5.2976,-0.017592607,-0.349074116,1,0,0,,,,,,Trial #5,,4,4,0,0,0,0,1,6,,,,,,,,,,,,,,,,,,,,,,,,,,,,,,,,,,,,,,,,,,,,,,,,,,,,,,,,,,,,,,,,,,,,,,,,,,,,,,,,,,,,,,,,,,,,,,,,,,,,,,,,,,,,,,,,,,,,,,
,484025127976,BAC,14/11/1999,001,2023-04-03_11h17.52.000,OS3_Mult_verification,2022.2.4,Win32,60.10337781,,,,,,,,,,,,,,,,,,,,,,,,,,,,,,,,,,,TRUE,4.4684,-0.005555541,-0.316666709,1,0,0,,,,,,Trial #5,,4,4,0,1,1,1,1,6,,,,,,,,,,,,,,,,,,,,,,,,,,,,,,,,,,,,,,,,,,,,,,,,,,,,,,,,,,,,,,,,,,,,,,,,,,,,,,,,,,,,,,,,,,,,,,,,,,,,,,,,,,,,,,,,,,,,,,
,484025127976,BAC,14/11/1999,001,2023-04-03_11h17.52.000,OS3_Mult_verification,2022.2.4,Win32,60.10337781,,,,,,,,,,,,,,,,,,,,,,,,,,,,,,,,,,,TRUE,5.5756,-0.079629616,-0.375925912,1,0,0,,,,,,Trial #5,,4,4,0,2,2,2,1,6,,,,,,,,,,,,,,,,,,,,,,,,,,,,,,,,,,,,,,,,,,,,,,,,,,,,,,,,,,,,,,,,,,,,,,,,,,,,,,,,,,,,,,,,,,,,,,,,,,,,,,,,,,,,,,,,,,,,,,
,484025127976,BAC,14/11/1999,001,2023-04-03_11h17.52.000,OS3_Mult_verification,2022.2.4,Win32,60.10337781,,,,,,,,,,,,,,,,,,,,,,,,,,,,,,,,,,,TRUE,6.901,0.025925954,-0.32222225,1,0,0,,,,,,Trial #6,,4,4,0,0,0,0,1,7,,,,,,,,,,,,,,,,,,,,,,,,,,,,,,,,,,,,,,,,,,,,,,,,,,,,,,,,,,,,,,,,,,,,,,,,,,,,,,,,,,,,,,,,,,,,,,,,,,,,,,,,,,,,,,,,,,,,,,
,484025127976,BAC,14/11/1999,001,2023-04-03_11h17.52.000,OS3_Mult_verification,2022.2.4,Win32,60.10337781,,,,,,,,,,,,,,,,,,,,,,,,,,,,,,,,,,,TRUE,5.8842,-0.001851824,-0.336111139,1,0,0,,,,,,Trial #6,,4,4,0,1,1,1,1,7,,,,,,,,,,,,,,,,,,,,,,,,,,,,,,,,,,,,,,,,,,,,,,,,,,,,,,,,,,,,,,,,,,,,,,,,,,,,,,,,,,,,,,,,,,,,,,,,,,,,,,,,,,,,,,,,,,,,,,
,484025127976,BAC,14/11/1999,001,2023-04-03_11h17.52.000,OS3_Mult_verification,2022.2.4,Win32,60.10337781,,,,,,,,,,,,,,,,,,,,,,,,,,,,,,,,,,,TRUE,7.9286,-0.054629644,-0.338888875,1,0,0,,,,,,Trial #6,,4,4,0,2,2,2,1,7,,,,,,,,,,,,,,,,,,,,,,,,,,,,,,,,,,,,,,,,,,,,,,,,,,,,,,,,,,,,,,,,,,,,,,,,,,,,,,,,,,,,,,,,,,,,,,,,,,,,,,,,,,,,,,,,,,,,,,
,484025127976,BAC,14/11/1999,001,2023-04-03_11h17.52.000,OS3_Mult_verification,2022.2.4,Win32,60.10337781,,,,,,,,,,,,,,,,,,,,,,,,,,,,,,,,,,,TRUE,6.7173,0.022222236,-0.330555598,1,0,0,,,,,,Trial #7,,4,4,0,0,0,0,1,8,,,,,,,,,,,,,,,,,,,,,,,,,,,,,,,,,,,,,,,,,,,,,,,,,,,,,,,,,,,,,,,,,,,,,,,,,,,,,,,,,,,,,,,,,,,,,,,,,,,,,,,,,,,,,,,,,,,,,,
,484025127976,BAC,14/11/1999,001,2023-04-03_11h17.52.000,OS3_Mult_verification,2022.2.4,Win32,60.10337781,,,,,,,,,,,,,,,,,,,,,,,,,,,,,,,,,,,TRUE,8.5785,-0.068518533,-0.333333333,1,0,0,,,,,,Trial #7,,4,4,0,1,1,1,1,8,,,,,,,,,,,,,,,,,,,,,,,,,,,,,,,,,,,,,,,,,,,,,,,,,,,,,,,,,,,,,,,,,,,,,,,,,,,,,,,,,,,,,,,,,,,,,,,,,,,,,,,,,,,,,,,,,,,,,,
,484025127976,BAC,14/11/1999,001,2023-04-03_11h17.52.000,OS3_Mult_verification,2022.2.4,Win32,60.10337781,,,,,,,,,,,,,,,,,,,,,,,,,,,,,,,,,,,TRUE,6.7631,0.047222208,-0.343518504,1,0,0,,,,,,Trial #7,,4,4,0,2,2,2,1,8,,,,,,,,,,,,,,,,,,,,,,,,,,,,,,,,,,,,,,,,,,,,,,,,,,,,,,,,,,,,,,,,,,,,,,,,,,,,,,,,,,,,,,,,,,,,,,,,,,,,,,,,,,,,,,,,,,,,,,
,484025127976,BAC,14/11/1999,001,2023-04-03_11h17.52.000,OS3_Mult_verification,2022.2.4,Win32,60.10337781,,,,,,,,,,,,,,,,,,,,,,,,,,,,,,,,,,,TRUE,9.0082,0.000925912,-0.342592593,1,0,0,,,,,,Trial #8,,5,5,0,0,0,0,1,9,,,,,,,,,,,,,,,,,,,,,,,,,,,,,,,,,,,,,,,,,,,,,,,,,,,,,,,,,,,,,,,,,,,,,,,,,,,,,,,,,,,,,,,,,,,,,,,,,,,,,,,,,,,,,,,,,,,,,,
,484025127976,BAC,14/11/1999,001,2023-04-03_11h17.52.000,OS3_Mult_verification,2022.2.4,Win32,60.10337781,,,,,,,,,,,,,,,,,,,,,,,,,,,,,,,,,,,TRUE,6.9138,-0.002777735,-0.310185185,1,0,0,,,,,,Trial #8,,5,5,0,1,1,1,1,9,,,,,,,,,,,,,,,,,,,,,,,,,,,,,,,,,,,,,,,,,,,,,,,,,,,,,,,,,,,,,,,,,,,,,,,,,,,,,,,,,,,,,,,,,,,,,,,,,,,,,,,,,,,,,,,,,,,,,,
,484025127976,BAC,14/11/1999,001,2023-04-03_11h17.52.000,OS3_Mult_verification,2022.2.4,Win32,60.10337781,,,,,,,,,,,,,,,,,,,,,,,,,,,,,,,,,,,FALSE,7.6122,0.003703718,-0.348148134,1,0,0,,,,,,Trial #8,,5,5,0,2,2,2,1,9,,,,,,,,,,,,,,,,,,,,,,,,,,,,,,,,,,,,,,,,,,,,,,,,,,,,,,,,,,,,,,,,,,,,,,,,,,,,,,,,,,,,,,,,,,,,,,,,,,,,,,,,,,,,,,,,,,,,,,
,484025127976,BAC,14/11/1999,001,2023-04-03_11h17.52.000,OS3_Mult_verification,2022.2.4,Win32,60.10337781,,,,,,,,,,,,,,,,,,,,,,,,,,,,,,,,,,,TRUE,8.075,0.000925912,-0.333333333,1,0,0,,,,,,Trial #9,,5,5,0,0,0,0,1,10,,,,,,,,,,,,,,,,,,,,,,,,,,,,,,,,,,,,,,,,,,,,,,,,,,,,,,,,,,,,,,,,,,,,,,,,,,,,,,,,,,,,,,,,,,,,,,,,,,,,,,,,,,,,,,,,,,,,,,
,484025127976,BAC,14/11/1999,001,2023-04-03_11h17.52.000,OS3_Mult_verification,2022.2.4,Win32,60.10337781,,,,,,,,,,,,,,,,,,,,,,,,,,,,,,,,,,,TRUE,7.6133,0.047222208,-0.350000028,1,0,0,,,,,,Trial #9,,5,5,0,1,1,1,1,10,,,,,,,,,,,,,,,,,,,,,,,,,,,,,,,,,,,,,,,,,,,,,,,,,,,,,,,,,,,,,,,,,,,,,,,,,,,,,,,,,,,,,,,,,,,,,,,,,,,,,,,,,,,,,,,,,,,,,,
,484025127976,BAC,14/11/1999,001,2023-04-03_11h17.52.000,OS3_Mult_verification,2022.2.4,Win32,60.10337781,,,,,,,,,,,,,,,,,,,,,,,,,,,,,,,,,,,TRUE,8.8442,0.038888931,-0.363888917,1,0,0,,,,,,Trial #9,,5,5,0,2,2,2,1,10,,,,,,,,,,,,,,,,,,,,,,,,,,,,,,,,,,,,,,,,,,,,,,,,,,,,,,,,,,,,,,,,,,,,,,,,,,,,,,,,,,,,,,,,,,,,,,,,,,,,,,,,,,,,,,,,,,,,,,
,484025127976,BAC,14/11/1999,001,2023-04-03_11h17.52.000,OS3_Mult_verification,2022.2.4,Win32,60.10337781,,,,,,,,,,,,,,,,,,,,,,,,,,,,,,,,,,,TRUE,9.8295,-0.034259231,-0.33148151,1,0,0,,,,,,Trial #10,,5,5,0,0,0,0,1,11,,,,,,,,,,,,,,,,,,,,,,,,,,,,,,,,,,,,,,,,,,,,,,,,,,,,,,,,,,,,,,,,,,,,,,,,,,,,,,,,,,,,,,,,,,,,,,,,,,,,,,,,,,,,,,,,,,,,,,
,484025127976,BAC,14/11/1999,001,2023-04-03_11h17.52.000,OS3_Mult_verification,2022.2.4,Win32,60.10337781,,,,,,,,,,,,,,,,,,,,,,,,,,,,,,,,,,,FALSE,10.9943,0.100000028,-0.360185199,1,0,0,,,,,,Trial #10,,5,5,0,1,1,1,1,11,,,,,,,,,,,,,,,,,,,,,,,,,,,,,,,,,,,,,,,,,,,,,,,,,,,,,,,,,,,,,,,,,,,,,,,,,,,,,,,,,,,,,,,,,,,,,,,,,,,,,,,,,,,,,,,,,,,,,,
,484025127976,BAC,14/11/1999,001,2023-04-03_11h17.52.000,OS3_Mult_verification,2022.2.4,Win32,60.10337781,,,,,,,,,,,,,,,,,,,,,,,,,,,,,,,,,,,TRUE,10.165,0.031481496,-0.378703718,1,0,0,,,,,,Trial #10,,5,5,0,2,2,2,1,11,,,,,,,,,,,,,,,,,,,,,,,,,,,,,,,,,,,,,,,,,,,,,,,,,,,,,,,,,,,,,,,,,,,,,,,,,,,,,,,,,,,,,,,,,,,,,,,,,,,,,,,,,,,,,,,,,,,,,,
,484025127976,BAC,14/11/1999,001,2023-04-03_11h17.52.000,OS3_Mult_verification,2022.2.4,Win32,60.10337781,,,,,,,,,,,,,,,,,,,,,,,,,,,,,,,,,,,FALSE,10.0786,0.088888875,-0.345370399,1,0,0,,,,,,Trial #11,,5,5,0,0,0,0,1,12,,,,,,,,,,,,,,,,,,,,,,,,,,,,,,,,,,,,,,,,,,,,,,,,,,,,,,,,,,,,,,,,,,,,,,,,,,,,,,,,,,,,,,,,,,,,,,,,,,,,,,,,,,,,,,,,,,,,,,
,484025127976,BAC,14/11/1999,001,2023-04-03_11h17.52.000,OS3_Mult_verification,2022.2.4,Win32,60.10337781,,,,,,,,,,,,,,,,,,,,,,,,,,,,,,,,,,,TRUE,9.2327,0.020370413,-0.328703704,1,0,0,,,,,,Trial #11,,5,5,0,1,1,1,1,12,,,,,,,,,,,,,,,,,,,,,,,,,,,,,,,,,,,,,,,,,,,,,,,,,,,,,,,,,,,,,,,,,,,,,,,,,,,,,,,,,,,,,,,,,,,,,,,,,,,,,,,,,,,,,,,,,,,,,,
,484025127976,BAC,14/11/1999,001,2023-04-03_11h17.52.000,OS3_Mult_verification,2022.2.4,Win32,60.10337781,,,,,,,,,,,,,,,,,,,,,,,,,,,,,,,,,,,FALSE,10.074,0.029629672,-0.359259288,1,0,0,,,,,,Trial #11,,5,5,0,2,2,2,1,12,,,,,,,,,,,,,,,,,,,,,,,,,,,,,,,,,,,,,,,,,,,,,,,,,,,,,,,,,,,,,,,,,,,,,,,,,,,,,,,,,,,,,,,,,,,,,,,,,,,,,,,,,,,,,,,,,,,,,,
,484025127976,BAC,14/11/1999,001,2023-04-03_11h17.52.000,OS3_Mult_verification,2022.2.4,Win32,60.10337781,,,,,,,,,,,,,,,,,,,,,,,,,,,,,,,,,,,,,,,,,,,,,,,,,,,,,,,,,0,0,0,0,1,,,,,,,,,,,,,,,,,,,,,,,,,,,,,,,,,,,,,,,,,,,,,,,,,,,,,,,,,,,,,,,,,,,,,,,,,,,,,,,,,,,,,,,,,,,,,,,,,,,,,,,,,,,,,,,,,
,484025127976,BAC,14/11/1999,001,2023-04-03_11h17.52.000,OS3_Mult_verification,2022.2.4,Win32,60.10337781,,,,,,,,,,,,,,,,,,,,,,,,,,,,,,,,,,,,,,,,,,,,,,,,,,,,,,,,,,,,,,0,0,0,0,1,0,1,0,,,,,,,,,,,,,,,,,,,,,,,,,,,,,,,,,,,,,,,,,,,,,,,,,,,,,,,,,,,,,,,,,,,,,,,,,,,,,,,,,,,,,,,,,,,,,,,,,,,,,,,,,
,484025127976,BAC,14/11/1999,001,2023-04-03_11h17.52.000,OS3_Mult_verification,2022.2.4,Win32,60.10337781,,,,,,,,,,,,,,,,space,0.8727,,,,,,,,,,,,,,,,,,,,,,,,,,,,,,,,,,,,,,,,,,,,,,,,,,,,,right,1,0.664,0,0,0,0,1,practice,1,2,1 | 2,1,0.05,0.065,congruent,right,,,,,,,,,,,,,,,,,,,,,,,,,,,,,,,,,,,,,,,,,,,,,,,,,,,,,,,,,,,,,,,,,,,,,,,,,,,,,,,,,,,,,,,,
,484025127976,BAC,14/11/1999,001,2023-04-03_11h17.52.000,OS3_Mult_verification,2022.2.4,Win32,60.10337781,,,,,,,,,,,,,,,,,,,,,,,,,,,,,,,,,,,,,,,,,,,,,,,,,,,,,,,,,,,,,,,,,,,,,,right,1,0.6249,0,1,1,2,1,practice,4,9,4 | 9,5,0.06,0.06,neutral,right,,,,,,,,,,,,,,,,,,,,,,,,,,,,,,,,,,,,,,,,,,,,,,,,,,,,,,,,,,,,,,,,,,,,,,,,,,,,,,,,,,,,,,,,
,484025127976,BAC,14/11/1999,001,2023-04-03_11h17.52.000,OS3_Mult_verification,2022.2.4,Win32,60.10337781,,,,,,,,,,,,,,,,,,,,,,,,,,,,,,,,,,,,,,,,,,,,,,,,,,,,,,,,,,,,,,,,,,,,,,right,1,0.7498,0,2,2,1,1,practice,7,8,7 | 8,1,0.065,0.05,incongruent,right,,,,,,,,,,,,,,,,,,,,,,,,,,,,,,,,,,,,,,,,,,,,,,,,,,,,,,,,,,,,,,,,,,,,,,,,,,,,,,,,,,,,,,,,
,484025127976,BAC,14/11/1999,001,2023-04-03_11h17.52.000,OS3_Mult_verification,2022.2.4,Win32,60.10337781,,,,,,,,,,,,,,,,,,,,,,,,,,,,,,,,,,,,,,,,,,,,,,,,,,,,,,,,,,,,,,,,,,,,,,right,1,0.5672,,,,,,magnitude,2,4,2 | 4,2,0.065,0.05,incongruent,right,0,0,0,33,1,,,,,,,,,,,,,,,,,,,,,,,,,,,,,,,,,,,,,,,,,,,,,,,,,,,,,,,,,,,,,,,,,,,,,,,,,,,,,,,,,,,
,484025127976,BAC,14/11/1999,001,2023-04-03_11h17.52.000,OS3_Mult_verification,2022.2.4,Win32,60.10337781,,,,,,,,,,,,,,,,,,,,,,,,,,,,,,,,,,,,,,,,,,,,,,,,,,,,,,,,,,,,,,,,,,,,,,right,1,0.5039,,,,,,magnitude,1,6,1 | 6,5,0.06,0.06,neutral,right,0,1,1,64,1,,,,,,,,,,,,,,,,,,,,,,,,,,,,,,,,,,,,,,,,,,,,,,,,,,,,,,,,,,,,,,,,,,,,,,,,,,,,,,,,,,,
,484025127976,BAC,14/11/1999,001,2023-04-03_11h17.52.000,OS3_Mult_verification,2022.2.4,Win32,60.10337781,,,,,,,,,,,,,,,,,,,,,,,,,,,,,,,,,,,,,,,,,,,,,,,,,,,,,,,,,,,,,,,,,,,,,,right,1,0.4489,,,,,,magnitude,2,7,2 | 7,5,0.05,0.065,congruent,right,0,2,2,17,1,,,,,,,,,,,,,,,,,,,,,,,,,,,,,,,,,,,,,,,,,,,,,,,,,,,,,,,,,,,,,,,,,,,,,,,,,,,,,,,,,,,
,484025127976,BAC,14/11/1999,001,2023-04-03_11h17.52.000,OS3_Mult_verification,2022.2.4,Win32,60.10337781,,,,,,,,,,,,,,,,,,,,,,,,,,,,,,,,,,,,,,,,,,,,,,,,,,,,,,,,,,,,,,,,,,,,,,right,1,0.5927,,,,,,magnitude,8,9,8 | 9,1,0.05,0.065,congruent,right,0,3,3,3,1,,,,,,,,,,,,,,,,,,,,,,,,,,,,,,,,,,,,,,,,,,,,,,,,,,,,,,,,,,,,,,,,,,,,,,,,,,,,,,,,,,,
,484025127976,BAC,14/11/1999,001,2023-04-03_11h17.52.000,OS3_Mult_verification,2022.2.4,Win32,60.10337781,,,,,,,,,,,,,,,,,,,,,,,,,,,,,,,,,,,,,,,,,,,,,,,,,,,,,,,,,,,,,,,,,,,,,,left,1,0.4865,,,,,,magnitude,2,1,2 | 1,1,0.065,0.05,congruent,left,0,4,4,4,1,,,,,,,,,,,,,,,,,,,,,,,,,,,,,,,,,,,,,,,,,,,,,,,,,,,,,,,,,,,,,,,,,,,,,,,,,,,,,,,,,,,
,484025127976,BAC,14/11/1999,001,2023-04-03_11h17.52.000,OS3_Mult_verification,2022.2.4,Win32,60.10337781,,,,,,,,,,,,,,,,,,,,,,,,,,,,,,,,,,,,,,,,,,,,,,,,,,,,,,,,,,,,,,,,,,,,,,right,1,0.4329,,,,,,magnitude,2,4,2 | 4,2,0.05,0.065,congruent,right,0,5,5,9,1,,,,,,,,,,,,,,,,,,,,,,,,,,,,,,,,,,,,,,,,,,,,,,,,,,,,,,,,,,,,,,,,,,,,,,,,,,,,,,,,,,,
,484025127976,BAC,14/11/1999,001,2023-04-03_11h17.52.000,OS3_Mult_verification,2022.2.4,Win32,60.10337781,,,,,,,,,,,,,,,,,,,,,,,,,,,,,,,,,,,,,,,,,,,,,,,,,,,,,,,,,,,,,,,,,,,,,,left,1,0.6406,,,,,,magnitude,9,4,9 | 4,5,0.05,0.065,incongruent,left,0,6,6,47,1,,,,,,,,,,,,,,,,,,,,,,,,,,,,,,,,,,,,,,,,,,,,,,,,,,,,,,,,,,,,,,,,,,,,,,,,,,,,,,,,,,,
,484025127976,BAC,14/11/1999,001,2023-04-03_11h17.52.000,OS3_Mult_verification,2022.2.4,Win32,60.10337781,,,,,,,,,,,,,,,,,,,,,,,,,,,,,,,,,,,,,,,,,,,,,,,,,,,,,,,,,,,,,,,,,,,,,,right,1,0.583,,,,,,magnitude,7,9,7 | 9,2,0.065,0.05,incongruent,right,0,7,7,35,1,,,,,,,,,,,,,,,,,,,,,,,,,,,,,,,,,,,,,,,,,,,,,,,,,,,,,,,,,,,,,,,,,,,,,,,,,,,,,,,,,,,
,484025127976,BAC,14/11/1999,001,2023-04-03_11h17.52.000,OS3_Mult_verification,2022.2.4,Win32,60.10337781,,,,,,,,,,,,,,,,,,,,,,,,,,,,,,,,,,,,,,,,,,,,,,,,,,,,,,,,,,,,,,,,,,,,,,left,1,0.5206,,,,,,magnitude,9,4,9 | 4,5,0.065,0.05,congruent,left,0,8,8,23,1,,,,,,,,,,,,,,,,,,,,,,,,,,,,,,,,,,,,,,,,,,,,,,,,,,,,,,,,,,,,,,,,,,,,,,,,,,,,,,,,,,,
,484025127976,BAC,14/11/1999,001,2023-04-03_11h17.52.000,OS3_Mult_verification,2022.2.4,Win32,60.10337781,,,,,,,,,,,,,,,,,,,,,,,,,,,,,,,,,,,,,,,,,,,,,,,,,,,,,,,,,,,,,,,,,,,,,,right,1,0.5166,,,,,,magnitude,1,3,1 | 3,2,0.05,0.065,congruent,right,0,9,9,8,1,,,,,,,,,,,,,,,,,,,,,,,,,,,,,,,,,,,,,,,,,,,,,,,,,,,,,,,,,,,,,,,,,,,,,,,,,,,,,,,,,,,
,484025127976,BAC,14/11/1999,001,2023-04-03_11h17.52.000,OS3_Mult_verification,2022.2.4,Win32,60.10337781,,,,,,,,,,,,,,,,,,,,,,,,,,,,,,,,,,,,,,,,,,,,,,,,,,,,,,,,,,,,,,,,,,,,,,right,1,0.5319,,,,,,magnitude,2,4,2 | 4,2,0.06,0.06,neutral,right,0,10,10,57,1,,,,,,,,,,,,,,,,,,,,,,,,,,,,,,,,,,,,,,,,,,,,,,,,,,,,,,,,,,,,,,,,,,,,,,,,,,,,,,,,,,,
,484025127976,BAC,14/11/1999,001,2023-04-03_11h17.52.000,OS3_Mult_verification,2022.2.4,Win32,60.10337781,,,,,,,,,,,,,,,,,,,,,,,,,,,,,,,,,,,,,,,,,,,,,,,,,,,,,,,,,,,,,,,,,,,,,,left,1,0.5166,,,,,,magnitude,6,1,6 | 1,5,0.06,0.06,neutral,left,0,11,11,68,1,,,,,,,,,,,,,,,,,,,,,,,,,,,,,,,,,,,,,,,,,,,,,,,,,,,,,,,,,,,,,,,,,,,,,,,,,,,,,,,,,,,
,484025127976,BAC,14/11/1999,001,2023-04-03_11h17.52.000,OS3_Mult_verification,2022.2.4,Win32,60.10337781,,,,,,,,,,,,,,,,,,,,,,,,,,,,,,,,,,,,,,,,,,,,,,,,,,,,,,,,,,,,,,,,,,,,,,left,1,0.7005,,,,,,magnitude,7,6,7 | 6,1,0.05,0.065,incongruent,left,0,12,12,30,1,,,,,,,,,,,,,,,,,,,,,,,,,,,,,,,,,,,,,,,,,,,,,,,,,,,,,,,,,,,,,,,,,,,,,,,,,,,,,,,,,,,
,484025127976,BAC,14/11/1999,001,2023-04-03_11h17.52.000,OS3_Mult_verification,2022.2.4,Win32,60.10337781,,,,,,,,,,,,,,,,,,,,,,,,,,,,,,,,,,,,,,,,,,,,,,,,,,,,,,,,,,,,,,,,,,,,,,right,1,0.5701,,,,,,magnitude,4,9,4 | 9,5,0.06,0.06,neutral,right,0,13,13,67,1,,,,,,,,,,,,,,,,,,,,,,,,,,,,,,,,,,,,,,,,,,,,,,,,,,,,,,,,,,,,,,,,,,,,,,,,,,,,,,,,,,,
,484025127976,BAC,14/11/1999,001,2023-04-03_11h17.52.000,OS3_Mult_verification,2022.2.4,Win32,60.10337781,,,,,,,,,,,,,,,,,,,,,,,,,,,,,,,,,,,,,,,,,,,,,,,,,,,,,,,,,,,,,,,,,,,,,,left,1,0.4751,,,,,,magnitude,6,1,6 | 1,5,0.05,0.065,incongruent,left,0,14,14,44,1,,,,,,,,,,,,,,,,,,,,,,,,,,,,,,,,,,,,,,,,,,,,,,,,,,,,,,,,,,,,,,,,,,,,,,,,,,,,,,,,,,,
,484025127976,BAC,14/11/1999,001,2023-04-03_11h17.52.000,OS3_Mult_verification,2022.2.4,Win32,60.10337781,,,,,,,,,,,,,,,,,,,,,,,,,,,,,,,,,,,,,,,,,,,,,,,,,,,,,,,,,,,,,,,,,,,,,,right,1,0.5187,,,,,,magnitude,3,4,3 | 4,1,0.05,0.065,congruent,right,0,15,15,1,1,,,,,,,,,,,,,,,,,,,,,,,,,,,,,,,,,,,,,,,,,,,,,,,,,,,,,,,,,,,,,,,,,,,,,,,,,,,,,,,,,,,
,484025127976,BAC,14/11/1999,001,2023-04-03_11h17.52.000,OS3_Mult_verification,2022.2.4,Win32,60.10337781,,,,,,,,,,,,,,,,,,,,,,,,,,,,,,,,,,,,,,,,,,,,,,,,,,,,,,,,,,,,,,,,,,,,,,left,1,0.673,,,,,,magnitude,7,6,7 | 6,1,0.065,0.05,congruent,left,0,16,16,6,1,,,,,,,,,,,,,,,,,,,,,,,,,,,,,,,,,,,,,,,,,,,,,,,,,,,,,,,,,,,,,,,,,,,,,,,,,,,,,,,,,,,
,484025127976,BAC,14/11/1999,001,2023-04-03_11h17.52.000,OS3_Mult_verification,2022.2.4,Win32,60.10337781,,,,,,,,,,,,,,,,,,,,,,,,,,,,,,,,,,,,,,,,,,,,,,,,,,,,,,,,,,,,,,,,,,,,,,left,1,0.5166,,,,,,magnitude,8,6,8 | 6,2,0.065,0.05,congruent,left,0,17,17,14,1,,,,,,,,,,,,,,,,,,,,,,,,,,,,,,,,,,,,,,,,,,,,,,,,,,,,,,,,,,,,,,,,,,,,,,,,,,,,,,,,,,,
,484025127976,BAC,14/11/1999,001,2023-04-03_11h17.52.000,OS3_Mult_verification,2022.2.4,Win32,60.10337781,,,,,,,,,,,,,,,,,,,,,,,,,,,,,,,,,,,,,,,,,,,,,,,,,,,,,,,,,,,,,,,,,,,,,,left,1,0.5674,,,,,,magnitude,8,3,8 | 3,5,0.06,0.06,neutral,left,0,18,18,70,1,,,,,,,,,,,,,,,,,,,,,,,,,,,,,,,,,,,,,,,,,,,,,,,,,,,,,,,,,,,,,,,,,,,,,,,,,,,,,,,,,,,
,484025127976,BAC,14/11/1999,001,2023-04-03_11h17.52.000,OS3_Mult_verification,2022.2.4,Win32,60.10337781,,,,,,,,,,,,,,,,,,,,,,,,,,,,,,,,,,,,,,,,,,,,,,,,,,,,,,,,,,,,,,,,,,,,,,right,1,0.5497,,,,,,magnitude,1,3,1 | 3,2,0.065,0.05,incongruent,right,0,19,19,32,1,,,,,,,,,,,,,,,,,,,,,,,,,,,,,,,,,,,,,,,,,,,,,,,,,,,,,,,,,,,,,,,,,,,,,,,,,,,,,,,,,,,
,484025127976,BAC,14/11/1999,001,2023-04-03_11h17.52.000,OS3_Mult_verification,2022.2.4,Win32,60.10337781,,,,,,,,,,,,,,,,,,,,,,,,,,,,,,,,,,,,,,,,,,,,,,,,,,,,,,,,,,,,,,,,,,,,,,right,1,0.7,,,,,,magnitude,8,9,8 | 9,1,0.06,0.06,neutral,right,0,20,20,51,1,,,,,,,,,,,,,,,,,,,,,,,,,,,,,,,,,,,,,,,,,,,,,,,,,,,,,,,,,,,,,,,,,,,,,,,,,,,,,,,,,,,
,484025127976,BAC,14/11/1999,001,2023-04-03_11h17.52.000,OS3_Mult_verification,2022.2.4,Win32,60.10337781,,,,,,,,,,,,,,,,,,,,,,,,,,,,,,,,,,,,,,,,,,,,,,,,,,,,,,,,,,,,,,,,,,,,,,left,1,0.6505,,,,,,magnitude,9,8,9 | 8,1,0.05,0.065,incongruent,left,0,21,21,31,1,,,,,,,,,,,,,,,,,,,,,,,,,,,,,,,,,,,,,,,,,,,,,,,,,,,,,,,,,,,,,,,,,,,,,,,,,,,,,,,,,,,
,484025127976,BAC,14/11/1999,001,2023-04-03_11h17.52.000,OS3_Mult_verification,2022.2.4,Win32,60.10337781,,,,,,,,,,,,,,,,,,,,,,,,,,,,,,,,,,,,,,,,,,,,,,,,,,,,,,,,,,,,,,,,,,,,,,right,1,0.4944,,,,,,magnitude,1,6,1 | 6,5,0.05,0.065,congruent,right,0,22,22,16,1,,,,,,,,,,,,,,,,,,,,,,,,,,,,,,,,,,,,,,,,,,,,,,,,,,,,,,,,,,,,,,,,,,,,,,,,,,,,,,,,,,,
,484025127976,BAC,14/11/1999,001,2023-04-03_11h17.52.000,OS3_Mult_verification,2022.2.4,Win32,60.10337781,,,,,,,,,,,,,,,,,,,,,,,,,,,,,,,,,,,,,,,,,,,,,,,,,,,,,,,,,,,,,,,,,,,,,,right,1,0.6347,,,,,,magnitude,4,9,4 | 9,5,0.05,0.065,congruent,right,0,23,23,19,1,,,,,,,,,,,,,,,,,,,,,,,,,,,,,,,,,,,,,,,,,,,,,,,,,,,,,,,,,,,,,,,,,,,,,,,,,,,,,,,,,,,
,484025127976,BAC,14/11/1999,001,2023-04-03_11h17.52.000,OS3_Mult_verification,2022.2.4,Win32,60.10337781,,,,,,,,,,,,,,,,,,,,,,,,,,,,,,,,,,,,,,,,,,,,,,,,,,,,,,,,,,,,,,,,,,,,,,left,1,0.5541,,,,,,magnitude,3,1,3 | 1,2,0.05,0.065,incongruent,left,0,24,24,36,1,,,,,,,,,,,,,,,,,,,,,,,,,,,,,,,,,,,,,,,,,,,,,,,,,,,,,,,,,,,,,,,,,,,,,,,,,,,,,,,,,,,
,484025127976,BAC,14/11/1999,001,2023-04-03_11h17.52.000,OS3_Mult_verification,2022.2.4,Win32,60.10337781,,,,,,,,,,,,,,,,,,,,,,,,,,,,,,,,,,,,,,,,,,,,,,,,,,,,,,,,,,,,,,,,,,,,,,left,1,0.4993,,,,,,magnitude,7,2,7 | 2,5,0.065,0.05,congruent,left,0,25,25,21,1,,,,,,,,,,,,,,,,,,,,,,,,,,,,,,,,,,,,,,,,,,,,,,,,,,,,,,,,,,,,,,,,,,,,,,,,,,,,,,,,,,,
,484025127976,BAC,14/11/1999,001,2023-04-03_11h17.52.000,OS3_Mult_verification,2022.2.4,Win32,60.10337781,,,,,,,,,,,,,,,,,,,,,,,,,,,,,,,,,,,,,,,,,,,,,,,,,,,,,,,,,,,,,,,,,,,,,,left,1,0.5735,,,,,,magnitude,9,8,9 | 8,1,0.065,0.05,congruent,left,0,26,26,7,1,,,,,,,,,,,,,,,,,,,,,,,,,,,,,,,,,,,,,,,,,,,,,,,,,,,,,,,,,,,,,,,,,,,,,,,,,,,,,,,,,,,
,484025127976,BAC,14/11/1999,001,2023-04-03_11h17.52.000,OS3_Mult_verification,2022.2.4,Win32,60.10337781,,,,,,,,,,,,,,,,,,,,,,,,,,,,,,,,,,,,,,,,,,,,,,,,,,,,,,,,,,,,,,,,,,,,,,right,1,0.558,,,,,,magnitude,3,8,3 | 8,5,0.05,0.065,congruent,right,0,27,27,18,1,,,,,,,,,,,,,,,,,,,,,,,,,,,,,,,,,,,,,,,,,,,,,,,,,,,,,,,,,,,,,,,,,,,,,,,,,,,,,,,,,,,
,484025127976,BAC,14/11/1999,001,2023-04-03_11h17.52.000,OS3_Mult_verification,2022.2.4,Win32,60.10337781,,,,,,,,,,,,,,,,,,,,,,,,,,,,,,,,,,,,,,,,,,,,,,,,,,,,,,,,,,,,,,,,,,,,,,left,1,0.5353,,,,,,magnitude,6,1,6 | 1,5,0.065,0.05,congruent,left,0,28,28,20,1,,,,,,,,,,,,,,,,,,,,,,,,,,,,,,,,,,,,,,,,,,,,,,,,,,,,,,,,,,,,,,,,,,,,,,,,,,,,,,,,,,,
,484025127976,BAC,14/11/1999,001,2023-04-03_11h17.52.000,OS3_Mult_verification,2022.2.4,Win32,60.10337781,,,,,,,,,,,,,,,,,,,,,,,,,,,,,,,,,,,,,,,,,,,,,,,,,,,,,,,,,,,,,,,,,,,,,,right,1,0.7997,,,,,,magnitude,6,7,6 | 7,1,0.06,0.06,neutral,right,0,29,29,50,1,,,,,,,,,,,,,,,,,,,,,,,,,,,,,,,,,,,,,,,,,,,,,,,,,,,,,,,,,,,,,,,,,,,,,,,,,,,,,,,,,,,
,484025127976,BAC,14/11/1999,001,2023-04-03_11h17.52.000,OS3_Mult_verification,2022.2.4,Win32,60.10337781,,,,,,,,,,,,,,,,,,,,,,,,,,,,,,,,,,,,,,,,,,,,,,,,,,,,,,,,,,,,,,,,,,,,,,left,1,0.4791,,,,,,magnitude,4,2,4 | 2,2,0.06,0.06,neutral,left,0,30,30,61,1,,,,,,,,,,,,,,,,,,,,,,,,,,,,,,,,,,,,,,,,,,,,,,,,,,,,,,,,,,,,,,,,,,,,,,,,,,,,,,,,,,,
,484025127976,BAC,14/11/1999,001,2023-04-03_11h17.52.000,OS3_Mult_verification,2022.2.4,Win32,60.10337781,,,,,,,,,,,,,,,,,,,,,,,,,,,,,,,,,,,,,,,,,,,,,,,,,,,,,,,,,,,,,,,,,,,,,,right,1,0.5573,,,,,,magnitude,3,8,3 | 8,5,0.065,0.05,incongruent,right,0,31,31,42,1,,,,,,,,,,,,,,,,,,,,,,,,,,,,,,,,,,,,,,,,,,,,,,,,,,,,,,,,,,,,,,,,,,,,,,,,,,,,,,,,,,,
,484025127976,BAC,14/11/1999,001,2023-04-03_11h17.52.000,OS3_Mult_verification,2022.2.4,Win32,60.10337781,,,,,,,,,,,,,,,,,,,,,,,,,,,,,,,,,,,,,,,,,,,,,,,,,,,,,,,,,,,,,,,,,,,,,,right,1,0.5335,,,,,,magnitude,1,3,1 | 3,2,0.06,0.06,neutral,right,0,32,32,56,1,,,,,,,,,,,,,,,,,,,,,,,,,,,,,,,,,,,,,,,,,,,,,,,,,,,,,,,,,,,,,,,,,,,,,,,,,,,,,,,,,,,
,484025127976,BAC,14/11/1999,001,2023-04-03_11h17.52.000,OS3_Mult_verification,2022.2.4,Win32,60.10337781,,,,,,,,,,,,,,,,,,,,,,,,,,,,,,,,,,,,,,,,,,,,,,,,,,,,,,,,,,,,,,,,,,,,,,left,1,0.6166,,,,,,magnitude,4,2,4 | 2,2,0.05,0.065,incongruent,left,0,33,33,37,1,,,,,,,,,,,,,,,,,,,,,,,,,,,,,,,,,,,,,,,,,,,,,,,,,,,,,,,,,,,,,,,,,,,,,,,,,,,,,,,,,,,
,484025127976,BAC,14/11/1999,001,2023-04-03_11h17.52.000,OS3_Mult_verification,2022.2.4,Win32,60.10337781,,,,,,,,,,,,,,,,,,,,,,,,,,,,,,,,,,,,,,,,,,,,,,,,,,,,,,,,,,,,,,,,,,,,,,left,1,0.5003,,,,,,magnitude,3,1,3 | 1,2,0.06,0.06,neutral,left,0,34,34,60,1,,,,,,,,,,,,,,,,,,,,,,,,,,,,,,,,,,,,,,,,,,,,,,,,,,,,,,,,,,,,,,,,,,,,,,,,,,,,,,,,,,,
,484025127976,BAC,14/11/1999,001,2023-04-03_11h17.52.000,OS3_Mult_verification,2022.2.4,Win32,60.10337781,,,,,,,,,,,,,,,,,,,,,,,,,,,,,,,,,,,,,,,,,,,,,,,,,,,,,,,,,,,,,,,,,,,,,,left,1,0.5681,,,,,,magnitude,7,2,7 | 2,5,0.05,0.065,incongruent,left,0,35,35,45,1,,,,,,,,,,,,,,,,,,,,,,,,,,,,,,,,,,,,,,,,,,,,,,,,,,,,,,,,,,,,,,,,,,,,,,,,,,,,,,,,,,,
,484025127976,BAC,14/11/1999,001,2023-04-03_11h17.52.000,OS3_Mult_verification,2022.2.4,Win32,60.10337781,,,,,,,,,,,,,,,,,,,,,,,,,,,,,,,,,,,,,,,,,,,,,,,,,,,,,,,,,,,,,,,,,,,,,,left,1,0.8332,,,,,,magnitude,4,3,4 | 3,1,0.05,0.065,incongruent,left,0,36,36,29,1,,,,,,,,,,,,,,,,,,,,,,,,,,,,,,,,,,,,,,,,,,,,,,,,,,,,,,,,,,,,,,,,,,,,,,,,,,,,,,,,,,,
,484025127976,BAC,14/11/1999,001,2023-04-03_11h17.52.000,OS3_Mult_verification,2022.2.4,Win32,60.10337781,,,,,,,,,,,,,,,,,,,,,,,,,,,,,,,,,,,,,,,,,,,,,,,,,,,,,,,,,,,,,,,,,,,,,,left,1,0.5366,,,,,,magnitude,7,2,7 | 2,5,0.06,0.06,neutral,left,0,37,37,69,1,,,,,,,,,,,,,,,,,,,,,,,,,,,,,,,,,,,,,,,,,,,,,,,,,,,,,,,,,,,,,,,,,,,,,,,,,,,,,,,,,,,
,484025127976,BAC,14/11/1999,001,2023-04-03_11h17.52.000,OS3_Mult_verification,2022.2.4,Win32,60.10337781,,,,,,,,,,,,,,,,,,,,,,,,,,,,,,,,,,,,,,,,,,,,,,,,,,,,,,,,,,,,,,,,,,,,,,left,1,0.5868,,,,,,magnitude,4,3,4 | 3,1,0.065,0.05,congruent,left,0,38,38,5,1,,,,,,,,,,,,,,,,,,,,,,,,,,,,,,,,,,,,,,,,,,,,,,,,,,,,,,,,,,,,,,,,,,,,,,,,,,,,,,,,,,,
,484025127976,BAC,14/11/1999,001,2023-04-03_11h17.52.000,OS3_Mult_verification,2022.2.4,Win32,60.10337781,,,,,,,,,,,,,,,,,,,,,,,,,,,,,,,,,,,,,,,,,,,,,,,,,,,,,,,,,,,,,,,,,,,,,,left,1,0.5176,,,,,,magnitude,2,1,2 | 1,1,0.06,0.06,neutral,left,0,39,39,52,1,,,,,,,,,,,,,,,,,,,,,,,,,,,,,,,,,,,,,,,,,,,,,,,,,,,,,,,,,,,,,,,,,,,,,,,,,,,,,,,,,,,
,484025127976,BAC,14/11/1999,001,2023-04-03_11h17.52.000,OS3_Mult_verification,2022.2.4,Win32,60.10337781,,,,,,,,,,,,,,,,,,,,,,,,,,,,,,,,,,,,,,,,,,,,,,,,,,,,,,,,,,,,,,,,,,,,,,right,0,0.5735,,,,,,magnitude,9,7,9 | 7,2,0.06,0.06,neutral,left,0,40,40,63,1,,,,,,,,,,,,,,,,,,,,,,,,,,,,,,,,,,,,,,,,,,,,,,,,,,,,,,,,,,,,,,,,,,,,,,,,,,,,,,,,,,,
,484025127976,BAC,14/11/1999,001,2023-04-03_11h17.52.000,OS3_Mult_verification,2022.2.4,Win32,60.10337781,,,,,,,,,,,,,,,,,,,,,,,,,,,,,,,,,,,,,,,,,,,,,,,,,,,,,,,,,,,,,,,,,,,,,,right,1,0.8025,,,,,,magnitude,6,8,6 | 8,2,0.06,0.06,neutral,right,0,41,41,58,1,,,,,,,,,,,,,,,,,,,,,,,,,,,,,,,,,,,,,,,,,,,,,,,,,,,,,,,,,,,,,,,,,,,,,,,,,,,,,,,,,,,
,484025127976,BAC,14/11/1999,001,2023-04-03_11h17.52.000,OS3_Mult_verification,2022.2.4,Win32,60.10337781,,,,,,,,,,,,,,,,,,,,,,,,,,,,,,,,,,,,,,,,,,,,,,,,,,,,,,,,,,,,,,,,,,,,,,right,1,0.7092,,,,,,magnitude,3,4,3 | 4,1,0.065,0.05,incongruent,right,0,42,42,25,1,,,,,,,,,,,,,,,,,,,,,,,,,,,,,,,,,,,,,,,,,,,,,,,,,,,,,,,,,,,,,,,,,,,,,,,,,,,,,,,,,,,
,484025127976,BAC,14/11/1999,001,2023-04-03_11h17.52.000,OS3_Mult_verification,2022.2.4,Win32,60.10337781,,,,,,,,,,,,,,,,,,,,,,,,,,,,,,,,,,,,,,,,,,,,,,,,,,,,,,,,,,,,,,,,,,,,,,left,1,0.5178,,,,,,magnitude,3,1,3 | 1,2,0.065,0.05,congruent,left,0,43,43,12,1,,,,,,,,,,,,,,,,,,,,,,,,,,,,,,,,,,,,,,,,,,,,,,,,,,,,,,,,,,,,,,,,,,,,,,,,,,,,,,,,,,,
,484025127976,BAC,14/11/1999,001,2023-04-03_11h17.52.000,OS3_Mult_verification,2022.2.4,Win32,60.10337781,,,,,,,,,,,,,,,,,,,,,,,,,,,,,,,,,,,,,,,,,,,,,,,,,,,,,,,,,,,,,,,,,,,,,,right,1,0.7335,,,,,,magnitude,6,7,6 | 7,1,0.065,0.05,incongruent,right,0,44,44,26,1,,,,,,,,,,,,,,,,,,,,,,,,,,,,,,,,,,,,,,,,,,,,,,,,,,,,,,,,,,,,,,,,,,,,,,,,,,,,,,,,,,,
,484025127976,BAC,14/11/1999,001,2023-04-03_11h17.52.000,OS3_Mult_verification,2022.2.4,Win32,60.10337781,,,,,,,,,,,,,,,,,,,,,,,,,,,,,,,,,,,,,,,,,,,,,,,,,,,,,,,,,,,,,,,,,,,,,,left,1,0.5511,,,,,,magnitude,8,3,8 | 3,5,0.065,0.05,congruent,left,0,45,45,22,1,,,,,,,,,,,,,,,,,,,,,,,,,,,,,,,,,,,,,,,,,,,,,,,,,,,,,,,,,,,,,,,,,,,,,,,,,,,,,,,,,,,
,484025127976,BAC,14/11/1999,001,2023-04-03_11h17.52.000,OS3_Mult_verification,2022.2.4,Win32,60.10337781,,,,,,,,,,,,,,,,,,,,,,,,,,,,,,,,,,,,,,,,,,,,,,,,,,,,,,,,,,,,,,,,,,,,,,left,1,0.6093,,,,,,magnitude,9,7,9 | 7,2,0.065,0.05,congruent,left,0,46,46,15,1,,,,,,,,,,,,,,,,,,,,,,,,,,,,,,,,,,,,,,,,,,,,,,,,,,,,,,,,,,,,,,,,,,,,,,,,,,,,,,,,,,,
,484025127976,BAC,14/11/1999,001,2023-04-03_11h17.52.000,OS3_Mult_verification,2022.2.4,Win32,60.10337781,,,,,,,,,,,,,,,,,,,,,,,,,,,,,,,,,,,,,,,,,,,,,,,,,,,,,,,,,,,,,,,,,,,,,,right,1,0.673,,,,,,magnitude,1,2,1 | 2,1,0.06,0.06,neutral,right,0,47,47,48,1,,,,,,,,,,,,,,,,,,,,,,,,,,,,,,,,,,,,,,,,,,,,,,,,,,,,,,,,,,,,,,,,,,,,,,,,,,,,,,,,,,,
,484025127976,BAC,14/11/1999,001,2023-04-03_11h17.52.000,OS3_Mult_verification,2022.2.4,Win32,60.10337781,,,,,,,,,,,,,,,,,,,,,,,,,,,,,,,,,,,,,,,,,,,,,,,,,,,,,,,,,,,,,,,,,,,,,,left,1,0.557,,,,,,magnitude,8,6,8 | 6,2,0.05,0.065,incongruent,left,0,48,48,38,1,,,,,,,,,,,,,,,,,,,,,,,,,,,,,,,,,,,,,,,,,,,,,,,,,,,,,,,,,,,,,,,,,,,,,,,,,,,,,,,,,,,
,484025127976,BAC,14/11/1999,001,2023-04-03_11h17.52.000,OS3_Mult_verification,2022.2.4,Win32,60.10337781,,,,,,,,,,,,,,,,,,,,,,,,,,,,,,,,,,,,,,,,,,,,,,,,,,,,,,,,,,,,,,,,,,,,,,right,1,0.6167,,,,,,magnitude,6,8,6 | 8,2,0.065,0.05,incongruent,right,0,49,49,34,1,,,,,,,,,,,,,,,,,,,,,,,,,,,,,,,,,,,,,,,,,,,,,,,,,,,,,,,,,,,,,,,,,,,,,,,,,,,,,,,,,,,
,484025127976,BAC,14/11/1999,001,2023-04-03_11h17.52.000,OS3_Mult_verification,2022.2.4,Win32,60.10337781,,,,,,,,,,,,,,,,,,,,,,,,,,,,,,,,,,,,,,,,,,,,,,,,,,,,,,,,,,,,,,,,,,,,,,right,1,0.5184,,,,,,magnitude,1,6,1 | 6,5,0.065,0.05,incongruent,right,0,50,50,40,1,,,,,,,,,,,,,,,,,,,,,,,,,,,,,,,,,,,,,,,,,,,,,,,,,,,,,,,,,,,,,,,,,,,,,,,,,,,,,,,,,,,
,484025127976,BAC,14/11/1999,001,2023-04-03_11h17.52.000,OS3_Mult_verification,2022.2.4,Win32,60.10337781,,,,,,,,,,,,,,,,,,,,,,,,,,,,,,,,,,,,,,,,,,,,,,,,,,,,,,,,,,,,,,,,,,,,,,right,1,0.5232,,,,,,magnitude,2,7,2 | 7,5,0.06,0.06,neutral,right,0,51,51,65,1,,,,,,,,,,,,,,,,,,,,,,,,,,,,,,,,,,,,,,,,,,,,,,,,,,,,,,,,,,,,,,,,,,,,,,,,,,,,,,,,,,,
,484025127976,BAC,14/11/1999,001,2023-04-03_11h17.52.000,OS3_Mult_verification,2022.2.4,Win32,60.10337781,,,,,,,,,,,,,,,,,,,,,,,,,,,,,,,,,,,,,,,,,,,,,,,,,,,,,,,,,,,,,,,,,,,,,,left,1,0.5836,,,,,,magnitude,4,3,4 | 3,1,0.06,0.06,neutral,left,0,52,52,53,1,,,,,,,,,,,,,,,,,,,,,,,,,,,,,,,,,,,,,,,,,,,,,,,,,,,,,,,,,,,,,,,,,,,,,,,,,,,,,,,,,,,
,484025127976,BAC,14/11/1999,001,2023-04-03_11h17.52.000,OS3_Mult_verification,2022.2.4,Win32,60.10337781,,,,,,,,,,,,,,,,,,,,,,,,,,,,,,,,,,,,,,,,,,,,,,,,,,,,,,,,,,,,,,,,,,,,,,right,1,0.5549,,,,,,magnitude,6,7,6 | 7,1,0.05,0.065,congruent,right,0,53,53,2,1,,,,,,,,,,,,,,,,,,,,,,,,,,,,,,,,,,,,,,,,,,,,,,,,,,,,,,,,,,,,,,,,,,,,,,,,,,,,,,,,,,,
,484025127976,BAC,14/11/1999,001,2023-04-03_11h17.52.000,OS3_Mult_verification,2022.2.4,Win32,60.10337781,,,,,,,,,,,,,,,,,,,,,,,,,,,,,,,,,,,,,,,,,,,,,,,,,,,,,,,,,,,,,,,,,,,,,,right,1,0.6378,,,,,,magnitude,4,9,4 | 9,5,0.065,0.05,incongruent,right,0,54,54,43,1,,,,,,,,,,,,,,,,,,,,,,,,,,,,,,,,,,,,,,,,,,,,,,,,,,,,,,,,,,,,,,,,,,,,,,,,,,,,,,,,,,,
,484025127976,BAC,14/11/1999,001,2023-04-03_11h17.52.000,OS3_Mult_verification,2022.2.4,Win32,60.10337781,,,,,,,,,,,,,,,,,,,,,,,,,,,,,,,,,,,,,,,,,,,,,,,,,,,,,,,,,,,,,,,,,,,,,,right,1,0.5511,,,,,,magnitude,7,9,7 | 9,2,0.06,0.06,neutral,right,0,55,55,59,1,,,,,,,,,,,,,,,,,,,,,,,,,,,,,,,,,,,,,,,,,,,,,,,,,,,,,,,,,,,,,,,,,,,,,,,,,,,,,,,,,,,
,484025127976,BAC,14/11/1999,001,2023-04-03_11h17.52.000,OS3_Mult_verification,2022.2.4,Win32,60.10337781,,,,,,,,,,,,,,,,,,,,,,,,,,,,,,,,,,,,,,,,,,,,,,,,,,,,,,,,,,,,,,,,,,,,,,left,1,0.5501,,,,,,magnitude,2,1,2 | 1,1,0.05,0.065,incongruent,left,0,56,56,28,1,,,,,,,,,,,,,,,,,,,,,,,,,,,,,,,,,,,,,,,,,,,,,,,,,,,,,,,,,,,,,,,,,,,,,,,,,,,,,,,,,,,
,484025127976,BAC,14/11/1999,001,2023-04-03_11h17.52.000,OS3_Mult_verification,2022.2.4,Win32,60.10337781,,,,,,,,,,,,,,,,,,,,,,,,,,,,,,,,,,,,,,,,,,,,,,,,,,,,,,,,,,,,,,,,,,,,,,left,1,0.4526,,,,,,magnitude,4,2,4 | 2,2,0.065,0.05,congruent,left,0,57,57,13,1,,,,,,,,,,,,,,,,,,,,,,,,,,,,,,,,,,,,,,,,,,,,,,,,,,,,,,,,,,,,,,,,,,,,,,,,,,,,,,,,,,,
,484025127976,BAC,14/11/1999,001,2023-04-03_11h17.52.000,OS3_Mult_verification,2022.2.4,Win32,60.10337781,,,,,,,,,,,,,,,,,,,,,,,,,,,,,,,,,,,,,,,,,,,,,,,,,,,,,,,,,,,,,,,,,,,,,,right,1,0.5622,,,,,,magnitude,3,8,3 | 8,5,0.06,0.06,neutral,right,0,58,58,66,1,,,,,,,,,,,,,,,,,,,,,,,,,,,,,,,,,,,,,,,,,,,,,,,,,,,,,,,,,,,,,,,,,,,,,,,,,,,,,,,,,,,
,484025127976,BAC,14/11/1999,001,2023-04-03_11h17.52.000,OS3_Mult_verification,2022.2.4,Win32,60.10337781,,,,,,,,,,,,,,,,,,,,,,,,,,,,,,,,,,,,,,,,,,,,,,,,,,,,,,,,,,,,,,,,,,,,,,left,1,0.6007,,,,,,magnitude,7,6,7 | 6,1,0.06,0.06,neutral,left,0,59,59,54,1,,,,,,,,,,,,,,,,,,,,,,,,,,,,,,,,,,,,,,,,,,,,,,,,,,,,,,,,,,,,,,,,,,,,,,,,,,,,,,,,,,,
,484025127976,BAC,14/11/1999,001,2023-04-03_11h17.52.000,OS3_Mult_verification,2022.2.4,Win32,60.10337781,,,,,,,,,,,,,,,,,,,,,,,,,,,,,,,,,,,,,,,,,,,,,,,,,,,,,,,,,,,,,,,,,,,,,,right,1,0.5332,,,,,,magnitude,3,4,3 | 4,1,0.06,0.06,neutral,right,0,60,60,49,1,,,,,,,,,,,,,,,,,,,,,,,,,,,,,,,,,,,,,,,,,,,,,,,,,,,,,,,,,,,,,,,,,,,,,,,,,,,,,,,,,,,
,484025127976,BAC,14/11/1999,001,2023-04-03_11h17.52.000,OS3_Mult_verification,2022.2.4,Win32,60.10337781,,,,,,,,,,,,,,,,,,,,,,,,,,,,,,,,,,,,,,,,,,,,,,,,,,,,,,,,,,,,,,,,,,,,,,right,1,0.8497,,,,,,magnitude,8,9,8 | 9,1,0.065,0.05,incongruent,right,0,61,61,27,1,,,,,,,,,,,,,,,,,,,,,,,,,,,,,,,,,,,,,,,,,,,,,,,,,,,,,,,,,,,,,,,,,,,,,,,,,,,,,,,,,,,
,484025127976,BAC,14/11/1999,001,2023-04-03_11h17.52.000,OS3_Mult_verification,2022.2.4,Win32,60.10337781,,,,,,,,,,,,,,,,,,,,,,,,,,,,,,,,,,,,,,,,,,,,,,,,,,,,,,,,,,,,,,,,,,,,,,right,1,0.5001,,,,,,magnitude,1,2,1 | 2,1,0.05,0.065,congruent,right,0,62,62,0,1,,,,,,,,,,,,,,,,,,,,,,,,,,,,,,,,,,,,,,,,,,,,,,,,,,,,,,,,,,,,,,,,,,,,,,,,,,,,,,,,,,,
,484025127976,BAC,14/11/1999,001,2023-04-03_11h17.52.000,OS3_Mult_verification,2022.2.4,Win32,60.10337781,,,,,,,,,,,,,,,,,,,,,,,,,,,,,,,,,,,,,,,,,,,,,,,,,,,,,,,,,,,,,,,,,,,,,,left,1,0.5719,,,,,,magnitude,8,3,8 | 3,5,0.05,0.065,incongruent,left,0,63,63,46,1,,,,,,,,,,,,,,,,,,,,,,,,,,,,,,,,,,,,,,,,,,,,,,,,,,,,,,,,,,,,,,,,,,,,,,,,,,,,,,,,,,,
,484025127976,BAC,14/11/1999,001,2023-04-03_11h17.52.000,OS3_Mult_verification,2022.2.4,Win32,60.10337781,,,,,,,,,,,,,,,,,,,,,,,,,,,,,,,,,,,,,,,,,,,,,,,,,,,,,,,,,,,,,,,,,,,,,,left,1,0.5018,,,,,,magnitude,9,8,9 | 8,1,0.06,0.06,neutral,left,0,64,64,55,1,,,,,,,,,,,,,,,,,,,,,,,,,,,,,,,,,,,,,,,,,,,,,,,,,,,,,,,,,,,,,,,,,,,,,,,,,,,,,,,,,,,
,484025127976,BAC,14/11/1999,001,2023-04-03_11h17.52.000,OS3_Mult_verification,2022.2.4,Win32,60.10337781,,,,,,,,,,,,,,,,,,,,,,,,,,,,,,,,,,,,,,,,,,,,,,,,,,,,,,,,,,,,,,,,,,,,,,right,1,0.617,,,,,,magnitude,7,9,7 | 9,2,0.05,0.065,congruent,right,0,65,65,11,1,,,,,,,,,,,,,,,,,,,,,,,,,,,,,,,,,,,,,,,,,,,,,,,,,,,,,,,,,,,,,,,,,,,,,,,,,,,,,,,,,,,
,484025127976,BAC,14/11/1999,001,2023-04-03_11h17.52.000,OS3_Mult_verification,2022.2.4,Win32,60.10337781,,,,,,,,,,,,,,,,,,,,,,,,,,,,,,,,,,,,,,,,,,,,,,,,,,,,,,,,,,,,,,,,,,,,,,left,1,0.503,,,,,,magnitude,8,6,8 | 6,2,0.06,0.06,neutral,left,0,66,66,62,1,,,,,,,,,,,,,,,,,,,,,,,,,,,,,,,,,,,,,,,,,,,,,,,,,,,,,,,,,,,,,,,,,,,,,,,,,,,,,,,,,,,
,484025127976,BAC,14/11/1999,001,2023-04-03_11h17.52.000,OS3_Mult_verification,2022.2.4,Win32,60.10337781,,,,,,,,,,,,,,,,,,,,,,,,,,,,,,,,,,,,,,,,,,,,,,,,,,,,,,,,,,,,,,,,,,,,,,right,1,0.5207,,,,,,magnitude,1,2,1 | 2,1,0.065,0.05,incongruent,right,0,67,67,24,1,,,,,,,,,,,,,,,,,,,,,,,,,,,,,,,,,,,,,,,,,,,,,,,,,,,,,,,,,,,,,,,,,,,,,,,,,,,,,,,,,,,
,484025127976,BAC,14/11/1999,001,2023-04-03_11h17.52.000,OS3_Mult_verification,2022.2.4,Win32,60.10337781,,,,,,,,,,,,,,,,,,,,,,,,,,,,,,,,,,,,,,,,,,,,,,,,,,,,,,,,,,,,,,,,,,,,,,right,1,0.6498,,,,,,magnitude,2,7,2 | 7,5,0.065,0.05,incongruent,right,0,68,68,41,1,,,,,,,,,,,,,,,,,,,,,,,,,,,,,,,,,,,,,,,,,,,,,,,,,,,,,,,,,,,,,,,,,,,,,,,,,,,,,,,,,,,
,484025127976,BAC,14/11/1999,001,2023-04-03_11h17.52.000,OS3_Mult_verification,2022.2.4,Win32,60.10337781,,,,,,,,,,,,,,,,,,,,,,,,,,,,,,,,,,,,,,,,,,,,,,,,,,,,,,,,,,,,,,,,,,,,,,left,1,0.4952,,,,,,magnitude,9,4,9 | 4,5,0.06,0.06,neutral,left,0,69,69,71,1,,,,,,,,,,,,,,,,,,,,,,,,,,,,,,,,,,,,,,,,,,,,,,,,,,,,,,,,,,,,,,,,,,,,,,,,,,,,,,,,,,,
,484025127976,BAC,14/11/1999,001,2023-04-03_11h17.52.000,OS3_Mult_verification,2022.2.4,Win32,60.10337781,,,,,,,,,,,,,,,,,,,,,,,,,,,,,,,,,,,,,,,,,,,,,,,,,,,,,,,,,,,,,,,,,,,,,,left,1,0.8175,,,,,,magnitude,9,7,9 | 7,2,0.05,0.065,incongruent,left,0,70,70,39,1,,,,,,,,,,,,,,,,,,,,,,,,,,,,,,,,,,,,,,,,,,,,,,,,,,,,,,,,,,,,,,,,,,,,,,,,,,,,,,,,,,,
,484025127976,BAC,14/11/1999,001,2023-04-03_11h17.52.000,OS3_Mult_verification,2022.2.4,Win32,60.10337781,,,,,,,,,,,,,,,,,,,,,,,,,,,,,,,,,,,,,,,,,,,,,,,,,,,,,,,,,,,,,,,,,,,,,,right,1,0.4844,,,,,,magnitude,6,8,6 | 8,2,0.05,0.065,congruent,right,0,71,71,10,1,,,,,,,,,,,,,,,,,,,,,,,,,,,,,,,,,,,,,,,,,,,,,,,,,,,,,,,,,,,,,,,,,,,,,,,,,,,,,,,,,,,
,484025127976,BAC,14/11/1999,001,2023-04-03_11h17.52.000,OS3_Mult_verification,2022.2.4,Win32,60.10337781,,,,,,,,,,,,,,,,,,,,,,,,,,,,,,,,,,,,,,,,,,,,,,,,,,,,,,,,,,,,,,,,,,,,,,,,,,,,,,,,,,,,,,,,,,,,0,0,0,0,1,stroop_stim/magnitude.xlsx,stroop_stim/prac_magnitude.xlsx,NUMERICALLY larger (larger coefficient).,images/numericallyLarger.png,,,,,,,,,,,,,,,,,,,,,,,,,,,,,,,,,,,,,,,,,,,,,,,,,,,,,,,,,,,,,,,,,,,,,,,,,,
,484025127976,BAC,14/11/1999,001,2023-04-03_11h17.52.000,OS3_Mult_verification,2022.2.4,Win32,60.10337781,,,,,,,,,,,,,,,,space,0.6164,,,,,,,,,,,,,,,,,,,,,,,,,,,,,,,,,,,,,,,,,,,,,,,,,,,,,left,1,0.6164,0,0,0,0,1,practice,9,8,9 | 8,1,0.065,0.05,congruent,left,,,,,,,,,,,,,,,,,,,,,,,,,,,,,,,,,,,,,,,,,,,,,,,,,,,,,,,,,,,,,,,,,,,,,,,,,,,,,,,,,,,,,,,,
,484025127976,BAC,14/11/1999,001,2023-04-03_11h17.52.000,OS3_Mult_verification,2022.2.4,Win32,60.10337781,,,,,,,,,,,,,,,,,,,,,,,,,,,,,,,,,,,,,,,,,,,,,,,,,,,,,,,,,,,,,,,,,,,,,,right,1,0.6157,0,1,1,1,1,practice,4,3,4 | 3,1,0.05,0.065,incongruent,right,,,,,,,,,,,,,,,,,,,,,,,,,,,,,,,,,,,,,,,,,,,,,,,,,,,,,,,,,,,,,,,,,,,,,,,,,,,,,,,,,,,,,,,,
,484025127976,BAC,14/11/1999,001,2023-04-03_11h17.52.000,OS3_Mult_verification,2022.2.4,Win32,60.10337781,,,,,,,,,,,,,,,,,,,,,,,,,,,,,,,,,,,,,,,,,,,,,,,,,,,,,,,,,,,,,,,,,,,,,,right,1,0.6721,0,2,2,2,1,practice,9,9,9 | 9,0,0.05,0.065,neutral,right,,,,,,,,,,,,,,,,,,,,,,,,,,,,,,,,,,,,,,,,,,,,,,,,,,,,,,,,,,,,,,,,,,,,,,,,,,,,,,,,,,,,,,,,
,484025127976,BAC,14/11/1999,001,2023-04-03_11h17.52.000,OS3_Mult_verification,2022.2.4,Win32,60.10337781,,,,,,,,,,,,,,,,,,,,,,,,,,,,,,,,,,,,,,,,,,,,,,,,,,,,,,,,,,,,,,,,,,,,,,right,1,0.4832,,,,,,physical,7,9,7 | 9,2,0.05,0.065,congruent,right,0,0,0,11,1,,,,,,,,,,,,,,,,,,,,,,,,,,,,,,,,,,,,,,,,,,,,,,,,,,,,,,,,,,,,,,,,,,,,,,,,,,,,,,,,,,,
,484025127976,BAC,14/11/1999,001,2023-04-03_11h17.52.000,OS3_Mult_verification,2022.2.4,Win32,60.10337781,,,,,,,,,,,,,,,,,,,,,,,,,,,,,,,,,,,,,,,,,,,,,,,,,,,,,,,,,,,,,,,,,,,,,,left,1,0.4762,,,,,,physical,8,8,8 | 8,0,0.065,0.05,neutral,left,0,1,1,70,1,,,,,,,,,,,,,,,,,,,,,,,,,,,,,,,,,,,,,,,,,,,,,,,,,,,,,,,,,,,,,,,,,,,,,,,,,,,,,,,,,,,
,484025127976,BAC,14/11/1999,001,2023-04-03_11h17.52.000,OS3_Mult_verification,2022.2.4,Win32,60.10337781,,,,,,,,,,,,,,,,,,,,,,,,,,,,,,,,,,,,,,,,,,,,,,,,,,,,,,,,,,,,,,,,,,,,,,right,1,0.4832,,,,,,physical,3,3,3 | 3,0,0.05,0.065,neutral,right,0,2,2,60,1,,,,,,,,,,,,,,,,,,,,,,,,,,,,,,,,,,,,,,,,,,,,,,,,,,,,,,,,,,,,,,,,,,,,,,,,,,,,,,,,,,,
,484025127976,BAC,14/11/1999,001,2023-04-03_11h17.52.000,OS3_Mult_verification,2022.2.4,Win32,60.10337781,,,,,,,,,,,,,,,,,,,,,,,,,,,,,,,,,,,,,,,,,,,,,,,,,,,,,,,,,,,,,,,,,,,,,,left,1,0.4904,,,,,,physical,8,6,8 | 6,2,0.065,0.05,congruent,left,0,3,3,14,1,,,,,,,,,,,,,,,,,,,,,,,,,,,,,,,,,,,,,,,,,,,,,,,,,,,,,,,,,,,,,,,,,,,,,,,,,,,,,,,,,,,
,484025127976,BAC,14/11/1999,001,2023-04-03_11h17.52.000,OS3_Mult_verification,2022.2.4,Win32,60.10337781,,,,,,,,,,,,,,,,,,,,,,,,,,,,,,,,,,,,,,,,,,,,,,,,,,,,,,,,,,,,,,,,,,,,,,left,1,0.7331,,,,,,physical,6,8,6 | 8,2,0.065,0.05,incongruent,left,0,4,4,34,1,,,,,,,,,,,,,,,,,,,,,,,,,,,,,,,,,,,,,,,,,,,,,,,,,,,,,,,,,,,,,,,,,,,,,,,,,,,,,,,,,,,
,484025127976,BAC,14/11/1999,001,2023-04-03_11h17.52.000,OS3_Mult_verification,2022.2.4,Win32,60.10337781,,,,,,,,,,,,,,,,,,,,,,,,,,,,,,,,,,,,,,,,,,,,,,,,,,,,,,,,,,,,,,,,,,,,,,right,1,0.6068,,,,,,physical,8,3,8 | 3,5,0.05,0.065,incongruent,right,0,5,5,46,1,,,,,,,,,,,,,,,,,,,,,,,,,,,,,,,,,,,,,,,,,,,,,,,,,,,,,,,,,,,,,,,,,,,,,,,,,,,,,,,,,,,
,484025127976,BAC,14/11/1999,001,2023-04-03_11h17.52.000,OS3_Mult_verification,2022.2.4,Win32,60.10337781,,,,,,,,,,,,,,,,,,,,,,,,,,,,,,,,,,,,,,,,,,,,,,,,,,,,,,,,,,,,,,,,,,,,,,right,1,0.5069,,,,,,physical,9,8,9 | 8,1,0.05,0.065,incongruent,right,0,6,6,31,1,,,,,,,,,,,,,,,,,,,,,,,,,,,,,,,,,,,,,,,,,,,,,,,,,,,,,,,,,,,,,,,,,,,,,,,,,,,,,,,,,,,
,484025127976,BAC,14/11/1999,001,2023-04-03_11h17.52.000,OS3_Mult_verification,2022.2.4,Win32,60.10337781,,,,,,,,,,,,,,,,,,,,,,,,,,,,,,,,,,,,,,,,,,,,,,,,,,,,,,,,,,,,,,,,,,,,,,right,1,0.5715,,,,,,physical,2,1,2 | 1,1,0.05,0.065,incongruent,right,0,7,7,28,1,,,,,,,,,,,,,,,,,,,,,,,,,,,,,,,,,,,,,,,,,,,,,,,,,,,,,,,,,,,,,,,,,,,,,,,,,,,,,,,,,,,
,484025127976,BAC,14/11/1999,001,2023-04-03_11h17.52.000,OS3_Mult_verification,2022.2.4,Win32,60.10337781,,,,,,,,,,,,,,,,,,,,,,,,,,,,,,,,,,,,,,,,,,,,,,,,,,,,,,,,,,,,,,,,,,,,,,right,1,0.4607,,,,,,physical,8,9,8 | 9,1,0.05,0.065,congruent,right,0,8,8,3,1,,,,,,,,,,,,,,,,,,,,,,,,,,,,,,,,,,,,,,,,,,,,,,,,,,,,,,,,,,,,,,,,,,,,,,,,,,,,,,,,,,,
,484025127976,BAC,14/11/1999,001,2023-04-03_11h17.52.000,OS3_Mult_verification,2022.2.4,Win32,60.10337781,,,,,,,,,,,,,,,,,,,,,,,,,,,,,,,,,,,,,,,,,,,,,,,,,,,,,,,,,,,,,,,,,,,,,,right,1,0.6335,,,,,,physical,4,3,4 | 3,1,0.05,0.065,incongruent,right,0,9,9,29,1,,,,,,,,,,,,,,,,,,,,,,,,,,,,,,,,,,,,,,,,,,,,,,,,,,,,,,,,,,,,,,,,,,,,,,,,,,,,,,,,,,,
,484025127976,BAC,14/11/1999,001,2023-04-03_11h17.52.000,OS3_Mult_verification,2022.2.4,Win32,60.10337781,,,,,,,,,,,,,,,,,,,,,,,,,,,,,,,,,,,,,,,,,,,,,,,,,,,,,,,,,,,,,,,,,,,,,,right,1,0.6101,,,,,,physical,6,1,6 | 1,5,0.05,0.065,incongruent,right,0,10,10,44,1,,,,,,,,,,,,,,,,,,,,,,,,,,,,,,,,,,,,,,,,,,,,,,,,,,,,,,,,,,,,,,,,,,,,,,,,,,,,,,,,,,,
,484025127976,BAC,14/11/1999,001,2023-04-03_11h17.52.000,OS3_Mult_verification,2022.2.4,Win32,60.10337781,,,,,,,,,,,,,,,,,,,,,,,,,,,,,,,,,,,,,,,,,,,,,,,,,,,,,,,,,,,,,,,,,,,,,,left,1,0.4663,,,,,,physical,2,1,2 | 1,1,0.065,0.05,congruent,left,0,11,11,4,1,,,,,,,,,,,,,,,,,,,,,,,,,,,,,,,,,,,,,,,,,,,,,,,,,,,,,,,,,,,,,,,,,,,,,,,,,,,,,,,,,,,
,484025127976,BAC,14/11/1999,001,2023-04-03_11h17.52.000,OS3_Mult_verification,2022.2.4,Win32,60.10337781,,,,,,,,,,,,,,,,,,,,,,,,,,,,,,,,,,,,,,,,,,,,,,,,,,,,,,,,,,,,,,,,,,,,,,left,1,0.522,,,,,,physical,9,9,9 | 9,0,0.065,0.05,neutral,left,0,12,12,55,1,,,,,,,,,,,,,,,,,,,,,,,,,,,,,,,,,,,,,,,,,,,,,,,,,,,,,,,,,,,,,,,,,,,,,,,,,,,,,,,,,,,
,484025127976,BAC,14/11/1999,001,2023-04-03_11h17.52.000,OS3_Mult_verification,2022.2.4,Win32,60.10337781,,,,,,,,,,,,,,,,,,,,,,,,,,,,,,,,,,,,,,,,,,,,,,,,,,,,,,,,,,,,,,,,,,,,,,right,1,0.529,,,,,,physical,2,2,2 | 2,0,0.05,0.065,neutral,right,0,13,13,57,1,,,,,,,,,,,,,,,,,,,,,,,,,,,,,,,,,,,,,,,,,,,,,,,,,,,,,,,,,,,,,,,,,,,,,,,,,,,,,,,,,,,
,484025127976,BAC,14/11/1999,001,2023-04-03_11h17.52.000,OS3_Mult_verification,2022.2.4,Win32,60.10337781,,,,,,,,,,,,,,,,,,,,,,,,,,,,,,,,,,,,,,,,,,,,,,,,,,,,,,,,,,,,,,,,,,,,,,right,1,1.1163,,,,,,physical,1,3,1 | 3,2,0.05,0.065,congruent,right,0,14,14,8,1,,,,,,,,,,,,,,,,,,,,,,,,,,,,,,,,,,,,,,,,,,,,,,,,,,,,,,,,,,,,,,,,,,,,,,,,,,,,,,,,,,,
,484025127976,BAC,14/11/1999,001,2023-04-03_11h17.52.000,OS3_Mult_verification,2022.2.4,Win32,60.10337781,,,,,,,,,,,,,,,,,,,,,,,,,,,,,,,,,,,,,,,,,,,,,,,,,,,,,,,,,,,,,,,,,,,,,,left,1,0.6332,,,,,,physical,9,7,9 | 7,2,0.065,0.05,congruent,left,0,15,15,15,1,,,,,,,,,,,,,,,,,,,,,,,,,,,,,,,,,,,,,,,,,,,,,,,,,,,,,,,,,,,,,,,,,,,,,,,,,,,,,,,,,,,
,484025127976,BAC,14/11/1999,001,2023-04-03_11h17.52.000,OS3_Mult_verification,2022.2.4,Win32,60.10337781,,,,,,,,,,,,,,,,,,,,,,,,,,,,,,,,,,,,,,,,,,,,,,,,,,,,,,,,,,,,,,,,,,,,,,left,1,0.551,,,,,,physical,1,3,1 | 3,2,0.065,0.05,incongruent,left,0,16,16,32,1,,,,,,,,,,,,,,,,,,,,,,,,,,,,,,,,,,,,,,,,,,,,,,,,,,,,,,,,,,,,,,,,,,,,,,,,,,,,,,,,,,,
,484025127976,BAC,14/11/1999,001,2023-04-03_11h17.52.000,OS3_Mult_verification,2022.2.4,Win32,60.10337781,,,,,,,,,,,,,,,,,,,,,,,,,,,,,,,,,,,,,,,,,,,,,,,,,,,,,,,,,,,,,,,,,,,,,,right,1,0.5343,,,,,,physical,7,6,7 | 6,1,0.05,0.065,incongruent,right,0,17,17,30,1,,,,,,,,,,,,,,,,,,,,,,,,,,,,,,,,,,,,,,,,,,,,,,,,,,,,,,,,,,,,,,,,,,,,,,,,,,,,,,,,,,,
,484025127976,BAC,14/11/1999,001,2023-04-03_11h17.52.000,OS3_Mult_verification,2022.2.4,Win32,60.10337781,,,,,,,,,,,,,,,,,,,,,,,,,,,,,,,,,,,,,,,,,,,,,,,,,,,,,,,,,,,,,,,,,,,,,,left,1,0.6449,,,,,,physical,2,4,2 | 4,2,0.065,0.05,incongruent,left,0,18,18,33,1,,,,,,,,,,,,,,,,,,,,,,,,,,,,,,,,,,,,,,,,,,,,,,,,,,,,,,,,,,,,,,,,,,,,,,,,,,,,,,,,,,,
,484025127976,BAC,14/11/1999,001,2023-04-03_11h17.52.000,OS3_Mult_verification,2022.2.4,Win32,60.10337781,,,,,,,,,,,,,,,,,,,,,,,,,,,,,,,,,,,,,,,,,,,,,,,,,,,,,,,,,,,,,,,,,,,,,,left,1,0.5328,,,,,,physical,9,8,9 | 8,1,0.065,0.05,congruent,left,0,19,19,7,1,,,,,,,,,,,,,,,,,,,,,,,,,,,,,,,,,,,,,,,,,,,,,,,,,,,,,,,,,,,,,,,,,,,,,,,,,,,,,,,,,,,
,484025127976,BAC,14/11/1999,001,2023-04-03_11h17.52.000,OS3_Mult_verification,2022.2.4,Win32,60.10337781,,,,,,,,,,,,,,,,,,,,,,,,,,,,,,,,,,,,,,,,,,,,,,,,,,,,,,,,,,,,,,,,,,,,,,left,1,0.503,,,,,,physical,6,6,6 | 6,0,0.065,0.05,neutral,left,0,20,20,68,1,,,,,,,,,,,,,,,,,,,,,,,,,,,,,,,,,,,,,,,,,,,,,,,,,,,,,,,,,,,,,,,,,,,,,,,,,,,,,,,,,,,
,484025127976,BAC,14/11/1999,001,2023-04-03_11h17.52.000,OS3_Mult_verification,2022.2.4,Win32,60.10337781,,,,,,,,,,,,,,,,,,,,,,,,,,,,,,,,,,,,,,,,,,,,,,,,,,,,,,,,,,,,,,,,,,,,,,left,1,0.8006,,,,,,physical,3,4,3 | 4,1,0.065,0.05,incongruent,left,0,21,21,25,1,,,,,,,,,,,,,,,,,,,,,,,,,,,,,,,,,,,,,,,,,,,,,,,,,,,,,,,,,,,,,,,,,,,,,,,,,,,,,,,,,,,
,484025127976,BAC,14/11/1999,001,2023-04-03_11h17.52.000,OS3_Mult_verification,2022.2.4,Win32,60.10337781,,,,,,,,,,,,,,,,,,,,,,,,,,,,,,,,,,,,,,,,,,,,,,,,,,,,,,,,,,,,,,,,,,,,,,left,1,0.5373,,,,,,physical,7,9,7 | 9,2,0.065,0.05,incongruent,left,0,22,22,35,1,,,,,,,,,,,,,,,,,,,,,,,,,,,,,,,,,,,,,,,,,,,,,,,,,,,,,,,,,,,,,,,,,,,,,,,,,,,,,,,,,,,
,484025127976,BAC,14/11/1999,001,2023-04-03_11h17.52.000,OS3_Mult_verification,2022.2.4,Win32,60.10337781,,,,,,,,,,,,,,,,,,,,,,,,,,,,,,,,,,,,,,,,,,,,,,,,,,,,,,,,,,,,,,,,,,,,,,left,1,0.8496,,,,,,physical,4,9,4 | 9,5,0.065,0.05,incongruent,left,0,23,23,43,1,,,,,,,,,,,,,,,,,,,,,,,,,,,,,,,,,,,,,,,,,,,,,,,,,,,,,,,,,,,,,,,,,,,,,,,,,,,,,,,,,,,
,484025127976,BAC,14/11/1999,001,2023-04-03_11h17.52.000,OS3_Mult_verification,2022.2.4,Win32,60.10337781,,,,,,,,,,,,,,,,,,,,,,,,,,,,,,,,,,,,,,,,,,,,,,,,,,,,,,,,,,,,,,,,,,,,,,right,1,0.5504,,,,,,physical,7,7,7 | 7,0,0.05,0.065,neutral,right,0,24,24,69,1,,,,,,,,,,,,,,,,,,,,,,,,,,,,,,,,,,,,,,,,,,,,,,,,,,,,,,,,,,,,,,,,,,,,,,,,,,,,,,,,,,,
,484025127976,BAC,14/11/1999,001,2023-04-03_11h17.52.000,OS3_Mult_verification,2022.2.4,Win32,60.10337781,,,,,,,,,,,,,,,,,,,,,,,,,,,,,,,,,,,,,,,,,,,,,,,,,,,,,,,,,,,,,,,,,,,,,,left,1,0.5331,,,,,,physical,4,2,4 | 2,2,0.065,0.05,congruent,left,0,25,25,13,1,,,,,,,,,,,,,,,,,,,,,,,,,,,,,,,,,,,,,,,,,,,,,,,,,,,,,,,,,,,,,,,,,,,,,,,,,,,,,,,,,,,
,484025127976,BAC,14/11/1999,001,2023-04-03_11h17.52.000,OS3_Mult_verification,2022.2.4,Win32,60.10337781,,,,,,,,,,,,,,,,,,,,,,,,,,,,,,,,,,,,,,,,,,,,,,,,,,,,,,,,,,,,,,,,,,,,,,right,1,0.4553,,,,,,physical,3,4,3 | 4,1,0.05,0.065,congruent,right,0,26,26,1,1,,,,,,,,,,,,,,,,,,,,,,,,,,,,,,,,,,,,,,,,,,,,,,,,,,,,,,,,,,,,,,,,,,,,,,,,,,,,,,,,,,,
,484025127976,BAC,14/11/1999,001,2023-04-03_11h17.52.000,OS3_Mult_verification,2022.2.4,Win32,60.10337781,,,,,,,,,,,,,,,,,,,,,,,,,,,,,,,,,,,,,,,,,,,,,,,,,,,,,,,,,,,,,,,,,,,,,,right,1,0.5,,,,,,physical,8,8,8 | 8,0,0.05,0.065,neutral,right,0,27,27,62,1,,,,,,,,,,,,,,,,,,,,,,,,,,,,,,,,,,,,,,,,,,,,,,,,,,,,,,,,,,,,,,,,,,,,,,,,,,,,,,,,,,,
,484025127976,BAC,14/11/1999,001,2023-04-03_11h17.52.000,OS3_Mult_verification,2022.2.4,Win32,60.10337781,,,,,,,,,,,,,,,,,,,,,,,,,,,,,,,,,,,,,,,,,,,,,,,,,,,,,,,,,,,,,,,,,,,,,,left,1,0.617,,,,,,physical,1,1,1 | 1,0,0.065,0.05,neutral,left,0,28,28,48,1,,,,,,,,,,,,,,,,,,,,,,,,,,,,,,,,,,,,,,,,,,,,,,,,,,,,,,,,,,,,,,,,,,,,,,,,,,,,,,,,,,,
,484025127976,BAC,14/11/1999,001,2023-04-03_11h17.52.000,OS3_Mult_verification,2022.2.4,Win32,60.10337781,,,,,,,,,,,,,,,,,,,,,,,,,,,,,,,,,,,,,,,,,,,,,,,,,,,,,,,,,,,,,,,,,,,,,,right,1,0.6501,,,,,,physical,2,2,2 | 2,0,0.05,0.065,neutral,right,0,29,29,65,1,,,,,,,,,,,,,,,,,,,,,,,,,,,,,,,,,,,,,,,,,,,,,,,,,,,,,,,,,,,,,,,,,,,,,,,,,,,,,,,,,,,
,484025127976,BAC,14/11/1999,001,2023-04-03_11h17.52.000,OS3_Mult_verification,2022.2.4,Win32,60.10337781,,,,,,,,,,,,,,,,,,,,,,,,,,,,,,,,,,,,,,,,,,,,,,,,,,,,,,,,,,,,,,,,,,,,,,right,1,0.4835,,,,,,physical,9,7,9 | 7,2,0.05,0.065,incongruent,right,0,30,30,39,1,,,,,,,,,,,,,,,,,,,,,,,,,,,,,,,,,,,,,,,,,,,,,,,,,,,,,,,,,,,,,,,,,,,,,,,,,,,,,,,,,,,
