windowSize,participant,group,DOB (DD/MM/YEAR),session,date,expName,psychopyVersion,OS,frameRate,typing_instr_resp.keys,typing_instr_resp.rt,typing_response,typing_rt,typing_score,typingSpeed_input_resp.keys,typingSpeed_input_resp.rt,typing_speed_trials.thisRepN,typing_speed_trials.thisTrialN,typing_speed_trials.thisN,typing_speed_trials.thisIndex,typing_speed_trials.ran,typing_speed_stim,typing_report_resp.keys,typing_report_resp.rt,vpt_trial_resp1.keys,vpt_trial_resp1.rt,typedResponse,fluency_rt,fluency_score,fluencyInputResp.keys,fluencyInputResp.rt,fluencyPracLoop.thisRepN,fluencyPracLoop.thisTrialN,fluencyPracLoop.thisN,fluencyPracLoop.thisIndex,fluencyPracLoop.ran,problem,answers,fluencyLoop.thisRepN,fluencyLoop.thisTrialN,fluencyLoop.thisN,fluencyLoop.thisIndex,fluencyLoop.ran,vptCorrect,vpt_rt,respMouse.x,respMouse.y,respMouse.leftButton,respMouse.midButton,respMouse.rightButton,vptPracticeLoop.thisRepN,vptPracticeLoop.thisTrialN,vptPracticeLoop.thisN,vptPracticeLoop.thisIndex,vptPracticeLoop.ran,trialType,tiles,rows,cols,vptTrialLoop.thisRepN,vptTrialLoop.thisTrialN,vptTrialLoop.thisN,vptTrialLoop.thisIndex,vptTrialLoop.ran,noOfBlocks,TASK_B.thisRepN,TASK_B.thisTrialN,TASK_B.thisN,TASK_B.thisIndex,TASK_B.ran,controlTaskOrder.thisRepN,controlTaskOrder.thisTrialN,controlTaskOrder.thisN,controlTaskOrder.thisIndex,controlTaskOrder.ran,nRepsTask1,nRepsTask2,nRepsTask3,sampleAudio_resp.keys,sampleAudio_resp.rt,subjResponse,audio_rt,DS_score,inputResp.keys,inputResp.rt,audioPracticeLoop.thisRepN,audioPracticeLoop.thisTrialN,audioPracticeLoop.thisN,audioPracticeLoop.thisIndex,audioPracticeLoop.ran,digitSpan,digits_audioStim,soundsFile,typeDS,audioTrials_Loop.thisRepN,audioTrials_Loop.thisTrialN,audioTrials_Loop.thisN,audioTrials_Loop.thisIndex,audioTrials_Loop.ran,audioBlocks_loop.thisRepN,audioBlocks_loop.thisTrialN,audioBlocks_loop.thisN,audioBlocks_loop.thisIndex,audioBlocks_loop.ran,ConditionFile,digitSpanTask_loop.thisRepN,digitSpanTask_loop.thisTrialN,digitSpanTask_loop.thisN,digitSpanTask_loop.thisIndex,digitSpanTask_loop.ran,dsFile,TASK_C.thisRepN,TASK_C.thisTrialN,TASK_C.thisN,TASK_C.thisIndex,TASK_C.ran,stroopResp.keys,stroopResp.corr,stroopResp.rt,stroopPracLoop.thisRepN,stroopPracLoop.thisTrialN,stroopPracLoop.thisN,stroopPracLoop.thisIndex,stroopPracLoop.ran,stroopCond,leftNo,rightNo,displayProblem,numDistance,leftNo_size,rightNo_size,Dims,keyAnswer,stroopLoop.thisRepN,stroopLoop.thisTrialN,stroopLoop.thisN,stroopLoop.thisIndex,stroopLoop.ran,stroopBlocks.thisRepN,stroopBlocks.thisTrialN,stroopBlocks.thisN,stroopBlocks.thisIndex,stroopBlocks.ran,stroop_condition,stroop_pracFile,ActionInst,instrImage,TASK_A.thisRepN,TASK_A.thisTrialN,TASK_A.thisN,TASK_A.thisIndex,TASK_A.ran,veriStim_resp.keys,veriStim_resp.corr,veriStim_resp.rt,verificationPracLoop.thisRepN,verificationPracLoop.thisTrialN,verificationPracLoop.thisN,verificationPracLoop.thisIndex,verificationPracLoop.ran,mult_problem,mult_answer,mult_type,error_distance,interferenceScore,problemType,interferenceLevel,problemSize,img_leftButton,img_rightButton,veriLoop.thisRepN,veriLoop.thisTrialN,veriLoop.thisN,veriLoop.thisIndex,veriLoop.ran,veriBlock.thisRepN,veriBlock.thisTrialN,veriBlock.thisN,veriBlock.thisIndex,veriBlock.ran,verificationFiles,end_resp.keys,end_resp.rt
"[1366,649]",678536750213,BCA,05/10/2001,001,2023-04-09_17h06.19.496,OS3_Mult_verification,2022.2.4,Win32,59.18560606,,,,,,,,,,,,,,,,,,,,,,,,,,,,,,,,,,,,,,,,,,,,,,,,,,,,,,,,,,,,,,,,,,,,,,,,,,,,,,,,,,,,,,,,,,,,,,,,,,,,,,,,,,,,,,,,,,,,,,,,,,,,,,,,,,,,,,,,,,,,,,,,,,,,,,,,,,,,,,,,,,,,,,,,,,,,,,
,678536750213,BCA,05/10/2001,001,2023-04-09_17h06.19.496,OS3_Mult_verification,2022.2.4,Win32,59.18560606,,,,,,,,,,,,,,,,,,,,,,,,,,,,,,,,,,,,,,,,,,,,,,,,,,,,,,,,,,,,,,,,,,,,,,,,,,,,,,,,,,,,,,,,,,,,,,,,,,,,,,,,,,,,,,,,,,,,,,,,,,,,,,,,,,,,,,,,,,,,,,,,,,,,,,,,,,,,,,,,,,,,,,,,,,,,,,
,678536750213,BCA,05/10/2001,001,2023-04-09_17h06.19.496,OS3_Mult_verification,2022.2.4,Win32,59.18560606,space,46.3908,,,,,,,,,,,,,,,,,,,,,,,,,,,,,,,,,,,,,,,,,,,,,,,,,,,,,,,,,,,,,,,,,,,,,,,,,,,,,,,,,,,,,,,,,,,,,,,,,,,,,,,,,,,,,,,,,,,,,,,,,,,,,,,,,,,,,,,,,,,,,,,,,,,,,,,,,,,,,,,,,,,,,,,,,,,,
,678536750213,BCA,05/10/2001,001,2023-04-09_17h06.19.496,OS3_Mult_verification,2022.2.4,Win32,59.18560606,,,27,2.566,1,"[""2"",""7"",""return""]","[1.1961000000238329,1.312700000047684,2.5198000000119265]",0,0,0,14,1,27,,,,,,,,,,,,,,,,,,,,,,,,,,,,,,,,,,,,,,,,,,,,,,,,,,,,,,,,,,,,,,,,,,,,,,,,,,,,,,,,,,,,,,,,,,,,,,,,,,,,,,,,,,,,,,,,,,,,,,,,,,,,,,,,,,,,,,,,,,,,,,,,,,,,,,,,,,,,,,,,,
,678536750213,BCA,05/10/2001,001,2023-04-09_17h06.19.496,OS3_Mult_verification,2022.2.4,Win32,59.18560606,,,25,1.8741,1,"[""2"",""5"",""return""]","[1.0670000000000073,1.4063000000119246,1.8231000000238282]",0,1,1,13,1,25,,,,,,,,,,,,,,,,,,,,,,,,,,,,,,,,,,,,,,,,,,,,,,,,,,,,,,,,,,,,,,,,,,,,,,,,,,,,,,,,,,,,,,,,,,,,,,,,,,,,,,,,,,,,,,,,,,,,,,,,,,,,,,,,,,,,,,,,,,,,,,,,,,,,,,,,,,,,,,,,,
,678536750213,BCA,05/10/2001,001,2023-04-09_17h06.19.496,OS3_Mult_verification,2022.2.4,Win32,59.18560606,,,12,1.2752,1,"[""1"",""2"",""return""]","[0.5633000000119068,0.7074999999999818,1.2284999999999968]",0,2,2,5,1,12,,,,,,,,,,,,,,,,,,,,,,,,,,,,,,,,,,,,,,,,,,,,,,,,,,,,,,,,,,,,,,,,,,,,,,,,,,,,,,,,,,,,,,,,,,,,,,,,,,,,,,,,,,,,,,,,,,,,,,,,,,,,,,,,,,,,,,,,,,,,,,,,,,,,,,,,,,,,,,,,,
,678536750213,BCA,05/10/2001,001,2023-04-09_17h06.19.496,OS3_Mult_verification,2022.2.4,Win32,59.18560606,,,45,1.3581,1,"[""4"",""5"",""return""]","[0.8970000000000198,1.112699999988081,1.3123000000119305]",0,3,3,22,1,45,,,,,,,,,,,,,,,,,,,,,,,,,,,,,,,,,,,,,,,,,,,,,,,,,,,,,,,,,,,,,,,,,,,,,,,,,,,,,,,,,,,,,,,,,,,,,,,,,,,,,,,,,,,,,,,,,,,,,,,,,,,,,,,,,,,,,,,,,,,,,,,,,,,,,,,,,,,,,,,,,
,678536750213,BCA,05/10/2001,001,2023-04-09_17h06.19.496,OS3_Mult_verification,2022.2.4,Win32,59.18560606,,,24,1.6918,1,"[""2"",""4"",""return""]","[0.8972999999523097,1.2600999999642397,1.6453999999761493]",0,4,4,12,1,24,,,,,,,,,,,,,,,,,,,,,,,,,,,,,,,,,,,,,,,,,,,,,,,,,,,,,,,,,,,,,,,,,,,,,,,,,,,,,,,,,,,,,,,,,,,,,,,,,,,,,,,,,,,,,,,,,,,,,,,,,,,,,,,,,,,,,,,,,,,,,,,,,,,,,,,,,,,,,,,,,
,678536750213,BCA,05/10/2001,001,2023-04-09_17h06.19.496,OS3_Mult_verification,2022.2.4,Win32,59.18560606,,,35,1.3587,1,"[""3"",""5"",""return""]","[0.8547000000476999,1.0221000000238405,1.291800000011932]",0,5,5,18,1,35,,,,,,,,,,,,,,,,,,,,,,,,,,,,,,,,,,,,,,,,,,,,,,,,,,,,,,,,,,,,,,,,,,,,,,,,,,,,,,,,,,,,,,,,,,,,,,,,,,,,,,,,,,,,,,,,,,,,,,,,,,,,,,,,,,,,,,,,,,,,,,,,,,,,,,,,,,,,,,,,,
,678536750213,BCA,05/10/2001,001,2023-04-09_17h06.19.496,OS3_Mult_verification,2022.2.4,Win32,59.18560606,,,72,1.671,1,"[""7"",""2"",""return""]","[1.0077999999523115,1.3346999999880893,1.6248999999761509]",0,6,6,29,1,72,,,,,,,,,,,,,,,,,,,,,,,,,,,,,,,,,,,,,,,,,,,,,,,,,,,,,,,,,,,,,,,,,,,,,,,,,,,,,,,,,,,,,,,,,,,,,,,,,,,,,,,,,,,,,,,,,,,,,,,,,,,,,,,,,,,,,,,,,,,,,,,,,,,,,,,,,,,,,,,,,
,678536750213,BCA,05/10/2001,001,2023-04-09_17h06.19.496,OS3_Mult_verification,2022.2.4,Win32,59.18560606,,,14,1.5134,1,"[""1"",""4"",""return""]","[0.7925999999642386,1.046999999999997,1.464099999964219]",0,7,7,6,1,14,,,,,,,,,,,,,,,,,,,,,,,,,,,,,,,,,,,,,,,,,,,,,,,,,,,,,,,,,,,,,,,,,,,,,,,,,,,,,,,,,,,,,,,,,,,,,,,,,,,,,,,,,,,,,,,,,,,,,,,,,,,,,,,,,,,,,,,,,,,,,,,,,,,,,,,,,,,,,,,,,
,678536750213,BCA,05/10/2001,001,2023-04-09_17h06.19.496,OS3_Mult_verification,2022.2.4,Win32,59.18560606,,,64,1.6244,1,"[""6"",""4"",""return""]","[1.1676999999880877,1.354899999976169,1.5723000000119214]",0,8,8,28,1,64,,,,,,,,,,,,,,,,,,,,,,,,,,,,,,,,,,,,,,,,,,,,,,,,,,,,,,,,,,,,,,,,,,,,,,,,,,,,,,,,,,,,,,,,,,,,,,,,,,,,,,,,,,,,,,,,,,,,,,,,,,,,,,,,,,,,,,,,,,,,,,,,,,,,,,,,,,,,,,,,,
,678536750213,BCA,05/10/2001,001,2023-04-09_17h06.19.496,OS3_Mult_verification,2022.2.4,Win32,59.18560606,,,30,1.7968,1,"[""3"",""0"",""return""]","[1.1260999999642252,1.3328999999761493,1.7496999999880813]",0,9,9,16,1,30,,,,,,,,,,,,,,,,,,,,,,,,,,,,,,,,,,,,,,,,,,,,,,,,,,,,,,,,,,,,,,,,,,,,,,,,,,,,,,,,,,,,,,,,,,,,,,,,,,,,,,,,,,,,,,,,,,,,,,,,,,,,,,,,,,,,,,,,,,,,,,,,,,,,,,,,,,,,,,,,,
,678536750213,BCA,05/10/2001,001,2023-04-09_17h06.19.496,OS3_Mult_verification,2022.2.4,Win32,59.18560606,,,56,1.3743,1,"[""5"",""6"",""return""]","[0.9461999999880959,1.1358000000119262,1.3125]",0,10,10,26,1,56,,,,,,,,,,,,,,,,,,,,,,,,,,,,,,,,,,,,,,,,,,,,,,,,,,,,,,,,,,,,,,,,,,,,,,,,,,,,,,,,,,,,,,,,,,,,,,,,,,,,,,,,,,,,,,,,,,,,,,,,,,,,,,,,,,,,,,,,,,,,,,,,,,,,,,,,,,,,,,,,,
,678536750213,BCA,05/10/2001,001,2023-04-09_17h06.19.496,OS3_Mult_verification,2022.2.4,Win32,59.18560606,,,48,1.5978,1,"[""4"",""8"",""return""]","[0.9506999999880748,1.2301999999880593,1.5540999999642224]",0,11,11,23,1,48,,,,,,,,,,,,,,,,,,,,,,,,,,,,,,,,,,,,,,,,,,,,,,,,,,,,,,,,,,,,,,,,,,,,,,,,,,,,,,,,,,,,,,,,,,,,,,,,,,,,,,,,,,,,,,,,,,,,,,,,,,,,,,,,,,,,,,,,,,,,,,,,,,,,,,,,,,,,,,,,,
,678536750213,BCA,05/10/2001,001,2023-04-09_17h06.19.496,OS3_Mult_verification,2022.2.4,Win32,59.18560606,,,54,1.5844,1,"[""5"",""4"",""return""]","[1.001499999999993,1.1509000000357616,1.5403000000119107]",0,12,12,25,1,54,,,,,,,,,,,,,,,,,,,,,,,,,,,,,,,,,,,,,,,,,,,,,,,,,,,,,,,,,,,,,,,,,,,,,,,,,,,,,,,,,,,,,,,,,,,,,,,,,,,,,,,,,,,,,,,,,,,,,,,,,,,,,,,,,,,,,,,,,,,,,,,,,,,,,,,,,,,,,,,,,
,678536750213,BCA,05/10/2001,001,2023-04-09_17h06.19.496,OS3_Mult_verification,2022.2.4,Win32,59.18560606,,,18,1.6509,1,"[""1"",""8"",""return""]","[0.8341999999880727,1.3901999999880843,1.604199999988083]",0,13,13,9,1,18,,,,,,,,,,,,,,,,,,,,,,,,,,,,,,,,,,,,,,,,,,,,,,,,,,,,,,,,,,,,,,,,,,,,,,,,,,,,,,,,,,,,,,,,,,,,,,,,,,,,,,,,,,,,,,,,,,,,,,,,,,,,,,,,,,,,,,,,,,,,,,,,,,,,,,,,,,,,,,,,,
,678536750213,BCA,05/10/2001,001,2023-04-09_17h06.19.496,OS3_Mult_verification,2022.2.4,Win32,59.18560606,,,20,1.5673,1,"[""2"",""0"",""return""]","[0.9314000000357794,1.1048000000119202,1.5209000000357662]",0,14,14,10,1,20,,,,,,,,,,,,,,,,,,,,,,,,,,,,,,,,,,,,,,,,,,,,,,,,,,,,,,,,,,,,,,,,,,,,,,,,,,,,,,,,,,,,,,,,,,,,,,,,,,,,,,,,,,,,,,,,,,,,,,,,,,,,,,,,,,,,,,,,,,,,,,,,,,,,,,,,,,,,,,,,,
,678536750213,BCA,05/10/2001,001,2023-04-09_17h06.19.496,OS3_Mult_verification,2022.2.4,Win32,59.18560606,,,15,1.3117,1,"[""1"",""5"",""return""]","[0.8129000000357678,0.9222000000476953,1.2629000000357564]",0,15,15,7,1,15,,,,,,,,,,,,,,,,,,,,,,,,,,,,,,,,,,,,,,,,,,,,,,,,,,,,,,,,,,,,,,,,,,,,,,,,,,,,,,,,,,,,,,,,,,,,,,,,,,,,,,,,,,,,,,,,,,,,,,,,,,,,,,,,,,,,,,,,,,,,,,,,,,,,,,,,,,,,,,,,,
,678536750213,BCA,05/10/2001,001,2023-04-09_17h06.19.496,OS3_Mult_verification,2022.2.4,Win32,59.18560606,,,49,1.7546,1,"[""4"",""9"",""return""]","[0.9495999999642493,1.1574999999999989,1.7079999999999984]",0,16,16,24,1,49,,,,,,,,,,,,,,,,,,,,,,,,,,,,,,,,,,,,,,,,,,,,,,,,,,,,,,,,,,,,,,,,,,,,,,,,,,,,,,,,,,,,,,,,,,,,,,,,,,,,,,,,,,,,,,,,,,,,,,,,,,,,,,,,,,,,,,,,,,,,,,,,,,,,,,,,,,,,,,,,,
,678536750213,BCA,05/10/2001,001,2023-04-09_17h06.19.496,OS3_Mult_verification,2022.2.4,Win32,59.18560606,,,63,2.145,1,"[""6"",""3"",""return""]","[1.4388999999761722,1.6671999999880711,2.1017999999523056]",0,17,17,27,1,63,,,,,,,,,,,,,,,,,,,,,,,,,,,,,,,,,,,,,,,,,,,,,,,,,,,,,,,,,,,,,,,,,,,,,,,,,,,,,,,,,,,,,,,,,,,,,,,,,,,,,,,,,,,,,,,,,,,,,,,,,,,,,,,,,,,,,,,,,,,,,,,,,,,,,,,,,,,,,,,,,
,678536750213,BCA,05/10/2001,001,2023-04-09_17h06.19.496,OS3_Mult_verification,2022.2.4,Win32,59.18560606,,,6,1.1445,1,"[""6"",""return""]","[0.9313000000119018,1.1045000000000016]",0,18,18,1,1,6,,,,,,,,,,,,,,,,,,,,,,,,,,,,,,,,,,,,,,,,,,,,,,,,,,,,,,,,,,,,,,,,,,,,,,,,,,,,,,,,,,,,,,,,,,,,,,,,,,,,,,,,,,,,,,,,,,,,,,,,,,,,,,,,,,,,,,,,,,,,,,,,,,,,,,,,,,,,,,,,,
,678536750213,BCA,05/10/2001,001,2023-04-09_17h06.19.496,OS3_Mult_verification,2022.2.4,Win32,59.18560606,,,8,1.4363,1,"[""8"",""return""]","[1.1285000000000025,1.3806000000238612]",0,19,19,2,1,8,,,,,,,,,,,,,,,,,,,,,,,,,,,,,,,,,,,,,,,,,,,,,,,,,,,,,,,,,,,,,,,,,,,,,,,,,,,,,,,,,,,,,,,,,,,,,,,,,,,,,,,,,,,,,,,,,,,,,,,,,,,,,,,,,,,,,,,,,,,,,,,,,,,,,,,,,,,,,,,,,
,678536750213,BCA,05/10/2001,001,2023-04-09_17h06.19.496,OS3_Mult_verification,2022.2.4,Win32,59.18560606,,,10,1.3389,1,"[""1"",""0"",""return""]","[0.8135000000000048,0.9588000000119337,1.2913000000119155]",0,20,20,4,1,10,,,,,,,,,,,,,,,,,,,,,,,,,,,,,,,,,,,,,,,,,,,,,,,,,,,,,,,,,,,,,,,,,,,,,,,,,,,,,,,,,,,,,,,,,,,,,,,,,,,,,,,,,,,,,,,,,,,,,,,,,,,,,,,,,,,,,,,,,,,,,,,,,,,,,,,,,,,,,,,,,
,678536750213,BCA,05/10/2001,001,2023-04-09_17h06.19.496,OS3_Mult_verification,2022.2.4,Win32,59.18560606,,,42,1.541,1,"[""4"",""2"",""return""]","[1.00209999996423,1.1893999999761604,1.4785999999642456]",0,21,21,21,1,42,,,,,,,,,,,,,,,,,,,,,,,,,,,,,,,,,,,,,,,,,,,,,,,,,,,,,,,,,,,,,,,,,,,,,,,,,,,,,,,,,,,,,,,,,,,,,,,,,,,,,,,,,,,,,,,,,,,,,,,,,,,,,,,,,,,,,,,,,,,,,,,,,,,,,,,,,,,,,,,,,
,678536750213,BCA,05/10/2001,001,2023-04-09_17h06.19.496,OS3_Mult_verification,2022.2.4,Win32,59.18560606,,,36,1.7282,1,"[""3"",""6"",""return""]","[0.959200000047673,1.1114000000357578,1.666499999999985]",0,22,22,19,1,36,,,,,,,,,,,,,,,,,,,,,,,,,,,,,,,,,,,,,,,,,,,,,,,,,,,,,,,,,,,,,,,,,,,,,,,,,,,,,,,,,,,,,,,,,,,,,,,,,,,,,,,,,,,,,,,,,,,,,,,,,,,,,,,,,,,,,,,,,,,,,,,,,,,,,,,,,,,,,,,,,
,678536750213,BCA,05/10/2001,001,2023-04-09_17h06.19.496,OS3_Mult_verification,2022.2.4,Win32,59.18560606,,,21,1.2495,1,"[""2"",""1"",""return""]","[0.8142000000476628,0.9439999999999884,1.1924999999999955]",0,23,23,11,1,21,,,,,,,,,,,,,,,,,,,,,,,,,,,,,,,,,,,,,,,,,,,,,,,,,,,,,,,,,,,,,,,,,,,,,,,,,,,,,,,,,,,,,,,,,,,,,,,,,,,,,,,,,,,,,,,,,,,,,,,,,,,,,,,,,,,,,,,,,,,,,,,,,,,,,,,,,,,,,,,,,
,678536750213,BCA,05/10/2001,001,2023-04-09_17h06.19.496,OS3_Mult_verification,2022.2.4,Win32,59.18560606,,,81,1.7907,1,"[""8"",""1"",""return""]","[1.2091999999880727,1.3753999999761675,1.73599999999999]",0,24,24,30,1,81,,,,,,,,,,,,,,,,,,,,,,,,,,,,,,,,,,,,,,,,,,,,,,,,,,,,,,,,,,,,,,,,,,,,,,,,,,,,,,,,,,,,,,,,,,,,,,,,,,,,,,,,,,,,,,,,,,,,,,,,,,,,,,,,,,,,,,,,,,,,,,,,,,,,,,,,,,,,,,,,,
,678536750213,BCA,05/10/2001,001,2023-04-09_17h06.19.496,OS3_Mult_verification,2022.2.4,Win32,59.18560606,,,32,1.2428,1,"[""3"",""2"",""return""]","[0.8158999999761534,0.9796999999880711,1.1932999999523304]",0,25,25,17,1,32,,,,,,,,,,,,,,,,,,,,,,,,,,,,,,,,,,,,,,,,,,,,,,,,,,,,,,,,,,,,,,,,,,,,,,,,,,,,,,,,,,,,,,,,,,,,,,,,,,,,,,,,,,,,,,,,,,,,,,,,,,,,,,,,,,,,,,,,,,,,,,,,,,,,,,,,,,,,,,,,,
,678536750213,BCA,05/10/2001,001,2023-04-09_17h06.19.496,OS3_Mult_verification,2022.2.4,Win32,59.18560606,,,40,1.5201,1,"[""4"",""0"",""return""]","[0.9834999999999923,1.1413000000119098,1.4639999999999986]",0,26,26,20,1,40,,,,,,,,,,,,,,,,,,,,,,,,,,,,,,,,,,,,,,,,,,,,,,,,,,,,,,,,,,,,,,,,,,,,,,,,,,,,,,,,,,,,,,,,,,,,,,,,,,,,,,,,,,,,,,,,,,,,,,,,,,,,,,,,,,,,,,,,,,,,,,,,,,,,,,,,,,,,,,,,,
,678536750213,BCA,05/10/2001,001,2023-04-09_17h06.19.496,OS3_Mult_verification,2022.2.4,Win32,59.18560606,,,9,1.1603,1,"[""9"",""return""]","[0.8966999999880727,1.1143999999761718]",0,27,27,3,1,9,,,,,,,,,,,,,,,,,,,,,,,,,,,,,,,,,,,,,,,,,,,,,,,,,,,,,,,,,,,,,,,,,,,,,,,,,,,,,,,,,,,,,,,,,,,,,,,,,,,,,,,,,,,,,,,,,,,,,,,,,,,,,,,,,,,,,,,,,,,,,,,,,,,,,,,,,,,,,,,,,
,678536750213,BCA,05/10/2001,001,2023-04-09_17h06.19.496,OS3_Mult_verification,2022.2.4,Win32,59.18560606,,,28,1.5253,1,"[""2"",""8"",""return""]","[0.9281999999880952,1.1030000000000086,1.4784999999999968]",0,28,28,15,1,28,,,,,,,,,,,,,,,,,,,,,,,,,,,,,,,,,,,,,,,,,,,,,,,,,,,,,,,,,,,,,,,,,,,,,,,,,,,,,,,,,,,,,,,,,,,,,,,,,,,,,,,,,,,,,,,,,,,,,,,,,,,,,,,,,,,,,,,,,,,,,,,,,,,,,,,,,,,,,,,,,
,678536750213,BCA,05/10/2001,001,2023-04-09_17h06.19.496,OS3_Mult_verification,2022.2.4,Win32,59.18560606,,,16,1.3891,1,"[""1"",""6"",""return""]","[0.7553000000119141,0.9215000000000089,1.3429999999999893]",0,29,29,8,1,16,,,,,,,,,,,,,,,,,,,,,,,,,,,,,,,,,,,,,,,,,,,,,,,,,,,,,,,,,,,,,,,,,,,,,,,,,,,,,,,,,,,,,,,,,,,,,,,,,,,,,,,,,,,,,,,,,,,,,,,,,,,,,,,,,,,,,,,,,,,,,,,,,,,,,,,,,,,,,,,,,
,678536750213,BCA,05/10/2001,001,2023-04-09_17h06.19.496,OS3_Mult_verification,2022.2.4,Win32,59.18560606,,,4,1.1238,1,"[""4"",""return""]","[0.8751999999880695,1.0828000000119289]",0,30,30,0,1,4,,,,,,,,,,,,,,,,,,,,,,,,,,,,,,,,,,,,,,,,,,,,,,,,,,,,,,,,,,,,,,,,,,,,,,,,,,,,,,,,,,,,,,,,,,,,,,,,,,,,,,,,,,,,,,,,,,,,,,,,,,,,,,,,,,,,,,,,,,,,,,,,,,,,,,,,,,,,,,,,,
,678536750213,BCA,05/10/2001,001,2023-04-09_17h06.19.496,OS3_Mult_verification,2022.2.4,Win32,59.18560606,,,35,1.3173,1,"[""3"",""5"",""return""]","[0.7929000000357576,0.9624000000357569,1.2706000000238191]",1,0,31,18,1,35,,,,,,,,,,,,,,,,,,,,,,,,,,,,,,,,,,,,,,,,,,,,,,,,,,,,,,,,,,,,,,,,,,,,,,,,,,,,,,,,,,,,,,,,,,,,,,,,,,,,,,,,,,,,,,,,,,,,,,,,,,,,,,,,,,,,,,,,,,,,,,,,,,,,,,,,,,,,,,,,,
,678536750213,BCA,05/10/2001,001,2023-04-09_17h06.19.496,OS3_Mult_verification,2022.2.4,Win32,59.18560606,,,63,1.8111,1,"[""6"",""3"",""return""]","[1.284699999988078,1.4800999999642386,1.7522999999523279]",1,1,32,27,1,63,,,,,,,,,,,,,,,,,,,,,,,,,,,,,,,,,,,,,,,,,,,,,,,,,,,,,,,,,,,,,,,,,,,,,,,,,,,,,,,,,,,,,,,,,,,,,,,,,,,,,,,,,,,,,,,,,,,,,,,,,,,,,,,,,,,,,,,,,,,,,,,,,,,,,,,,,,,,,,,,,
,678536750213,BCA,05/10/2001,001,2023-04-09_17h06.19.496,OS3_Mult_verification,2022.2.4,Win32,59.18560606,,,15,1.3949,1,"[""1"",""5"",""return""]","[0.7536000000238516,1.1398000000119453,1.3376000000238548]",1,2,33,7,1,15,,,,,,,,,,,,,,,,,,,,,,,,,,,,,,,,,,,,,,,,,,,,,,,,,,,,,,,,,,,,,,,,,,,,,,,,,,,,,,,,,,,,,,,,,,,,,,,,,,,,,,,,,,,,,,,,,,,,,,,,,,,,,,,,,,,,,,,,,,,,,,,,,,,,,,,,,,,,,,,,,
,678536750213,BCA,05/10/2001,001,2023-04-09_17h06.19.496,OS3_Mult_verification,2022.2.4,Win32,59.18560606,,,64,1.8328,1,"[""6"",""4"",""return""]","[1.4364000000357748,1.5848000000119384,1.781100000023855]",1,3,34,28,1,64,,,,,,,,,,,,,,,,,,,,,,,,,,,,,,,,,,,,,,,,,,,,,,,,,,,,,,,,,,,,,,,,,,,,,,,,,,,,,,,,,,,,,,,,,,,,,,,,,,,,,,,,,,,,,,,,,,,,,,,,,,,,,,,,,,,,,,,,,,,,,,,,,,,,,,,,,,,,,,,,,
,678536750213,BCA,05/10/2001,001,2023-04-09_17h06.19.496,OS3_Mult_verification,2022.2.4,Win32,59.18560606,,,16,1.3953,1,"[""1"",""6"",""return""]","[0.8132000000476864,1.1261000000238255,1.3463000000119223]",1,4,35,8,1,16,,,,,,,,,,,,,,,,,,,,,,,,,,,,,,,,,,,,,,,,,,,,,,,,,,,,,,,,,,,,,,,,,,,,,,,,,,,,,,,,,,,,,,,,,,,,,,,,,,,,,,,,,,,,,,,,,,,,,,,,,,,,,,,,,,,,,,,,,,,,,,,,,,,,,,,,,,,,,,,,,
,678536750213,BCA,05/10/2001,001,2023-04-09_17h06.19.496,OS3_Mult_verification,2022.2.4,Win32,59.18560606,,,32,3.228,1,"[""backspace"",""backspace"",""backspace"",""3"",""2"",""return""]","[0.8266000000238307,1.1049000000357694,1.4044000000357642,2.3966000000238523,2.545900000035772,3.1776000000238582]",1,5,36,17,1,32,,,,,,,,,,,,,,,,,,,,,,,,,,,,,,,,,,,,,,,,,,,,,,,,,,,,,,,,,,,,,,,,,,,,,,,,,,,,,,,,,,,,,,,,,,,,,,,,,,,,,,,,,,,,,,,,,,,,,,,,,,,,,,,,,,,,,,,,,,,,,,,,,,,,,,,,,,,,,,,,,
,678536750213,BCA,05/10/2001,001,2023-04-09_17h06.19.496,OS3_Mult_verification,2022.2.4,Win32,59.18560606,,,45,1.6244,1,"[""4"",""5"",""return""]","[1.107899999976155,1.3483999999761522,1.5656999999880838]",1,6,37,22,1,45,,,,,,,,,,,,,,,,,,,,,,,,,,,,,,,,,,,,,,,,,,,,,,,,,,,,,,,,,,,,,,,,,,,,,,,,,,,,,,,,,,,,,,,,,,,,,,,,,,,,,,,,,,,,,,,,,,,,,,,,,,,,,,,,,,,,,,,,,,,,,,,,,,,,,,,,,,,,,,,,,
,678536750213,BCA,05/10/2001,001,2023-04-09_17h06.19.496,OS3_Mult_verification,2022.2.4,Win32,59.18560606,,,81,2.0364,1,"[""8"",""1"",""return""]","[1.1481999999880657,1.763699999988063,1.9936999999880811]",1,7,38,30,1,81,,,,,,,,,,,,,,,,,,,,,,,,,,,,,,,,,,,,,,,,,,,,,,,,,,,,,,,,,,,,,,,,,,,,,,,,,,,,,,,,,,,,,,,,,,,,,,,,,,,,,,,,,,,,,,,,,,,,,,,,,,,,,,,,,,,,,,,,,,,,,,,,,,,,,,,,,,,,,,,,,
,678536750213,BCA,05/10/2001,001,2023-04-09_17h06.19.496,OS3_Mult_verification,2022.2.4,Win32,59.18560606,,,21,1.3947,1,"[""2"",""1"",""return""]","[0.8765999999642133,1.0574999999999761,1.3441999999880636]",1,8,39,11,1,21,,,,,,,,,,,,,,,,,,,,,,,,,,,,,,,,,,,,,,,,,,,,,,,,,,,,,,,,,,,,,,,,,,,,,,,,,,,,,,,,,,,,,,,,,,,,,,,,,,,,,,,,,,,,,,,,,,,,,,,,,,,,,,,,,,,,,,,,,,,,,,,,,,,,,,,,,,,,,,,,,
,678536750213,BCA,05/10/2001,001,2023-04-09_17h06.19.496,OS3_Mult_verification,2022.2.4,Win32,59.18560606,,,20,1.4576,1,"[""2"",""0"",""return""]","[0.6280000000000143,1.1303000000119425,1.3973000000119384]",1,9,40,10,1,20,,,,,,,,,,,,,,,,,,,,,,,,,,,,,,,,,,,,,,,,,,,,,,,,,,,,,,,,,,,,,,,,,,,,,,,,,,,,,,,,,,,,,,,,,,,,,,,,,,,,,,,,,,,,,,,,,,,,,,,,,,,,,,,,,,,,,,,,,,,,,,,,,,,,,,,,,,,,,,,,,
,678536750213,BCA,05/10/2001,001,2023-04-09_17h06.19.496,OS3_Mult_verification,2022.2.4,Win32,59.18560606,,,72,1.7076,1,"[""7"",""2"",""return""]","[1.1189000000357794,1.4798000000119202,1.6510000000000105]",1,10,41,29,1,72,,,,,,,,,,,,,,,,,,,,,,,,,,,,,,,,,,,,,,,,,,,,,,,,,,,,,,,,,,,,,,,,,,,,,,,,,,,,,,,,,,,,,,,,,,,,,,,,,,,,,,,,,,,,,,,,,,,,,,,,,,,,,,,,,,,,,,,,,,,,,,,,,,,,,,,,,,,,,,,,,
,678536750213,BCA,05/10/2001,001,2023-04-09_17h06.19.496,OS3_Mult_verification,2022.2.4,Win32,59.18560606,,,27,1.2497,1,"[""2"",""7"",""return""]","[0.7311999999880641,0.9809999999999945,1.1900999999642181]",1,11,42,14,1,27,,,,,,,,,,,,,,,,,,,,,,,,,,,,,,,,,,,,,,,,,,,,,,,,,,,,,,,,,,,,,,,,,,,,,,,,,,,,,,,,,,,,,,,,,,,,,,,,,,,,,,,,,,,,,,,,,,,,,,,,,,,,,,,,,,,,,,,,,,,,,,,,,,,,,,,,,,,,,,,,,
,678536750213,BCA,05/10/2001,001,2023-04-09_17h06.19.496,OS3_Mult_verification,2022.2.4,Win32,59.18560606,,,25,1.2556,1,"[""2"",""5"",""return""]","[0.8785000000000025,1.0425999999642386,1.1995999999642208]",1,12,43,13,1,25,,,,,,,,,,,,,,,,,,,,,,,,,,,,,,,,,,,,,,,,,,,,,,,,,,,,,,,,,,,,,,,,,,,,,,,,,,,,,,,,,,,,,,,,,,,,,,,,,,,,,,,,,,,,,,,,,,,,,,,,,,,,,,,,,,,,,,,,,,,,,,,,,,,,,,,,,,,,,,,,,
,678536750213,BCA,05/10/2001,001,2023-04-09_17h06.19.496,OS3_Mult_verification,2022.2.4,Win32,59.18560606,,,14,1.3325,1,"[""1"",""4"",""return""]","[0.6735000000000184,0.8967999999523215,1.2770999999642356]",1,13,44,6,1,14,,,,,,,,,,,,,,,,,,,,,,,,,,,,,,,,,,,,,,,,,,,,,,,,,,,,,,,,,,,,,,,,,,,,,,,,,,,,,,,,,,,,,,,,,,,,,,,,,,,,,,,,,,,,,,,,,,,,,,,,,,,,,,,,,,,,,,,,,,,,,,,,,,,,,,,,,,,,,,,,,
,678536750213,BCA,05/10/2001,001,2023-04-09_17h06.19.496,OS3_Mult_verification,2022.2.4,Win32,59.18560606,,,36,1.5828,1,"[""3"",""6"",""return""]","[0.9620000000000175,1.2714000000357828,1.529600000023862]",1,14,45,19,1,36,,,,,,,,,,,,,,,,,,,,,,,,,,,,,,,,,,,,,,,,,,,,,,,,,,,,,,,,,,,,,,,,,,,,,,,,,,,,,,,,,,,,,,,,,,,,,,,,,,,,,,,,,,,,,,,,,,,,,,,,,,,,,,,,,,,,,,,,,,,,,,,,,,,,,,,,,,,,,,,,,
,678536750213,BCA,05/10/2001,001,2023-04-09_17h06.19.496,OS3_Mult_verification,2022.2.4,Win32,59.18560606,,,28,2.0465,1,"[""2"",""8"",""return""]","[1.1801000000238275,1.753699999988072,2.0003000000119187]",1,15,46,15,1,28,,,,,,,,,,,,,,,,,,,,,,,,,,,,,,,,,,,,,,,,,,,,,,,,,,,,,,,,,,,,,,,,,,,,,,,,,,,,,,,,,,,,,,,,,,,,,,,,,,,,,,,,,,,,,,,,,,,,,,,,,,,,,,,,,,,,,,,,,,,,,,,,,,,,,,,,,,,,,,,,,
,678536750213,BCA,05/10/2001,001,2023-04-09_17h06.19.496,OS3_Mult_verification,2022.2.4,Win32,59.18560606,,,18,1.6185,1,"[""1"",""8"",""return""]","[0.7371999999880643,1.3806000000238328,1.5674999999999955]",1,16,47,9,1,18,,,,,,,,,,,,,,,,,,,,,,,,,,,,,,,,,,,,,,,,,,,,,,,,,,,,,,,,,,,,,,,,,,,,,,,,,,,,,,,,,,,,,,,,,,,,,,,,,,,,,,,,,,,,,,,,,,,,,,,,,,,,,,,,,,,,,,,,,,,,,,,,,,,,,,,,,,,,,,,,,
,678536750213,BCA,05/10/2001,001,2023-04-09_17h06.19.496,OS3_Mult_verification,2022.2.4,Win32,59.18560606,,,48,1.7338,1,"[""4"",""8"",""return""]","[1.199800000011919,1.4799999999999898,1.6881000000238373]",1,17,48,23,1,48,,,,,,,,,,,,,,,,,,,,,,,,,,,,,,,,,,,,,,,,,,,,,,,,,,,,,,,,,,,,,,,,,,,,,,,,,,,,,,,,,,,,,,,,,,,,,,,,,,,,,,,,,,,,,,,,,,,,,,,,,,,,,,,,,,,,,,,,,,,,,,,,,,,,,,,,,,,,,,,,,
,678536750213,BCA,05/10/2001,001,2023-04-09_17h06.19.496,OS3_Mult_verification,2022.2.4,Win32,59.18560606,,,30,1.8119,1,"[""3"",""0"",""return""]","[0.8553000000119084,1.3558000000118966,1.7583999999761488]",1,18,49,16,1,30,,,,,,,,,,,,,,,,,,,,,,,,,,,,,,,,,,,,,,,,,,,,,,,,,,,,,,,,,,,,,,,,,,,,,,,,,,,,,,,,,,,,,,,,,,,,,,,,,,,,,,,,,,,,,,,,,,,,,,,,,,,,,,,,,,,,,,,,,,,,,,,,,,,,,,,,,,,,,,,,,
,678536750213,BCA,05/10/2001,001,2023-04-09_17h06.19.496,OS3_Mult_verification,2022.2.4,Win32,59.18560606,,,40,1.4161,1,"[""4"",""0"",""return""]","[0.8340999999642236,1.1592999999523101,1.3750999999642204]",1,19,50,20,1,40,,,,,,,,,,,,,,,,,,,,,,,,,,,,,,,,,,,,,,,,,,,,,,,,,,,,,,,,,,,,,,,,,,,,,,,,,,,,,,,,,,,,,,,,,,,,,,,,,,,,,,,,,,,,,,,,,,,,,,,,,,,,,,,,,,,,,,,,,,,,,,,,,,,,,,,,,,,,,,,,,
,678536750213,BCA,05/10/2001,001,2023-04-09_17h06.19.496,OS3_Mult_verification,2022.2.4,Win32,59.18560606,,,24,1.645,1,"[""2"",""4"",""return""]","[0.8435000000000059,1.3141999999880625,1.5961999999880732]",1,20,51,12,1,24,,,,,,,,,,,,,,,,,,,,,,,,,,,,,,,,,,,,,,,,,,,,,,,,,,,,,,,,,,,,,,,,,,,,,,,,,,,,,,,,,,,,,,,,,,,,,,,,,,,,,,,,,,,,,,,,,,,,,,,,,,,,,,,,,,,,,,,,,,,,,,,,,,,,,,,,,,,,,,,,,
,678536750213,BCA,05/10/2001,001,2023-04-09_17h06.19.496,OS3_Mult_verification,2022.2.4,Win32,59.18560606,,,6,1.0827,1,"[""6"",""return""]","[0.8640999999642247,1.0295999999642333]",1,21,52,1,1,6,,,,,,,,,,,,,,,,,,,,,,,,,,,,,,,,,,,,,,,,,,,,,,,,,,,,,,,,,,,,,,,,,,,,,,,,,,,,,,,,,,,,,,,,,,,,,,,,,,,,,,,,,,,,,,,,,,,,,,,,,,,,,,,,,,,,,,,,,,,,,,,,,,,,,,,,,,,,,,,,,
,678536750213,BCA,05/10/2001,001,2023-04-09_17h06.19.496,OS3_Mult_verification,2022.2.4,Win32,59.18560606,,,42,1.6868,1,"[""4"",""2"",""return""]","[1.2510999999642252,1.4184999999999945,1.6346999999880722]",1,22,53,21,1,42,,,,,,,,,,,,,,,,,,,,,,,,,,,,,,,,,,,,,,,,,,,,,,,,,,,,,,,,,,,,,,,,,,,,,,,,,,,,,,,,,,,,,,,,,,,,,,,,,,,,,,,,,,,,,,,,,,,,,,,,,,,,,,,,,,,,,,,,,,,,,,,,,,,,,,,,,,,,,,,,,
,678536750213,BCA,05/10/2001,001,2023-04-09_17h06.19.496,OS3_Mult_verification,2022.2.4,Win32,59.18560606,,,9,1.087,1,"[""9"",""return""]","[0.8808999999761511,1.0362999999523197]",1,23,54,3,1,9,,,,,,,,,,,,,,,,,,,,,,,,,,,,,,,,,,,,,,,,,,,,,,,,,,,,,,,,,,,,,,,,,,,,,,,,,,,,,,,,,,,,,,,,,,,,,,,,,,,,,,,,,,,,,,,,,,,,,,,,,,,,,,,,,,,,,,,,,,,,,,,,,,,,,,,,,,,,,,,,,
,678536750213,BCA,05/10/2001,001,2023-04-09_17h06.19.496,OS3_Mult_verification,2022.2.4,Win32,59.18560606,,,49,1.7491,1,"[""4"",""9"",""return""]","[1.1453000000119005,1.4729999999999848,1.6968000000119048]",1,24,55,24,1,49,,,,,,,,,,,,,,,,,,,,,,,,,,,,,,,,,,,,,,,,,,,,,,,,,,,,,,,,,,,,,,,,,,,,,,,,,,,,,,,,,,,,,,,,,,,,,,,,,,,,,,,,,,,,,,,,,,,,,,,,,,,,,,,,,,,,,,,,,,,,,,,,,,,,,,,,,,,,,,,,,
,678536750213,BCA,05/10/2001,001,2023-04-09_17h06.19.496,OS3_Mult_verification,2022.2.4,Win32,59.18560606,,,10,1.4222,1,"[""1"",""0"",""return""]","[0.77439999997614,1.209100000023824,1.3741000000238444]",1,25,56,4,1,10,,,,,,,,,,,,,,,,,,,,,,,,,,,,,,,,,,,,,,,,,,,,,,,,,,,,,,,,,,,,,,,,,,,,,,,,,,,,,,,,,,,,,,,,,,,,,,,,,,,,,,,,,,,,,,,,,,,,,,,,,,,,,,,,,,,,,,,,,,,,,,,,,,,,,,,,,,,,,,,,,
,678536750213,BCA,05/10/2001,001,2023-04-09_17h06.19.496,OS3_Mult_verification,2022.2.4,Win32,59.18560606,,,56,1.2494,1,"[""5"",""6"",""return""]","[0.8673999999761577,1.0003999999761675,1.1920999999642277]",1,26,57,26,1,56,,,,,,,,,,,,,,,,,,,,,,,,,,,,,,,,,,,,,,,,,,,,,,,,,,,,,,,,,,,,,,,,,,,,,,,,,,,,,,,,,,,,,,,,,,,,,,,,,,,,,,,,,,,,,,,,,,,,,,,,,,,,,,,,,,,,,,,,,,,,,,,,,,,,,,,,,,,,,,,,,
,678536750213,BCA,05/10/2001,001,2023-04-09_17h06.19.496,OS3_Mult_verification,2022.2.4,Win32,59.18560606,,,12,1.2285,1,"[""1"",""2"",""return""]","[0.7926999999880593,0.9206999999880736,1.1732999999523201]",1,27,58,5,1,12,,,,,,,,,,,,,,,,,,,,,,,,,,,,,,,,,,,,,,,,,,,,,,,,,,,,,,,,,,,,,,,,,,,,,,,,,,,,,,,,,,,,,,,,,,,,,,,,,,,,,,,,,,,,,,,,,,,,,,,,,,,,,,,,,,,,,,,,,,,,,,,,,,,,,,,,,,,,,,,,,
,678536750213,BCA,05/10/2001,001,2023-04-09_17h06.19.496,OS3_Mult_verification,2022.2.4,Win32,59.18560606,,,8,1.0346,1,"[""8"",""return""]","[0.811299999952297,0.9931999999880645]",1,28,59,2,1,8,,,,,,,,,,,,,,,,,,,,,,,,,,,,,,,,,,,,,,,,,,,,,,,,,,,,,,,,,,,,,,,,,,,,,,,,,,,,,,,,,,,,,,,,,,,,,,,,,,,,,,,,,,,,,,,,,,,,,,,,,,,,,,,,,,,,,,,,,,,,,,,,,,,,,,,,,,,,,,,,,
,678536750213,BCA,05/10/2001,001,2023-04-09_17h06.19.496,OS3_Mult_verification,2022.2.4,Win32,59.18560606,,,4,0.9788,1,"[""4"",""return""]","[0.7299999999999898,0.9165000000000134]",1,29,60,0,1,4,,,,,,,,,,,,,,,,,,,,,,,,,,,,,,,,,,,,,,,,,,,,,,,,,,,,,,,,,,,,,,,,,,,,,,,,,,,,,,,,,,,,,,,,,,,,,,,,,,,,,,,,,,,,,,,,,,,,,,,,,,,,,,,,,,,,,,,,,,,,,,,,,,,,,,,,,,,,,,,,,
,678536750213,BCA,05/10/2001,001,2023-04-09_17h06.19.496,OS3_Mult_verification,2022.2.4,Win32,59.18560606,,,54,1.2967,1,"[""5"",""4"",""return""]","[0.8553999999761572,0.9800999999642386,1.229300000011932]",1,30,61,25,1,54,,,,,,,,,,,,,,,,,,,,,,,,,,,,,,,,,,,,,,,,,,,,,,,,,,,,,,,,,,,,,,,,,,,,,,,,,,,,,,,,,,,,,,,,,,,,,,,,,,,,,,,,,,,,,,,,,,,,,,,,,,,,,,,,,,,,,,,,,,,,,,,,,,,,,,,,,,,,,,,,,
,678536750213,BCA,05/10/2001,001,2023-04-09_17h06.19.496,OS3_Mult_verification,2022.2.4,Win32,59.18560606,,,,,,,,,,,,,,space,2.3201,,,,,,,,,,,,,,,,,,,,,,,,,,,,,,,,,,,,,,,,,,,,,,,,,,,,,,,,,,,,,,,,,,,,,,,,,,,,,,,,,,,,,,,,,,,,,,,,,,,,,,,,,,,,,,,,,,,,,,,,,,,,,,,,,,,,,,,,,,,,,,,,,,,,,,,,,,,,,,,
,678536750213,BCA,05/10/2001,001,2023-04-09_17h06.19.496,OS3_Mult_verification,2022.2.4,Win32,59.18560606,,,,,,,,,,,,,,,,,,,,,,,,,,,,,,,,,,,,,,,,,,,,,,,,,,,,,,,,,,,,,,,,,,,,,,,,,,,,,,,,,,,,,,,,,,,,,,,,,,,,,,,,,,,,,,,,,,,,,,,,,,,,,,,,,,,,,,,,,,,,,,,,,,,,,,,,,,,,,,,,,,,,,,,,,,,,,,
,678536750213,BCA,05/10/2001,001,2023-04-09_17h06.19.496,OS3_Mult_verification,2022.2.4,Win32,59.18560606,,,,,,,,,,,,,,,,space,3.088,,,,,,,,,,,,,,,,,,,,,,,,,,,,,,,,,,,,,,,,,,,,,,,,,,,,,,,,,,,,,,,,,,,,,,,,,,,,,,,,,,,,,,,,,,,,,,,,,,,,,,,,,,,,,,,,,,,,,,,,,,,,,,,,,,,,,,,,,,,,,,,,,,,,,,,,,,,,,
,678536750213,BCA,05/10/2001,001,2023-04-09_17h06.19.496,OS3_Mult_verification,2022.2.4,Win32,59.18560606,,,,,,,,,,,,,,,,,,20,2.1569,1,"[""2"",""0"",""return""]","[1.3774000000357773,1.521400000035726,1.8349999999999795]",0,0,0,1,1,2 × 10 =,20,,,,,,,,,,,,,,,,,,,,,,,,,,,,,,,,,,,,,,,,,,,,,,,,,,,,,,,,,,,,,,,,,,,,,,,,,,,,,,,,,,,,,,,,,,,,,,,,,,,,,,,,,,,,,,,,,,,,,,,,,,,,,,,,,,,,,,,,,,,,,,,,,
,678536750213,BCA,05/10/2001,001,2023-04-09_17h06.19.496,OS3_Mult_verification,2022.2.4,Win32,59.18560606,,,,,,,,,,,,,,,,,,7,1.629,1,"[""7"",""return""]","[1.1315000000000168,1.3276999999881127]",0,1,1,0,1,1 × 7 =,7,,,,,,,,,,,,,,,,,,,,,,,,,,,,,,,,,,,,,,,,,,,,,,,,,,,,,,,,,,,,,,,,,,,,,,,,,,,,,,,,,,,,,,,,,,,,,,,,,,,,,,,,,,,,,,,,,,,,,,,,,,,,,,,,,,,,,,,,,,,,,,,,,
,678536750213,BCA,05/10/2001,001,2023-04-09_17h06.19.496,OS3_Mult_verification,2022.2.4,Win32,59.18560606,,,,,,,,,,,,,,,,,,22,1.5192,1,"[""2"",""2"",""return""]","[0.8786000000238232,0.9991000000238159,1.2158000000118818]",0,2,2,2,1,2 × 11 =,22,,,,,,,,,,,,,,,,,,,,,,,,,,,,,,,,,,,,,,,,,,,,,,,,,,,,,,,,,,,,,,,,,,,,,,,,,,,,,,,,,,,,,,,,,,,,,,,,,,,,,,,,,,,,,,,,,,,,,,,,,,,,,,,,,,,,,,,,,,,,,,,,,
,678536750213,BCA,05/10/2001,001,2023-04-09_17h06.19.496,OS3_Mult_verification,2022.2.4,Win32,59.18560606,,,,,,,,,,,,,,,,,,,,,,,,,,,,,,,,,,,,,,,,,,,,,,,,,,,,,,,,,,,,,,,,,,,,,,,,,,,,,,,,,,,,,,,,,,,,,,,,,,,,,,,,,,,,,,,,,,,,,,,,,,,,,,,,,,,,,,,,,,,,,,,,,,,,,,,,,,,,,,,,,,,,,,,,,,,,,,
,678536750213,BCA,05/10/2001,001,2023-04-09_17h06.19.496,OS3_Mult_verification,2022.2.4,Win32,59.18560606,,,,,,,,,,,,,,,,,,,,,,,,,,,,,,,,,,,,,,,,,,,,,,,,,,,,,,,,,,,,,,,,,,,,,,,,,,,,,,,,,,,,,,,,,,,,,,,,,,,,,,,,,,,,,,,,,,,,,,,,,,,,,,,,,,,,,,,,,,,,,,,,,,,,,,,,,,,,,,,,,,,,,,,,,,,,,,
,678536750213,BCA,05/10/2001,001,2023-04-09_17h06.19.496,OS3_Mult_verification,2022.2.4,Win32,59.18560606,,,,,,,,,,,,,,,,,,6,1.7631,1,"[""6"",""return""]","[1.301499999999976,1.460599999964245]",,,,,,2 × 3 =,6,0,0,0,0,1,,,,,,,,,,,,,,,,,,,,,,,,,,,,,,,,,,,,,,,,,,,,,,,,,,,,,,,,,,,,,,,,,,,,,,,,,,,,,,,,,,,,,,,,,,,,,,,,,,,,,,,,,,,,,,,,,,,,,,,,,,,,,,,,,,,,,,,,,,,,
,678536750213,BCA,05/10/2001,001,2023-04-09_17h06.19.496,OS3_Mult_verification,2022.2.4,Win32,59.18560606,,,,,,,,,,,,,,,,,,40,2.6454,1,"[""4"",""0"",""return""]","[1.6826000000237968,2.0152000000476846,2.3421000000238337]",,,,,,5 × 8 =,40,0,1,1,1,1,,,,,,,,,,,,,,,,,,,,,,,,,,,,,,,,,,,,,,,,,,,,,,,,,,,,,,,,,,,,,,,,,,,,,,,,,,,,,,,,,,,,,,,,,,,,,,,,,,,,,,,,,,,,,,,,,,,,,,,,,,,,,,,,,,,,,,,,,,,,
,678536750213,BCA,05/10/2001,001,2023-04-09_17h06.19.496,OS3_Mult_verification,2022.2.4,Win32,59.18560606,,,,,,,,,,,,,,,,,,12,1.5487,1,"[""1"",""2"",""return""]","[0.932300000011935,1.0383000000119296,1.2441000000238205]",,,,,,3 × 4 =,12,0,2,2,2,1,,,,,,,,,,,,,,,,,,,,,,,,,,,,,,,,,,,,,,,,,,,,,,,,,,,,,,,,,,,,,,,,,,,,,,,,,,,,,,,,,,,,,,,,,,,,,,,,,,,,,,,,,,,,,,,,,,,,,,,,,,,,,,,,,,,,,,,,,,,,
,678536750213,BCA,05/10/2001,001,2023-04-09_17h06.19.496,OS3_Mult_verification,2022.2.4,Win32,59.18560606,,,,,,,,,,,,,,,,,,15,1.5403,1,"[""1"",""5"",""return""]","[0.8096999999880836,1.0379000000357905,1.2250000000000227]",,,,,,5 × 3 =,15,0,3,3,3,1,,,,,,,,,,,,,,,,,,,,,,,,,,,,,,,,,,,,,,,,,,,,,,,,,,,,,,,,,,,,,,,,,,,,,,,,,,,,,,,,,,,,,,,,,,,,,,,,,,,,,,,,,,,,,,,,,,,,,,,,,,,,,,,,,,,,,,,,,,,,
,678536750213,BCA,05/10/2001,001,2023-04-09_17h06.19.496,OS3_Mult_verification,2022.2.4,Win32,59.18560606,,,,,,,,,,,,,,,,,,8,1.6866,1,"[""8"",""return""]","[1.1825999999642818,1.4003999999761731]",,,,,,2 × 4 =,8,0,4,4,4,1,,,,,,,,,,,,,,,,,,,,,,,,,,,,,,,,,,,,,,,,,,,,,,,,,,,,,,,,,,,,,,,,,,,,,,,,,,,,,,,,,,,,,,,,,,,,,,,,,,,,,,,,,,,,,,,,,,,,,,,,,,,,,,,,,,,,,,,,,,,,
,678536750213,BCA,05/10/2001,001,2023-04-09_17h06.19.496,OS3_Mult_verification,2022.2.4,Win32,59.18560606,,,,,,,,,,,,,,,,,,4,1.3748,1,"[""4"",""return""]","[0.8816999999880863,1.0845999999642686]",,,,,,2 × 2 =,4,0,5,5,5,1,,,,,,,,,,,,,,,,,,,,,,,,,,,,,,,,,,,,,,,,,,,,,,,,,,,,,,,,,,,,,,,,,,,,,,,,,,,,,,,,,,,,,,,,,,,,,,,,,,,,,,,,,,,,,,,,,,,,,,,,,,,,,,,,,,,,,,,,,,,,
,678536750213,BCA,05/10/2001,001,2023-04-09_17h06.19.496,OS3_Mult_verification,2022.2.4,Win32,59.18560606,,,,,,,,,,,,,,,,,,20,1.9786,1,"[""2"",""0"",""return""]","[1.194799999952295,1.4852999999523036,1.660299999952315]",,,,,,4 × 5 =,20,0,6,6,6,1,,,,,,,,,,,,,,,,,,,,,,,,,,,,,,,,,,,,,,,,,,,,,,,,,,,,,,,,,,,,,,,,,,,,,,,,,,,,,,,,,,,,,,,,,,,,,,,,,,,,,,,,,,,,,,,,,,,,,,,,,,,,,,,,,,,,,,,,,,,,
,678536750213,BCA,05/10/2001,001,2023-04-09_17h06.19.496,OS3_Mult_verification,2022.2.4,Win32,59.18560606,,,,,,,,,,,,,,,,,,9,1.604,1,"[""9"",""return""]","[1.0606000000238396,1.285400000035736]",,,,,,3 × 3 =,9,0,7,7,7,1,,,,,,,,,,,,,,,,,,,,,,,,,,,,,,,,,,,,,,,,,,,,,,,,,,,,,,,,,,,,,,,,,,,,,,,,,,,,,,,,,,,,,,,,,,,,,,,,,,,,,,,,,,,,,,,,,,,,,,,,,,,,,,,,,,,,,,,,,,,,
,678536750213,BCA,05/10/2001,001,2023-04-09_17h06.19.496,OS3_Mult_verification,2022.2.4,Win32,59.18560606,,,,,,,,,,,,,,,,,,10,1.603,1,"[""1"",""0"",""return""]","[0.7703999999761777,1.145600000023876,1.3026000000238582]",,,,,,5 × 2 =,10,0,8,8,8,1,,,,,,,,,,,,,,,,,,,,,,,,,,,,,,,,,,,,,,,,,,,,,,,,,,,,,,,,,,,,,,,,,,,,,,,,,,,,,,,,,,,,,,,,,,,,,,,,,,,,,,,,,,,,,,,,,,,,,,,,,,,,,,,,,,,,,,,,,,,,
,678536750213,BCA,05/10/2001,001,2023-04-09_17h06.19.496,OS3_Mult_verification,2022.2.4,Win32,59.18560606,,,,,,,,,,,,,,,,,,16,1.7491,1,"[""1"",""6"",""return""]","[0.980800000011925,1.2698000000119123,1.4311999999881095]",,,,,,4 × 4 =,16,0,9,9,9,1,,,,,,,,,,,,,,,,,,,,,,,,,,,,,,,,,,,,,,,,,,,,,,,,,,,,,,,,,,,,,,,,,,,,,,,,,,,,,,,,,,,,,,,,,,,,,,,,,,,,,,,,,,,,,,,,,,,,,,,,,,,,,,,,,,,,,,,,,,,,
,678536750213,BCA,05/10/2001,001,2023-04-09_17h06.19.496,OS3_Mult_verification,2022.2.4,Win32,59.18560606,,,,,,,,,,,,,,,,,,24,1.6246,1,"[""2"",""4"",""return""]","[0.9951999999880741,1.1705999999642813,1.337500000000034]",,,,,,8 × 3 =,24,0,10,10,10,1,,,,,,,,,,,,,,,,,,,,,,,,,,,,,,,,,,,,,,,,,,,,,,,,,,,,,,,,,,,,,,,,,,,,,,,,,,,,,,,,,,,,,,,,,,,,,,,,,,,,,,,,,,,,,,,,,,,,,,,,,,,,,,,,,,,,,,,,,,,,
,678536750213,BCA,05/10/2001,001,2023-04-09_17h06.19.496,OS3_Mult_verification,2022.2.4,Win32,59.18560606,,,,,,,,,,,,,,,,,,30,2.2079,1,"[""3"",""0"",""return""]","[1.4018999999761377,1.748599999964199,1.9118999999761286]",,,,,,6 × 5 =,30,0,11,11,11,1,,,,,,,,,,,,,,,,,,,,,,,,,,,,,,,,,,,,,,,,,,,,,,,,,,,,,,,,,,,,,,,,,,,,,,,,,,,,,,,,,,,,,,,,,,,,,,,,,,,,,,,,,,,,,,,,,,,,,,,,,,,,,,,,,,,,,,,,,,,,
,678536750213,BCA,05/10/2001,001,2023-04-09_17h06.19.496,OS3_Mult_verification,2022.2.4,Win32,59.18560606,,,,,,,,,,,,,,,,,,14,1.7077,1,"[""1"",""4"",""return""]","[0.9744999999999777,1.224999999999966,1.3942000000477037]",,,,,,7 × 2 =,14,0,12,12,12,1,,,,,,,,,,,,,,,,,,,,,,,,,,,,,,,,,,,,,,,,,,,,,,,,,,,,,,,,,,,,,,,,,,,,,,,,,,,,,,,,,,,,,,,,,,,,,,,,,,,,,,,,,,,,,,,,,,,,,,,,,,,,,,,,,,,,,,,,,,,,
,678536750213,BCA,05/10/2001,001,2023-04-09_17h06.19.496,OS3_Mult_verification,2022.2.4,Win32,59.18560606,,,,,,,,,,,,,,,,,,27,2.0836,1,"[""2"",""7"",""return""]","[1.251699999988091,1.5613999999761745,1.7663999999761586]",,,,,,3 × 9 =,27,0,13,13,13,1,,,,,,,,,,,,,,,,,,,,,,,,,,,,,,,,,,,,,,,,,,,,,,,,,,,,,,,,,,,,,,,,,,,,,,,,,,,,,,,,,,,,,,,,,,,,,,,,,,,,,,,,,,,,,,,,,,,,,,,,,,,,,,,,,,,,,,,,,,,,
,678536750213,BCA,05/10/2001,001,2023-04-09_17h06.19.496,OS3_Mult_verification,2022.2.4,Win32,59.18560606,,,,,,,,,,,,,,,,,,16,1.6858,1,"[""1"",""6"",""return""]","[0.7758999999761613,1.1613999999761404,1.3720999999642345]",,,,,,2 × 8 =,16,0,14,14,14,1,,,,,,,,,,,,,,,,,,,,,,,,,,,,,,,,,,,,,,,,,,,,,,,,,,,,,,,,,,,,,,,,,,,,,,,,,,,,,,,,,,,,,,,,,,,,,,,,,,,,,,,,,,,,,,,,,,,,,,,,,,,,,,,,,,,,,,,,,,,,
,678536750213,BCA,05/10/2001,001,2023-04-09_17h06.19.496,OS3_Mult_verification,2022.2.4,Win32,59.18560606,,,,,,,,,,,,,,,,,,24,1.6037,1,"[""2"",""4"",""return""]","[0.8759999999999764,1.0790999999642281,1.2880999999642313]",,,,,,4 × 6 =,24,0,15,15,15,1,,,,,,,,,,,,,,,,,,,,,,,,,,,,,,,,,,,,,,,,,,,,,,,,,,,,,,,,,,,,,,,,,,,,,,,,,,,,,,,,,,,,,,,,,,,,,,,,,,,,,,,,,,,,,,,,,,,,,,,,,,,,,,,,,,,,,,,,,,,,
,678536750213,BCA,05/10/2001,001,2023-04-09_17h06.19.496,OS3_Mult_verification,2022.2.4,Win32,59.18560606,,,,,,,,,,,,,,,,,,21,1.6453,1,"[""2"",""1"",""return""]","[1.0461000000238414,1.1545000000000414,1.3520000000000323]",,,,,,7 × 3 =,21,0,16,16,16,1,,,,,,,,,,,,,,,,,,,,,,,,,,,,,,,,,,,,,,,,,,,,,,,,,,,,,,,,,,,,,,,,,,,,,,,,,,,,,,,,,,,,,,,,,,,,,,,,,,,,,,,,,,,,,,,,,,,,,,,,,,,,,,,,,,,,,,,,,,,,
,678536750213,BCA,05/10/2001,001,2023-04-09_17h06.19.496,OS3_Mult_verification,2022.2.4,Win32,59.18560606,,,,,,,,,,,,,,,,,,27,1.7494,1,"[""2"",""7"",""return""]","[0.9665999999642167,1.253399999976125,1.4311999999880527]",,,,,,9 × 3 =,27,0,17,17,17,1,,,,,,,,,,,,,,,,,,,,,,,,,,,,,,,,,,,,,,,,,,,,,,,,,,,,,,,,,,,,,,,,,,,,,,,,,,,,,,,,,,,,,,,,,,,,,,,,,,,,,,,,,,,,,,,,,,,,,,,,,,,,,,,,,,,,,,,,,,,,
,678536750213,BCA,05/10/2001,001,2023-04-09_17h06.19.496,OS3_Mult_verification,2022.2.4,Win32,59.18560606,,,,,,,,,,,,,,,,,,28,2.1035,1,"[""2"",""8"",""return""]","[1.1810999999642604,1.6315999999642372,1.809399999976165]",,,,,,4 × 7 =,28,0,18,18,18,1,,,,,,,,,,,,,,,,,,,,,,,,,,,,,,,,,,,,,,,,,,,,,,,,,,,,,,,,,,,,,,,,,,,,,,,,,,,,,,,,,,,,,,,,,,,,,,,,,,,,,,,,,,,,,,,,,,,,,,,,,,,,,,,,,,,,,,,,,,,,
,678536750213,BCA,05/10/2001,001,2023-04-09_17h06.19.496,OS3_Mult_verification,2022.2.4,Win32,59.18560606,,,,,,,,,,,,,,,,,,18,2.4577,1,"[""1"",""8"",""return""]","[1.4123999999761736,1.974599999964255,2.143299999952319]",,,,,,2 × 9 =,18,0,19,19,19,1,,,,,,,,,,,,,,,,,,,,,,,,,,,,,,,,,,,,,,,,,,,,,,,,,,,,,,,,,,,,,,,,,,,,,,,,,,,,,,,,,,,,,,,,,,,,,,,,,,,,,,,,,,,,,,,,,,,,,,,,,,,,,,,,,,,,,,,,,,,,
,678536750213,BCA,05/10/2001,001,2023-04-09_17h06.19.496,OS3_Mult_verification,2022.2.4,Win32,59.18560606,,,,,,,,,,,,,,,,,,72,2.1313,1,"[""7"",""2"",""return""]","[1.3302000000476824,1.6279000000357655,1.8269999999999982]",,,,,,9 × 8 =,72,0,20,20,20,1,,,,,,,,,,,,,,,,,,,,,,,,,,,,,,,,,,,,,,,,,,,,,,,,,,,,,,,,,,,,,,,,,,,,,,,,,,,,,,,,,,,,,,,,,,,,,,,,,,,,,,,,,,,,,,,,,,,,,,,,,,,,,,,,,,,,,,,,,,,,
,678536750213,BCA,05/10/2001,001,2023-04-09_17h06.19.496,OS3_Mult_verification,2022.2.4,Win32,59.18560606,,,,,,,,,,,,,,,,,,42,1.8325,1,"[""4"",""2"",""return""]","[1.079099999964285,1.2873000000119532,1.5186999999880868]",,,,,,7 × 6 =,42,0,21,21,21,1,,,,,,,,,,,,,,,,,,,,,,,,,,,,,,,,,,,,,,,,,,,,,,,,,,,,,,,,,,,,,,,,,,,,,,,,,,,,,,,,,,,,,,,,,,,,,,,,,,,,,,,,,,,,,,,,,,,,,,,,,,,,,,,,,,,,,,,,,,,,
,678536750213,BCA,05/10/2001,001,2023-04-09_17h06.19.496,OS3_Mult_verification,2022.2.4,Win32,59.18560606,,,,,,,,,,,,,,,,,,54,2.5626,1,"[""5"",""4"",""return""]","[1.9675000000000296,2.061199999988105,2.264899999976194]",,,,,,6 × 9 =,54,0,22,22,22,1,,,,,,,,,,,,,,,,,,,,,,,,,,,,,,,,,,,,,,,,,,,,,,,,,,,,,,,,,,,,,,,,,,,,,,,,,,,,,,,,,,,,,,,,,,,,,,,,,,,,,,,,,,,,,,,,,,,,,,,,,,,,,,,,,,,,,,,,,,,,
,678536750213,BCA,05/10/2001,001,2023-04-09_17h06.19.496,OS3_Mult_verification,2022.2.4,Win32,59.18560606,,,,,,,,,,,,,,,,,,45,1.8322,1,"[""4"",""5"",""return""]","[1.101800000011906,1.2166999999880659,1.515300000011905]",,,,,,9 × 5 =,45,0,23,23,23,1,,,,,,,,,,,,,,,,,,,,,,,,,,,,,,,,,,,,,,,,,,,,,,,,,,,,,,,,,,,,,,,,,,,,,,,,,,,,,,,,,,,,,,,,,,,,,,,,,,,,,,,,,,,,,,,,,,,,,,,,,,,,,,,,,,,,,,,,,,,,
,678536750213,BCA,05/10/2001,001,2023-04-09_17h06.19.496,OS3_Mult_verification,2022.2.4,Win32,59.18560606,,,,,,,,,,,,,,,,,,56,2.7285,1,"[""5"",""6"",""return""]","[2.021500000000003,2.181399999976179,2.419199999988109]",,,,,,8 × 7 =,56,0,24,24,24,1,,,,,,,,,,,,,,,,,,,,,,,,,,,,,,,,,,,,,,,,,,,,,,,,,,,,,,,,,,,,,,,,,,,,,,,,,,,,,,,,,,,,,,,,,,,,,,,,,,,,,,,,,,,,,,,,,,,,,,,,,,,,,,,,,,,,,,,,,,,,
,678536750213,BCA,05/10/2001,001,2023-04-09_17h06.19.496,OS3_Mult_verification,2022.2.4,Win32,59.18560606,,,,,,,,,,,,,,,,,,36,2.2285,1,"[""3"",""6"",""return""]","[1.4186000000238437,1.5997000000477328,1.920100000023865]",,,,,,6 × 6 =,36,0,25,25,25,1,,,,,,,,,,,,,,,,,,,,,,,,,,,,,,,,,,,,,,,,,,,,,,,,,,,,,,,,,,,,,,,,,,,,,,,,,,,,,,,,,,,,,,,,,,,,,,,,,,,,,,,,,,,,,,,,,,,,,,,,,,,,,,,,,,,,,,,,,,,,
,678536750213,BCA,05/10/2001,001,2023-04-09_17h06.19.496,OS3_Mult_verification,2022.2.4,Win32,59.18560606,,,,,,,,,,,,,,,,,,35,2.1251,1,"[""3"",""5"",""return""]","[1.4361000000238846,1.5927000000477278,1.8081000000238419]",,,,,,5 × 7 =,35,0,26,26,26,1,,,,,,,,,,,,,,,,,,,,,,,,,,,,,,,,,,,,,,,,,,,,,,,,,,,,,,,,,,,,,,,,,,,,,,,,,,,,,,,,,,,,,,,,,,,,,,,,,,,,,,,,,,,,,,,,,,,,,,,,,,,,,,,,,,,,,,,,,,,,
,678536750213,BCA,05/10/2001,001,2023-04-09_17h06.19.496,OS3_Mult_verification,2022.2.4,Win32,59.18560606,,,,,,,,,,,,,,,,,,36,2.2072,1,"[""3"",""6"",""return""]","[1.4569999999999936,1.69789999997613,1.896299999952305]",,,,,,4 × 9 =,36,0,27,27,27,1,,,,,,,,,,,,,,,,,,,,,,,,,,,,,,,,,,,,,,,,,,,,,,,,,,,,,,,,,,,,,,,,,,,,,,,,,,,,,,,,,,,,,,,,,,,,,,,,,,,,,,,,,,,,,,,,,,,,,,,,,,,,,,,,,,,,,,,,,,,,
,678536750213,BCA,05/10/2001,001,2023-04-09_17h06.19.496,OS3_Mult_verification,2022.2.4,Win32,59.18560606,,,,,,,,,,,,,,,,,,48,2.5614,1,"[""4"",""8"",""return""]","[1.5590999999642463,1.962799999952324,2.2447999999523063]",,,,,,8 × 6 =,48,0,28,28,28,1,,,,,,,,,,,,,,,,,,,,,,,,,,,,,,,,,,,,,,,,,,,,,,,,,,,,,,,,,,,,,,,,,,,,,,,,,,,,,,,,,,,,,,,,,,,,,,,,,,,,,,,,,,,,,,,,,,,,,,,,,,,,,,,,,,,,,,,,,,,,
,678536750213,BCA,05/10/2001,001,2023-04-09_17h06.19.496,OS3_Mult_verification,2022.2.4,Win32,59.18560606,,,,,,,,,,,,,,,,,,63,3.3906,1,"[""6"",""3"",""return""]","[2.5855000000000246,2.8340999999642804,3.0621999999880813]",,,,,,9 × 7 =,63,0,29,29,29,1,,,,,,,,,,,,,,,,,,,,,,,,,,,,,,,,,,,,,,,,,,,,,,,,,,,,,,,,,,,,,,,,,,,,,,,,,,,,,,,,,,,,,,,,,,,,,,,,,,,,,,,,,,,,,,,,,,,,,,,,,,,,,,,,,,,,,,,,,,,,
,678536750213,BCA,05/10/2001,001,2023-04-09_17h06.19.496,OS3_Mult_verification,2022.2.4,Win32,59.18560606,,,,,,,,,,,,,,,,,,12,1.5197,1,"[""1"",""2"",""return""]","[0.8346000000238405,0.9599000000357591,1.208500000000015]",,,,,,4 × 3 =,12,0,30,30,30,1,,,,,,,,,,,,,,,,,,,,,,,,,,,,,,,,,,,,,,,,,,,,,,,,,,,,,,,,,,,,,,,,,,,,,,,,,,,,,,,,,,,,,,,,,,,,,,,,,,,,,,,,,,,,,,,,,,,,,,,,,,,,,,,,,,,,,,,,,,,,
,678536750213,BCA,05/10/2001,001,2023-04-09_17h06.19.496,OS3_Mult_verification,2022.2.4,Win32,59.18560606,,,,,,,,,,,,,,,,,,25,1.8064,1,"[""2"",""5"",""return""]","[0.9933000000119137,1.2092000000477015,1.4837000000476905]",,,,,,5 × 5 =,25,0,31,31,31,1,,,,,,,,,,,,,,,,,,,,,,,,,,,,,,,,,,,,,,,,,,,,,,,,,,,,,,,,,,,,,,,,,,,,,,,,,,,,,,,,,,,,,,,,,,,,,,,,,,,,,,,,,,,,,,,,,,,,,,,,,,,,,,,,,,,,,,,,,,,,
,678536750213,BCA,05/10/2001,001,2023-04-09_17h06.19.496,OS3_Mult_verification,2022.2.4,Win32,59.18560606,,,,,,,,,,,,,,,,,,6,1.8743,1,"[""6"",""return""]","[1.3139000000357441,1.5528000000119278]",,,,,,3 × 2 =,6,0,32,32,32,1,,,,,,,,,,,,,,,,,,,,,,,,,,,,,,,,,,,,,,,,,,,,,,,,,,,,,,,,,,,,,,,,,,,,,,,,,,,,,,,,,,,,,,,,,,,,,,,,,,,,,,,,,,,,,,,,,,,,,,,,,,,,,,,,,,,,,,,,,,,,
,678536750213,BCA,05/10/2001,001,2023-04-09_17h06.19.496,OS3_Mult_verification,2022.2.4,Win32,59.18560606,,,,,,,,,,,,,,,,,,20,1.9782,1,"[""2"",""0"",""return""]","[0.8897000000476964,1.2726000000238287,1.650800000011941]",,,,,,5 × 4 =,20,0,33,33,33,1,,,,,,,,,,,,,,,,,,,,,,,,,,,,,,,,,,,,,,,,,,,,,,,,,,,,,,,,,,,,,,,,,,,,,,,,,,,,,,,,,,,,,,,,,,,,,,,,,,,,,,,,,,,,,,,,,,,,,,,,,,,,,,,,,,,,,,,,,,,,
,678536750213,BCA,05/10/2001,001,2023-04-09_17h06.19.496,OS3_Mult_verification,2022.2.4,Win32,59.18560606,,,,,,,,,,,,,,,,,,8,1.8741,1,"[""8"",""return""]","[1.1818000000119468,1.5416000000238341]",,,,,,4 × 2 =,8,0,34,34,34,1,,,,,,,,,,,,,,,,,,,,,,,,,,,,,,,,,,,,,,,,,,,,,,,,,,,,,,,,,,,,,,,,,,,,,,,,,,,,,,,,,,,,,,,,,,,,,,,,,,,,,,,,,,,,,,,,,,,,,,,,,,,,,,,,,,,,,,,,,,,,
,678536750213,BCA,05/10/2001,001,2023-04-09_17h06.19.496,OS3_Mult_verification,2022.2.4,Win32,59.18560606,,,,,,,,,,,,,,,,,,12,1.9629,1,"[""1"",""2"",""return""]","[1.1791000000238228,1.3075000000000045,1.6468000000119218]",,,,,,2 × 6 =,12,0,35,35,35,1,,,,,,,,,,,,,,,,,,,,,,,,,,,,,,,,,,,,,,,,,,,,,,,,,,,,,,,,,,,,,,,,,,,,,,,,,,,,,,,,,,,,,,,,,,,,,,,,,,,,,,,,,,,,,,,,,,,,,,,,,,,,,,,,,,,,,,,,,,,,
,678536750213,BCA,05/10/2001,001,2023-04-09_17h06.19.496,OS3_Mult_verification,2022.2.4,Win32,59.18560606,,,,,,,,,,,,,,,,,,15,1.4734,1,"[""1"",""5"",""return""]","[0.7300000000000182,0.9588000000119337,1.1459000000357378]",,,,,,3 × 5 =,15,0,36,36,36,1,,,,,,,,,,,,,,,,,,,,,,,,,,,,,,,,,,,,,,,,,,,,,,,,,,,,,,,,,,,,,,,,,,,,,,,,,,,,,,,,,,,,,,,,,,,,,,,,,,,,,,,,,,,,,,,,,,,,,,,,,,,,,,,,,,,,,,,,,,,,
,678536750213,BCA,05/10/2001,001,2023-04-09_17h06.19.496,OS3_Mult_verification,2022.2.4,Win32,59.18560606,,,,,,,,,,,,,,,,,,18,1.7907,1,"[""1"",""8"",""return""]","[0.8951000000238878,1.2931000000238555,1.4793000000119605]",,,,,,6 × 3 =,18,0,37,37,37,1,,,,,,,,,,,,,,,,,,,,,,,,,,,,,,,,,,,,,,,,,,,,,,,,,,,,,,,,,,,,,,,,,,,,,,,,,,,,,,,,,,,,,,,,,,,,,,,,,,,,,,,,,,,,,,,,,,,,,,,,,,,,,,,,,,,,,,,,,,,,
,678536750213,BCA,05/10/2001,001,2023-04-09_17h06.19.496,OS3_Mult_verification,2022.2.4,Win32,59.18560606,,,,,,,,,,,,,,,,,,10,1.6292,1,"[""1"",""0"",""return""]","[0.837399999976185,1.1458999999761659,1.2976999999880832]",,,,,,2 × 5 =,10,0,38,38,38,1,,,,,,,,,,,,,,,,,,,,,,,,,,,,,,,,,,,,,,,,,,,,,,,,,,,,,,,,,,,,,,,,,,,,,,,,,,,,,,,,,,,,,,,,,,,,,,,,,,,,,,,,,,,,,,,,,,,,,,,,,,,,,,,,,,,,,,,,,,,,
,678536750213,BCA,05/10/2001,001,2023-04-09_17h06.19.496,OS3_Mult_verification,2022.2.4,Win32,59.18560606,,,,,,,,,,,,,,,,,,32,2.2654,1,"[""3"",""2"",""return""]","[1.709399999976199,1.7733999999761636,1.9379999999999882]",,,,,,4 × 8 =,32,0,39,39,39,1,,,,,,,,,,,,,,,,,,,,,,,,,,,,,,,,,,,,,,,,,,,,,,,,,,,,,,,,,,,,,,,,,,,,,,,,,,,,,,,,,,,,,,,,,,,,,,,,,,,,,,,,,,,,,,,,,,,,,,,,,,,,,,,,,,,,,,,,,,,,
,678536750213,BCA,05/10/2001,001,2023-04-09_17h06.19.496,OS3_Mult_verification,2022.2.4,Win32,59.18560606,,,,,,,,,,,,,,,,,,24,2.1526,1,"[""2"",""4"",""return""]","[1.0278000000118936,1.6465999999642236,1.8333999999761659]",,,,,,3 × 8 =,24,0,40,40,40,1,,,,,,,,,,,,,,,,,,,,,,,,,,,,,,,,,,,,,,,,,,,,,,,,,,,,,,,,,,,,,,,,,,,,,,,,,,,,,,,,,,,,,,,,,,,,,,,,,,,,,,,,,,,,,,,,,,,,,,,,,,,,,,,,,,,,,,,,,,,,
,678536750213,BCA,05/10/2001,001,2023-04-09_17h06.19.496,OS3_Mult_verification,2022.2.4,Win32,59.18560606,,,,,,,,,,,,,,,,,,30,1.8532,1,"[""3"",""0"",""return""]","[0.9415000000000191,1.3974000000357591,1.5263000000119291]",,,,,,5 × 6 =,30,0,41,41,41,1,,,,,,,,,,,,,,,,,,,,,,,,,,,,,,,,,,,,,,,,,,,,,,,,,,,,,,,,,,,,,,,,,,,,,,,,,,,,,,,,,,,,,,,,,,,,,,,,,,,,,,,,,,,,,,,,,,,,,,,,,,,,,,,,,,,,,,,,,,,,
,678536750213,BCA,05/10/2001,001,2023-04-09_17h06.19.496,OS3_Mult_verification,2022.2.4,Win32,59.18560606,,,,,,,,,,,,,,,,,,14,2.1717,1,"[""1"",""4"",""return""]","[1.1717999999523272,1.700099999964209,1.8734999999999786]",,,,,,2 × 7 =,14,0,42,42,42,1,,,,,,,,,,,,,,,,,,,,,,,,,,,,,,,,,,,,,,,,,,,,,,,,,,,,,,,,,,,,,,,,,,,,,,,,,,,,,,,,,,,,,,,,,,,,,,,,,,,,,,,,,,,,,,,,,,,,,,,,,,,,,,,,,,,,,,,,,,,,
,678536750213,BCA,05/10/2001,001,2023-04-09_17h06.19.496,OS3_Mult_verification,2022.2.4,Win32,59.18560606,,,,,,,,,,,,,,,,,,24,2.848,1,"[""2"",""5"",""backspace"",""4"",""return""]","[0.9178999999761572,1.1453000000119005,1.947999999999979,2.2719999999999914,2.520899999976166]",,,,,,6 × 4 =,24,0,43,43,43,1,,,,,,,,,,,,,,,,,,,,,,,,,,,,,,,,,,,,,,,,,,,,,,,,,,,,,,,,,,,,,,,,,,,,,,,,,,,,,,,,,,,,,,,,,,,,,,,,,,,,,,,,,,,,,,,,,,,,,,,,,,,,,,,,,,,,,,,,,,,,
,678536750213,BCA,05/10/2001,001,2023-04-09_17h06.19.496,OS3_Mult_verification,2022.2.4,Win32,59.18560606,,,,,,,,,,,,,,,,,,21,1.5201,1,"[""2"",""1"",""return""]","[0.9180000000000064,1.0320999999642595,1.2013999999761609]",,,,,,3 × 7 =,21,0,44,44,44,1,,,,,,,,,,,,,,,,,,,,,,,,,,,,,,,,,,,,,,,,,,,,,,,,,,,,,,,,,,,,,,,,,,,,,,,,,,,,,,,,,,,,,,,,,,,,,,,,,,,,,,,,,,,,,,,,,,,,,,,,,,,,,,,,,,,,,,,,,,,,
,678536750213,BCA,05/10/2001,001,2023-04-09_17h06.19.496,OS3_Mult_verification,2022.2.4,Win32,59.18560606,,,,,,,,,,,,,,,,,,,1.2285,0,,,,,,,,9 × 9 =,81,0,45,45,45,1,,,,,,,,,,,,,,,,,,,,,,,,,,,,,,,,,,,,,,,,,,,,,,,,,,,,,,,,,,,,,,,,,,,,,,,,,,,,,,,,,,,,,,,,,,,,,,,,,,,,,,,,,,,,,,,,,,,,,,,,,,,,,,,,,,,,,,,,,,,,
,678536750213,BCA,05/10/2001,001,2023-04-09_17h06.19.496,OS3_Mult_verification,2022.2.4,Win32,59.18560606,,,,,,,,,,,,,,,,space,2.4403,,,,,,,,,,,,,,,,,,TRUE,4.2694,0.0390625,-0.34765625,1,0,0,0,0,0,2,1,practice trial,,3,3,,,,,,,,,,,,,,,,,,,,,,,,,,,,,,,,,,,,,,,,,,,,,,,,,,,,,,,,,,,,,,,,,,,,,,,,,,,,,,,,,,,,,,,,,,,,,,,,,,,,,,,,,,,,,,,,,,,,,,,,,,,,
,678536750213,BCA,05/10/2001,001,2023-04-09_17h06.19.496,OS3_Mult_verification,2022.2.4,Win32,59.18560606,,,,,,,,,,,,,,,,,,,,,,,,,,,,,,,,,,,TRUE,4.479,0.0390625,-0.33984375,1,0,0,0,1,1,0,1,practice trial,,3,3,,,,,,,,,,,,,,,,,,,,,,,,,,,,,,,,,,,,,,,,,,,,,,,,,,,,,,,,,,,,,,,,,,,,,,,,,,,,,,,,,,,,,,,,,,,,,,,,,,,,,,,,,,,,,,,,,,,,,,,,,,,,
,678536750213,BCA,05/10/2001,001,2023-04-09_17h06.19.496,OS3_Mult_verification,2022.2.4,Win32,59.18560606,,,,,,,,,,,,,,,,,,,,,,,,,,,,,,,,,,,TRUE,5.2079,0.036458333,-0.329427083,1,0,0,0,2,2,1,1,practice trial,,3,3,,,,,,,,,,,,,,,,,,,,,,,,,,,,,,,,,,,,,,,,,,,,,,,,,,,,,,,,,,,,,,,,,,,,,,,,,,,,,,,,,,,,,,,,,,,,,,,,,,,,,,,,,,,,,,,,,,,,,,,,,,,,
,678536750213,BCA,05/10/2001,001,2023-04-09_17h06.19.496,OS3_Mult_verification,2022.2.4,Win32,59.18560606,,,,,,,,,,,,,,,,,,,,,,,,,,,,,,,,,,,TRUE,1.9161,0.048177083,-0.361979167,1,0,0,,,,,,Trial #1,,2,2,0,0,0,0,1,2,,,,,,,,,,,,,,,,,,,,,,,,,,,,,,,,,,,,,,,,,,,,,,,,,,,,,,,,,,,,,,,,,,,,,,,,,,,,,,,,,,,,,,,,,,,,,,,,,,,,,,,,,,,,,,,,,,,,,,
,678536750213,BCA,05/10/2001,001,2023-04-09_17h06.19.496,OS3_Mult_verification,2022.2.4,Win32,59.18560606,,,,,,,,,,,,,,,,,,,,,,,,,,,,,,,,,,,TRUE,1.9165,0.048177083,-0.3359375,1,0,0,,,,,,Trial #1,,2,2,0,1,1,1,1,2,,,,,,,,,,,,,,,,,,,,,,,,,,,,,,,,,,,,,,,,,,,,,,,,,,,,,,,,,,,,,,,,,,,,,,,,,,,,,,,,,,,,,,,,,,,,,,,,,,,,,,,,,,,,,,,,,,,,,,
,678536750213,BCA,05/10/2001,001,2023-04-09_17h06.19.496,OS3_Mult_verification,2022.2.4,Win32,59.18560606,,,,,,,,,,,,,,,,,,,,,,,,,,,,,,,,,,,TRUE,2.2496,0.020833333,-0.369791667,1,0,0,,,,,,Trial #1,,2,2,0,2,2,2,1,2,,,,,,,,,,,,,,,,,,,,,,,,,,,,,,,,,,,,,,,,,,,,,,,,,,,,,,,,,,,,,,,,,,,,,,,,,,,,,,,,,,,,,,,,,,,,,,,,,,,,,,,,,,,,,,,,,,,,,,
,678536750213,BCA,05/10/2001,001,2023-04-09_17h06.19.496,OS3_Mult_verification,2022.2.4,Win32,59.18560606,,,,,,,,,,,,,,,,,,,,,,,,,,,,,,,,,,,TRUE,2.2285,0.080729167,-0.345052083,1,0,0,,,,,,Trial #2,,3,3,0,0,0,0,1,3,,,,,,,,,,,,,,,,,,,,,,,,,,,,,,,,,,,,,,,,,,,,,,,,,,,,,,,,,,,,,,,,,,,,,,,,,,,,,,,,,,,,,,,,,,,,,,,,,,,,,,,,,,,,,,,,,,,,,,
,678536750213,BCA,05/10/2001,001,2023-04-09_17h06.19.496,OS3_Mult_verification,2022.2.4,Win32,59.18560606,,,,,,,,,,,,,,,,,,,,,,,,,,,,,,,,,,,TRUE,2.7497,0.083333333,-0.328125,1,0,0,,,,,,Trial #2,,3,3,0,1,1,1,1,3,,,,,,,,,,,,,,,,,,,,,,,,,,,,,,,,,,,,,,,,,,,,,,,,,,,,,,,,,,,,,,,,,,,,,,,,,,,,,,,,,,,,,,,,,,,,,,,,,,,,,,,,,,,,,,,,,,,,,,
,678536750213,BCA,05/10/2001,001,2023-04-09_17h06.19.496,OS3_Mult_verification,2022.2.4,Win32,59.18560606,,,,,,,,,,,,,,,,,,,,,,,,,,,,,,,,,,,TRUE,2.624,0.10546875,-0.338541667,1,0,0,,,,,,Trial #2,,3,3,0,2,2,2,1,3,,,,,,,,,,,,,,,,,,,,,,,,,,,,,,,,,,,,,,,,,,,,,,,,,,,,,,,,,,,,,,,,,,,,,,,,,,,,,,,,,,,,,,,,,,,,,,,,,,,,,,,,,,,,,,,,,,,,,,
,678536750213,BCA,05/10/2001,001,2023-04-09_17h06.19.496,OS3_Mult_verification,2022.2.4,Win32,59.18560606,,,,,,,,,,,,,,,,,,,,,,,,,,,,,,,,,,,TRUE,3.4372,0.037760417,-0.334635417,1,0,0,,,,,,Trial #3,,3,3,0,0,0,0,1,4,,,,,,,,,,,,,,,,,,,,,,,,,,,,,,,,,,,,,,,,,,,,,,,,,,,,,,,,,,,,,,,,,,,,,,,,,,,,,,,,,,,,,,,,,,,,,,,,,,,,,,,,,,,,,,,,,,,,,,
,678536750213,BCA,05/10/2001,001,2023-04-09_17h06.19.496,OS3_Mult_verification,2022.2.4,Win32,59.18560606,,,,,,,,,,,,,,,,,,,,,,,,,,,,,,,,,,,TRUE,3.3745,0.091145833,-0.352864583,1,0,0,,,,,,Trial #3,,3,3,0,1,1,1,1,4,,,,,,,,,,,,,,,,,,,,,,,,,,,,,,,,,,,,,,,,,,,,,,,,,,,,,,,,,,,,,,,,,,,,,,,,,,,,,,,,,,,,,,,,,,,,,,,,,,,,,,,,,,,,,,,,,,,,,,
,678536750213,BCA,05/10/2001,001,2023-04-09_17h06.19.496,OS3_Mult_verification,2022.2.4,Win32,59.18560606,,,,,,,,,,,,,,,,,,,,,,,,,,,,,,,,,,,TRUE,2.8746,-0.024739583,-0.338541667,1,0,0,,,,,,Trial #3,,3,3,0,2,2,2,1,4,,,,,,,,,,,,,,,,,,,,,,,,,,,,,,,,,,,,,,,,,,,,,,,,,,,,,,,,,,,,,,,,,,,,,,,,,,,,,,,,,,,,,,,,,,,,,,,,,,,,,,,,,,,,,,,,,,,,,,
,678536750213,BCA,05/10/2001,001,2023-04-09_17h06.19.496,OS3_Mult_verification,2022.2.4,Win32,59.18560606,,,,,,,,,,,,,,,,,,,,,,,,,,,,,,,,,,,TRUE,3.5768,-0.0078125,-0.36328125,1,0,0,,,,,,Trial #4,,4,4,0,0,0,0,1,5,,,,,,,,,,,,,,,,,,,,,,,,,,,,,,,,,,,,,,,,,,,,,,,,,,,,,,,,,,,,,,,,,,,,,,,,,,,,,,,,,,,,,,,,,,,,,,,,,,,,,,,,,,,,,,,,,,,,,,
,678536750213,BCA,05/10/2001,001,2023-04-09_17h06.19.496,OS3_Mult_verification,2022.2.4,Win32,59.18560606,,,,,,,,,,,,,,,,,,,,,,,,,,,,,,,,,,,TRUE,3.5832,-0.0625,-0.338541667,1,0,0,,,,,,Trial #4,,4,4,0,1,1,1,1,5,,,,,,,,,,,,,,,,,,,,,,,,,,,,,,,,,,,,,,,,,,,,,,,,,,,,,,,,,,,,,,,,,,,,,,,,,,,,,,,,,,,,,,,,,,,,,,,,,,,,,,,,,,,,,,,,,,,,,,
,678536750213,BCA,05/10/2001,001,2023-04-09_17h06.19.496,OS3_Mult_verification,2022.2.4,Win32,59.18560606,,,,,,,,,,,,,,,,,,,,,,,,,,,,,,,,,,,TRUE,3.8749,0.020833333,-0.345052083,1,0,0,,,,,,Trial #4,,4,4,0,2,2,2,1,5,,,,,,,,,,,,,,,,,,,,,,,,,,,,,,,,,,,,,,,,,,,,,,,,,,,,,,,,,,,,,,,,,,,,,,,,,,,,,,,,,,,,,,,,,,,,,,,,,,,,,,,,,,,,,,,,,,,,,,
,678536750213,BCA,05/10/2001,001,2023-04-09_17h06.19.496,OS3_Mult_verification,2022.2.4,Win32,59.18560606,,,,,,,,,,,,,,,,,,,,,,,,,,,,,,,,,,,TRUE,4.5414,0.071614583,-0.365885417,1,0,0,,,,,,Trial #5,,4,4,0,0,0,0,1,6,,,,,,,,,,,,,,,,,,,,,,,,,,,,,,,,,,,,,,,,,,,,,,,,,,,,,,,,,,,,,,,,,,,,,,,,,,,,,,,,,,,,,,,,,,,,,,,,,,,,,,,,,,,,,,,,,,,,,,
,678536750213,BCA,05/10/2001,001,2023-04-09_17h06.19.496,OS3_Mult_verification,2022.2.4,Win32,59.18560606,,,,,,,,,,,,,,,,,,,,,,,,,,,,,,,,,,,TRUE,4.1034,0.072916667,-0.328125,1,0,0,,,,,,Trial #5,,4,4,0,1,1,1,1,6,,,,,,,,,,,,,,,,,,,,,,,,,,,,,,,,,,,,,,,,,,,,,,,,,,,,,,,,,,,,,,,,,,,,,,,,,,,,,,,,,,,,,,,,,,,,,,,,,,,,,,,,,,,,,,,,,,,,,,
,678536750213,BCA,05/10/2001,001,2023-04-09_17h06.19.496,OS3_Mult_verification,2022.2.4,Win32,59.18560606,,,,,,,,,,,,,,,,,,,,,,,,,,,,,,,,,,,TRUE,3.8328,0.08203125,-0.348958333,1,0,0,,,,,,Trial #5,,4,4,0,2,2,2,1,6,,,,,,,,,,,,,,,,,,,,,,,,,,,,,,,,,,,,,,,,,,,,,,,,,,,,,,,,,,,,,,,,,,,,,,,,,,,,,,,,,,,,,,,,,,,,,,,,,,,,,,,,,,,,,,,,,,,,,,
,678536750213,BCA,05/10/2001,001,2023-04-09_17h06.19.496,OS3_Mult_verification,2022.2.4,Win32,59.18560606,,,,,,,,,,,,,,,,,,,,,,,,,,,,,,,,,,,TRUE,5.312,0.072916667,-0.365885417,1,0,0,,,,,,Trial #6,,4,4,0,0,0,0,1,7,,,,,,,,,,,,,,,,,,,,,,,,,,,,,,,,,,,,,,,,,,,,,,,,,,,,,,,,,,,,,,,,,,,,,,,,,,,,,,,,,,,,,,,,,,,,,,,,,,,,,,,,,,,,,,,,,,,,,,
,678536750213,BCA,05/10/2001,001,2023-04-09_17h06.19.496,OS3_Mult_verification,2022.2.4,Win32,59.18560606,,,,,,,,,,,,,,,,,,,,,,,,,,,,,,,,,,,TRUE,4.923,0.118489583,-0.348958333,1,0,0,,,,,,Trial #6,,4,4,0,1,1,1,1,7,,,,,,,,,,,,,,,,,,,,,,,,,,,,,,,,,,,,,,,,,,,,,,,,,,,,,,,,,,,,,,,,,,,,,,,,,,,,,,,,,,,,,,,,,,,,,,,,,,,,,,,,,,,,,,,,,,,,,,
,678536750213,BCA,05/10/2001,001,2023-04-09_17h06.19.496,OS3_Mult_verification,2022.2.4,Win32,59.18560606,,,,,,,,,,,,,,,,,,,,,,,,,,,,,,,,,,,TRUE,5.2779,0.029947917,-0.37890625,1,0,0,,,,,,Trial #6,,4,4,0,2,2,2,1,7,,,,,,,,,,,,,,,,,,,,,,,,,,,,,,,,,,,,,,,,,,,,,,,,,,,,,,,,,,,,,,,,,,,,,,,,,,,,,,,,,,,,,,,,,,,,,,,,,,,,,,,,,,,,,,,,,,,,,,
,678536750213,BCA,05/10/2001,001,2023-04-09_17h06.19.496,OS3_Mult_verification,2022.2.4,Win32,59.18560606,,,,,,,,,,,,,,,,,,,,,,,,,,,,,,,,,,,TRUE,5.4648,-0.001302083,-0.354166667,1,0,0,,,,,,Trial #7,,4,4,0,0,0,0,1,8,,,,,,,,,,,,,,,,,,,,,,,,,,,,,,,,,,,,,,,,,,,,,,,,,,,,,,,,,,,,,,,,,,,,,,,,,,,,,,,,,,,,,,,,,,,,,,,,,,,,,,,,,,,,,,,,,,,,,,
,678536750213,BCA,05/10/2001,001,2023-04-09_17h06.19.496,OS3_Mult_verification,2022.2.4,Win32,59.18560606,,,,,,,,,,,,,,,,,,,,,,,,,,,,,,,,,,,TRUE,10.923,0.005208333,-0.348958333,1,0,0,,,,,,Trial #7,,4,4,0,1,1,1,1,8,,,,,,,,,,,,,,,,,,,,,,,,,,,,,,,,,,,,,,,,,,,,,,,,,,,,,,,,,,,,,,,,,,,,,,,,,,,,,,,,,,,,,,,,,,,,,,,,,,,,,,,,,,,,,,,,,,,,,,
,678536750213,BCA,05/10/2001,001,2023-04-09_17h06.19.496,OS3_Mult_verification,2022.2.4,Win32,59.18560606,,,,,,,,,,,,,,,,,,,,,,,,,,,,,,,,,,,TRUE,7.9647,0.048177083,-0.361979167,1,0,0,,,,,,Trial #7,,4,4,0,2,2,2,1,8,,,,,,,,,,,,,,,,,,,,,,,,,,,,,,,,,,,,,,,,,,,,,,,,,,,,,,,,,,,,,,,,,,,,,,,,,,,,,,,,,,,,,,,,,,,,,,,,,,,,,,,,,,,,,,,,,,,,,,
,678536750213,BCA,05/10/2001,001,2023-04-09_17h06.19.496,OS3_Mult_verification,2022.2.4,Win32,59.18560606,,,,,,,,,,,,,,,,,,,,,,,,,,,,,,,,,,,TRUE,6.2912,0.014322917,-0.360677083,1,0,0,,,,,,Trial #8,,5,5,0,0,0,0,1,9,,,,,,,,,,,,,,,,,,,,,,,,,,,,,,,,,,,,,,,,,,,,,,,,,,,,,,,,,,,,,,,,,,,,,,,,,,,,,,,,,,,,,,,,,,,,,,,,,,,,,,,,,,,,,,,,,,,,,,
,678536750213,BCA,05/10/2001,001,2023-04-09_17h06.19.496,OS3_Mult_verification,2022.2.4,Win32,59.18560606,,,,,,,,,,,,,,,,,,,,,,,,,,,,,,,,,,,TRUE,6.7494,-0.037760417,-0.350260417,1,0,0,,,,,,Trial #8,,5,5,0,1,1,1,1,9,,,,,,,,,,,,,,,,,,,,,,,,,,,,,,,,,,,,,,,,,,,,,,,,,,,,,,,,,,,,,,,,,,,,,,,,,,,,,,,,,,,,,,,,,,,,,,,,,,,,,,,,,,,,,,,,,,,,,,
,678536750213,BCA,05/10/2001,001,2023-04-09_17h06.19.496,OS3_Mult_verification,2022.2.4,Win32,59.18560606,,,,,,,,,,,,,,,,,,,,,,,,,,,,,,,,,,,TRUE,6.4234,0.061197917,-0.3515625,1,0,0,,,,,,Trial #8,,5,5,0,2,2,2,1,9,,,,,,,,,,,,,,,,,,,,,,,,,,,,,,,,,,,,,,,,,,,,,,,,,,,,,,,,,,,,,,,,,,,,,,,,,,,,,,,,,,,,,,,,,,,,,,,,,,,,,,,,,,,,,,,,,,,,,,
,678536750213,BCA,05/10/2001,001,2023-04-09_17h06.19.496,OS3_Mult_verification,2022.2.4,Win32,59.18560606,,,,,,,,,,,,,,,,,,,,,,,,,,,,,,,,,,,TRUE,7.59,0.061197917,-0.364583333,1,0,0,,,,,,Trial #9,,5,5,0,0,0,0,1,10,,,,,,,,,,,,,,,,,,,,,,,,,,,,,,,,,,,,,,,,,,,,,,,,,,,,,,,,,,,,,,,,,,,,,,,,,,,,,,,,,,,,,,,,,,,,,,,,,,,,,,,,,,,,,,,,,,,,,,
,678536750213,BCA,05/10/2001,001,2023-04-09_17h06.19.496,OS3_Mult_verification,2022.2.4,Win32,59.18560606,,,,,,,,,,,,,,,,,,,,,,,,,,,,,,,,,,,TRUE,6.3331,0.05078125,-0.342447917,1,0,0,,,,,,Trial #9,,5,5,0,1,1,1,1,10,,,,,,,,,,,,,,,,,,,,,,,,,,,,,,,,,,,,,,,,,,,,,,,,,,,,,,,,,,,,,,,,,,,,,,,,,,,,,,,,,,,,,,,,,,,,,,,,,,,,,,,,,,,,,,,,,,,,,,
,678536750213,BCA,05/10/2001,001,2023-04-09_17h06.19.496,OS3_Mult_verification,2022.2.4,Win32,59.18560606,,,,,,,,,,,,,,,,,,,,,,,,,,,,,,,,,,,FALSE,11.6874,-0.04296875,-0.354166667,1,0,0,,,,,,Trial #9,,5,5,0,2,2,2,1,10,,,,,,,,,,,,,,,,,,,,,,,,,,,,,,,,,,,,,,,,,,,,,,,,,,,,,,,,,,,,,,,,,,,,,,,,,,,,,,,,,,,,,,,,,,,,,,,,,,,,,,,,,,,,,,,,,,,,,,
,678536750213,BCA,05/10/2001,001,2023-04-09_17h06.19.496,OS3_Mult_verification,2022.2.4,Win32,59.18560606,,,,,,,,,,,,,,,,,,,,,,,,,,,,,,,,,,,TRUE,7.0204,0.024739583,-0.342447917,1,0,0,,,,,,Trial #10,,5,5,0,0,0,0,1,11,,,,,,,,,,,,,,,,,,,,,,,,,,,,,,,,,,,,,,,,,,,,,,,,,,,,,,,,,,,,,,,,,,,,,,,,,,,,,,,,,,,,,,,,,,,,,,,,,,,,,,,,,,,,,,,,,,,,,,
,678536750213,BCA,05/10/2001,001,2023-04-09_17h06.19.496,OS3_Mult_verification,2022.2.4,Win32,59.18560606,,,,,,,,,,,,,,,,,,,,,,,,,,,,,,,,,,,FALSE,6.1872,0.091145833,-0.341145833,1,0,0,,,,,,Trial #10,,5,5,0,1,1,1,1,11,,,,,,,,,,,,,,,,,,,,,,,,,,,,,,,,,,,,,,,,,,,,,,,,,,,,,,,,,,,,,,,,,,,,,,,,,,,,,,,,,,,,,,,,,,,,,,,,,,,,,,,,,,,,,,,,,,,,,,
,678536750213,BCA,05/10/2001,001,2023-04-09_17h06.19.496,OS3_Mult_verification,2022.2.4,Win32,59.18560606,,,,,,,,,,,,,,,,,,,,,,,,,,,,,,,,,,,TRUE,13.4998,-0.016927083,-0.359375,1,0,0,,,,,,Trial #10,,5,5,0,2,2,2,1,11,,,,,,,,,,,,,,,,,,,,,,,,,,,,,,,,,,,,,,,,,,,,,,,,,,,,,,,,,,,,,,,,,,,,,,,,,,,,,,,,,,,,,,,,,,,,,,,,,,,,,,,,,,,,,,,,,,,,,,
,678536750213,BCA,05/10/2001,001,2023-04-09_17h06.19.496,OS3_Mult_verification,2022.2.4,Win32,59.18560606,,,,,,,,,,,,,,,,,,,,,,,,,,,,,,,,,,,TRUE,16.7563,0.092447917,-0.368489583,1,0,0,,,,,,Trial #11,,5,5,0,0,0,0,1,12,,,,,,,,,,,,,,,,,,,,,,,,,,,,,,,,,,,,,,,,,,,,,,,,,,,,,,,,,,,,,,,,,,,,,,,,,,,,,,,,,,,,,,,,,,,,,,,,,,,,,,,,,,,,,,,,,,,,,,
,678536750213,BCA,05/10/2001,001,2023-04-09_17h06.19.496,OS3_Mult_verification,2022.2.4,Win32,59.18560606,,,,,,,,,,,,,,,,,,,,,,,,,,,,,,,,,,,FALSE,16.4377,0.08984375,-0.35546875,1,0,0,,,,,,Trial #11,,5,5,0,1,1,1,1,12,,,,,,,,,,,,,,,,,,,,,,,,,,,,,,,,,,,,,,,,,,,,,,,,,,,,,,,,,,,,,,,,,,,,,,,,,,,,,,,,,,,,,,,,,,,,,,,,,,,,,,,,,,,,,,,,,,,,,,
,678536750213,BCA,05/10/2001,001,2023-04-09_17h06.19.496,OS3_Mult_verification,2022.2.4,Win32,59.18560606,,,,,,,,,,,,,,,,,,,,,,,,,,,,,,,,,,,FALSE,20.9164,0.0546875,-0.365885417,1,0,0,,,,,,Trial #11,,5,5,0,2,2,2,1,12,,,,,,,,,,,,,,,,,,,,,,,,,,,,,,,,,,,,,,,,,,,,,,,,,,,,,,,,,,,,,,,,,,,,,,,,,,,,,,,,,,,,,,,,,,,,,,,,,,,,,,,,,,,,,,,,,,,,,,
,678536750213,BCA,05/10/2001,001,2023-04-09_17h06.19.496,OS3_Mult_verification,2022.2.4,Win32,59.18560606,,,,,,,,,,,,,,,,,,,,,,,,,,,,,,,,,,,,,,,,,,,,,,,,,,,,,,,,,0,0,0,0,1,,,,,,,,,,,,,,,,,,,,,,,,,,,,,,,,,,,,,,,,,,,,,,,,,,,,,,,,,,,,,,,,,,,,,,,,,,,,,,,,,,,,,,,,,,,,,,,,,,,,,,,,,,,,,,,,,
,678536750213,BCA,05/10/2001,001,2023-04-09_17h06.19.496,OS3_Mult_verification,2022.2.4,Win32,59.18560606,,,,,,,,,,,,,,,,,,,,,,,,,,,,,,,,,,,,,,,,,,,,,,,,,,,,,,,,,,,,,,0,0,0,0,1,0,1,0,,,,,,,,,,,,,,,,,,,,,,,,,,,,,,,,,,,,,,,,,,,,,,,,,,,,,,,,,,,,,,,,,,,,,,,,,,,,,,,,,,,,,,,,,,,,,,,,,,,,,,,,,
,678536750213,BCA,05/10/2001,001,2023-04-09_17h06.19.496,OS3_Mult_verification,2022.2.4,Win32,59.18560606,,,,,,,,,,,,,,,,space,0.543,,,,,,,,,,,,,,,,,,,,,,,,,,,,,,,,,,,,,,,,,,,,,,,,,,,,,space,0.4982,123,3.3424,1,"[""1"",""2"",""3"",""return""]","[0.8260999999642991,2.1135000000000446,3.1410000000000764,3.302099999964298]",0,0,0,0,1,3,123,Audio/123.mp3,practice,,,,,,,,,,,,,,,,,,,,,,,,,,,,,,,,,,,,,,,,,,,,,,,,,,,,,,,,,,,,,,,,,,,,,,,,,,,,,,,,,,,,,,,,,
,678536750213,BCA,05/10/2001,001,2023-04-09_17h06.19.496,OS3_Mult_verification,2022.2.4,Win32,59.18560606,,,,,,,,,,,,,,,,,,,,,,,,,,,,,,,,,,,,,,,,,,,,,,,,,,,,,,,,,,,,,,,,,,,,,,,,911,2.2071,1,"[""9"",""1"",""1"",""return""]","[0.5439999999999827,1.07730000001186,1.6878000000118618,2.1596999999881064]",0,1,1,2,1,3,911,Audio/911.mp3,practice,,,,,,,,,,,,,,,,,,,,,,,,,,,,,,,,,,,,,,,,,,,,,,,,,,,,,,,,,,,,,,,,,,,,,,,,,,,,,,,,,,,,,,,,,
,678536750213,BCA,05/10/2001,001,2023-04-09_17h06.19.496,OS3_Mult_verification,2022.2.4,Win32,59.18560606,,,,,,,,,,,,,,,,,,,,,,,,,,,,,,,,,,,,,,,,,,,,,,,,,,,,,,,,,,,,,,,,,,,,,,,,321,1.9775,1,"[""3"",""2"",""1"",""return""]","[0.3521999999881018,0.8115000000000236,1.3946999999880063,1.94219999998802]",0,2,2,1,1,3,321,Audio/321.mp3,practice,,,,,,,,,,,,,,,,,,,,,,,,,,,,,,,,,,,,,,,,,,,,,,,,,,,,,,,,,,,,,,,,,,,,,,,,,,,,,,,,,,,,,,,,,
,678536750213,BCA,05/10/2001,001,2023-04-09_17h06.19.496,OS3_Mult_verification,2022.2.4,Win32,59.18560606,,,,,,,,,,,,,,,,,,,,,,,,,,,,,,,,,,,,,,,,,,,,,,,,,,,,,,,,,,,,,,,,,,,,,,,,97,1.6655,1,"[""9"",""7"",""return""]","[0.7474999999999454,1.0665999999641826,1.6329999999999245]",,,,,,2,97,Audio/97.mp3,WAIS,0,0,0,0,1,,,,,,,,,,,,,,,,,,,,,,,,,,,,,,,,,,,,,,,,,,,,,,,,,,,,,,,,,,,,,,,,,,,,,,,,,,,,,,,,,,,,
,678536750213,BCA,05/10/2001,001,2023-04-09_17h06.19.496,OS3_Mult_verification,2022.2.4,Win32,59.18560606,,,,,,,,,,,,,,,,,,,,,,,,,,,,,,,,,,,,,,,,,,,,,,,,,,,,,,,,,,,,,,,,,,,,,,,,63,1.7906,1,"[""6"",""3"",""return""]","[0.736399999976129,1.0389999999999873,1.7598999999761418]",,,,,,2,63,Audio/63.mp3,WAIS,0,1,1,1,1,,,,,,,,,,,,,,,,,,,,,,,,,,,,,,,,,,,,,,,,,,,,,,,,,,,,,,,,,,,,,,,,,,,,,,,,,,,,,,,,,,,,
,678536750213,BCA,05/10/2001,001,2023-04-09_17h06.19.496,OS3_Mult_verification,2022.2.4,Win32,59.18560606,,,,,,,,,,,,,,,,,,,,,,,,,,,,,,,,,,,,,,,,,,,,,,,,,,,,,,,,,,,,,,,,,,,,,,,,,,,,,,,,,,,,,,,,,,,0,0,0,0,1,digitSpan_stim/twoWAIS.xlsx,,,,,,,,,,,,,,,,,,,,,,,,,,,,,,,,,,,,,,,,,,,,,,,,,,,,,,,,,,,,,,,,,,,,,,,,,,,,,,
,678536750213,BCA,05/10/2001,001,2023-04-09_17h06.19.496,OS3_Mult_verification,2022.2.4,Win32,59.18560606,,,,,,,,,,,,,,,,,,,,,,,,,,,,,,,,,,,,,,,,,,,,,,,,,,,,,,,,,,,,,,,,,,,,,,,,582,2.3327,1,"[""5"",""8"",""2"",""return""]","[0.5814000000357282,1.4981000000237827,1.9584000000357946,2.2889999999999873]",,,,,,3,582,Audio/582.mp3,WAIS,0,0,0,0,1,,,,,,,,,,,,,,,,,,,,,,,,,,,,,,,,,,,,,,,,,,,,,,,,,,,,,,,,,,,,,,,,,,,,,,,,,,,,,,,,,,,,
,678536750213,BCA,05/10/2001,001,2023-04-09_17h06.19.496,OS3_Mult_verification,2022.2.4,Win32,59.18560606,,,,,,,,,,,,,,,,,,,,,,,,,,,,,,,,,,,,,,,,,,,,,,,,,,,,,,,,,,,,,,,,,,,,,,,,694,1.2718,1,"[""6"",""9"",""4"",""return""]","[0.45150000000001,0.646100000023921,0.8136999999881027,1.2283000000119273]",,,,,,3,694,Audio/694.mp3,WAIS,0,1,1,1,1,,,,,,,,,,,,,,,,,,,,,,,,,,,,,,,,,,,,,,,,,,,,,,,,,,,,,,,,,,,,,,,,,,,,,,,,,,,,,,,,,,,,
,678536750213,BCA,05/10/2001,001,2023-04-09_17h06.19.496,OS3_Mult_verification,2022.2.4,Win32,59.18560606,,,,,,,,,,,,,,,,,,,,,,,,,,,,,,,,,,,,,,,,,,,,,,,,,,,,,,,,,,,,,,,,,,,,,,,,,,,,,,,,,,,,,,,,,,,0,1,1,1,1,digitSpan_stim/threeWAIS.xlsx,,,,,,,,,,,,,,,,,,,,,,,,,,,,,,,,,,,,,,,,,,,,,,,,,,,,,,,,,,,,,,,,,,,,,,,,,,,,,,
,678536750213,BCA,05/10/2001,001,2023-04-09_17h06.19.496,OS3_Mult_verification,2022.2.4,Win32,59.18560606,,,,,,,,,,,,,,,,,,,,,,,,,,,,,,,,,,,,,,,,,,,,,,,,,,,,,,,,,,,,,,,,,,,,,,,,7286,2.7128,1,"[""7"",""2"",""8"",""6"",""return""]","[1.3345000000000482,1.7091999999880727,2.00100000000009,2.271600000023909,2.667100000023879]",,,,,,4,7286,Audio/7286.mp3,WAIS,0,0,0,0,1,,,,,,,,,,,,,,,,,,,,,,,,,,,,,,,,,,,,,,,,,,,,,,,,,,,,,,,,,,,,,,,,,,,,,,,,,,,,,,,,,,,,
,678536750213,BCA,05/10/2001,001,2023-04-09_17h06.19.496,OS3_Mult_verification,2022.2.4,Win32,59.18560606,,,,,,,,,,,,,,,,,,,,,,,,,,,,,,,,,,,,,,,,,,,,,,,,,,,,,,,,,,,,,,,,,,,,,,,,6439,1.6586,1,"[""6"",""4"",""3"",""9"",""return""]","[0.38680000001193093,0.7094999999999345,0.9589999999999463,1.2507000000476864,1.6041000000237773]",,,,,,4,6439,Audio/6439.mp3,WAIS,0,1,1,1,1,,,,,,,,,,,,,,,,,,,,,,,,,,,,,,,,,,,,,,,,,,,,,,,,,,,,,,,,,,,,,,,,,,,,,,,,,,,,,,,,,,,,
,678536750213,BCA,05/10/2001,001,2023-04-09_17h06.19.496,OS3_Mult_verification,2022.2.4,Win32,59.18560606,,,,,,,,,,,,,,,,,,,,,,,,,,,,,,,,,,,,,,,,,,,,,,,,,,,,,,,,,,,,,,,,,,,,,,,,,,,,,,,,,,,,,,,,,,,0,2,2,2,1,digitSpan_stim/fourWAIS.xlsx,,,,,,,,,,,,,,,,,,,,,,,,,,,,,,,,,,,,,,,,,,,,,,,,,,,,,,,,,,,,,,,,,,,,,,,,,,,,,,
,678536750213,BCA,05/10/2001,001,2023-04-09_17h06.19.496,OS3_Mult_verification,2022.2.4,Win32,59.18560606,,,,,,,,,,,,,,,,,,,,,,,,,,,,,,,,,,,,,,,,,,,,,,,,,,,,,,,,,,,,,,,,,,,,,,,,42731,3.185,1,"[""4"",""2"",""7"",""3"",""1"",""return""]","[0.6453999999762345,1.10659999996426,1.5435999999642718,1.9180999999642836,2.2928000000119937,3.12889999997617]",,,,,,5,42731,Audio/42731.mp3,WAIS,0,0,0,0,1,,,,,,,,,,,,,,,,,,,,,,,,,,,,,,,,,,,,,,,,,,,,,,,,,,,,,,,,,,,,,,,,,,,,,,,,,,,,,,,,,,,,
,678536750213,BCA,05/10/2001,001,2023-04-09_17h06.19.496,OS3_Mult_verification,2022.2.4,Win32,59.18560606,,,,,,,,,,,,,,,,,,,,,,,,,,,,,,,,,,,,,,,,,,,,,,,,,,,,,,,,,,,,,,,,,,,,,,,,75836,2.7487,1,"[""7"",""5"",""8"",""3"",""6"",""return""]","[0.596599999964269,0.9021999999880563,1.396899999976199,1.7100000000000364,2.0634999999999764,2.6880999999642654]",,,,,,5,75836,Audio/75836.mp3,WAIS,0,1,1,1,1,,,,,,,,,,,,,,,,,,,,,,,,,,,,,,,,,,,,,,,,,,,,,,,,,,,,,,,,,,,,,,,,,,,,,,,,,,,,,,,,,,,,
,678536750213,BCA,05/10/2001,001,2023-04-09_17h06.19.496,OS3_Mult_verification,2022.2.4,Win32,59.18560606,,,,,,,,,,,,,,,,,,,,,,,,,,,,,,,,,,,,,,,,,,,,,,,,,,,,,,,,,,,,,,,,,,,,,,,,,,,,,,,,,,,,,,,,,,,0,3,3,3,1,digitSpan_stim/fiveWAIS.xlsx,,,,,,,,,,,,,,,,,,,,,,,,,,,,,,,,,,,,,,,,,,,,,,,,,,,,,,,,,,,,,,,,,,,,,,,,,,,,,,
,678536750213,BCA,05/10/2001,001,2023-04-09_17h06.19.496,OS3_Mult_verification,2022.2.4,Win32,59.18560606,,,,,,,,,,,,,,,,,,,,,,,,,,,,,,,,,,,,,,,,,,,,,,,,,,,,,,,,,,,,,,,,,,,,,,,,392487,25.2894,1,"[""3"",""backspace"",""9"",""backspace"",""3"",""9"",""2"",""8"",""backspace"",""4"",""8"",""7"",""return""]","[1.1123000000119418,3.1704999999999472,3.5031999999880554,4.792899999976157,5.173899999976129,5.482300000011946,6.292699999988031,8.209599999964212,16.084500000000048,24.355800000011868,24.531300000011925,24.751099999964254,25.231800000011958]",,,,,,6,392487,Audio/392487.mp3,WAIS,0,0,0,0,1,,,,,,,,,,,,,,,,,,,,,,,,,,,,,,,,,,,,,,,,,,,,,,,,,,,,,,,,,,,,,,,,,,,,,,,,,,,,,,,,,,,,
,678536750213,BCA,05/10/2001,001,2023-04-09_17h06.19.496,OS3_Mult_verification,2022.2.4,Win32,59.18560606,,,,,,,,,,,,,,,,,,,,,,,,,,,,,,,,,,,,,,,,,,,,,,,,,,,,,,,,,,,,,,,,,,,,,,,,619437,4.5609,0,"[""9"",""4"",""backspace"",""backspace"",""6"",""1"",""9"",""4"",""3"",""7"",""return""]","[0.0037999999523208317,0.2585999999643036,1.4171999999880427,1.5639999999999645,2.1238999999761745,2.3558999999761454,2.709500000000048,3.3695999999642936,3.6466999999880727,3.824299999952359,4.503000000000043]",,,,,,6,619473,Audio/619473.mp3,WAIS,0,1,1,1,1,,,,,,,,,,,,,,,,,,,,,,,,,,,,,,,,,,,,,,,,,,,,,,,,,,,,,,,,,,,,,,,,,,,,,,,,,,,,,,,,,,,,
,678536750213,BCA,05/10/2001,001,2023-04-09_17h06.19.496,OS3_Mult_verification,2022.2.4,Win32,59.18560606,,,,,,,,,,,,,,,,,,,,,,,,,,,,,,,,,,,,,,,,,,,,,,,,,,,,,,,,,,,,,,,,,,,,,,,,,,,,,,,,,,,,,,,,,,,0,4,4,4,1,digitSpan_stim/sixWAIS.xlsx,,,,,,,,,,,,,,,,,,,,,,,,,,,,,,,,,,,,,,,,,,,,,,,,,,,,,,,,,,,,,,,,,,,,,,,,,,,,,,
,678536750213,BCA,05/10/2001,001,2023-04-09_17h06.19.496,OS3_Mult_verification,2022.2.4,Win32,59.18560606,,,,,,,,,,,,,,,,,,,,,,,,,,,,,,,,,,,,,,,,,,,,,,,,,,,,,,,,,,,,,,,,,,,,,,,,619728,9.7278,0,"[""6"",""1"",""9"",""7"",""2"",""8"",""return""]","[0.9182999999522963,1.668599999964158,2.4947999999523063,2.9711999999880163,7.584699999988061,8.297799999952304,9.674299999952268]",,,,,,7,6917428,Audio/6917428.mp3,WAIS,0,0,0,0,1,,,,,,,,,,,,,,,,,,,,,,,,,,,,,,,,,,,,,,,,,,,,,,,,,,,,,,,,,,,,,,,,,,,,,,,,,,,,,,,,,,,,
,678536750213,BCA,05/10/2001,001,2023-04-09_17h06.19.496,OS3_Mult_verification,2022.2.4,Win32,59.18560606,,,,,,,,,,,,,,,,,,,,,,,,,,,,,,,,,,,,,,,,,,,,,,,,,,,,,,,,,,,,,,,,,,,,,,,,419373,12.7435,0,"[""4"",""1"",""9"",""3"",""7"",""3"",""return""]","[0.5639999999999645,0.88980000001186,1.322999999999979,1.6558000000119364,5.312000000000012,6.80499999999995,12.702499999999986]",,,,,,7,4179386,Audio/4179386.mp3,WAIS,0,1,1,1,1,,,,,,,,,,,,,,,,,,,,,,,,,,,,,,,,,,,,,,,,,,,,,,,,,,,,,,,,,,,,,,,,,,,,,,,,,,,,,,,,,,,,
,678536750213,BCA,05/10/2001,001,2023-04-09_17h06.19.496,OS3_Mult_verification,2022.2.4,Win32,59.18560606,,,,,,,,,,,,,,,,,,,,,,,,,,,,,,,,,,,,,,,,,,,,,,,,,,,,,,,,,,,,,,,,,,,,,,,,,,,,,,,,,,WAIS,,,,,,,,,,,,,,,0,0,0,1,1,digitSpan_stim/WAIS.xlsx,,,,,,,,,,,,,,,,,,,,,,,,,,,,,,,,,,,,,,,,,,,,,,,,,,,,,,,,,,,,,,,,,,,,,,,,
,678536750213,BCA,05/10/2001,001,2023-04-09_17h06.19.496,OS3_Mult_verification,2022.2.4,Win32,59.18560606,,,,,,,,,,,,,,,,,,,,,,,,,,,,,,,,,,,,,,,,,,,,,,,,,,,,,,,,,,,,,,,,,,,,,,,,46,1.6657,1,"[""4"",""6"",""return""]","[0.9268000000117809,1.0839000000355554,1.6243000000117718]",,,,,,2,46,Audio/46.mp3,EGNER,0,0,0,0,1,,,,,,,,,,,,,,,,,,,,,,,,,,,,,,,,,,,,,,,,,,,,,,,,,,,,,,,,,,,,,,,,,,,,,,,,,,,,,,,,,,,,
,678536750213,BCA,05/10/2001,001,2023-04-09_17h06.19.496,OS3_Mult_verification,2022.2.4,Win32,59.18560606,,,,,,,,,,,,,,,,,,,,,,,,,,,,,,,,,,,,,,,,,,,,,,,,,,,,,,,,,,,,,,,,,,,,,,,,82,1.2283,1,"[""8"",""2"",""return""]","[0.47669999998811363,0.6850999999642227,1.1903999999763073]",,,,,,2,82,Audio/82.mp3,EGNER,0,1,1,1,1,,,,,,,,,,,,,,,,,,,,,,,,,,,,,,,,,,,,,,,,,,,,,,,,,,,,,,,,,,,,,,,,,,,,,,,,,,,,,,,,,,,,
,678536750213,BCA,05/10/2001,001,2023-04-09_17h06.19.496,OS3_Mult_verification,2022.2.4,Win32,59.18560606,,,,,,,,,,,,,,,,,,,,,,,,,,,,,,,,,,,,,,,,,,,,,,,,,,,,,,,,,,,,,,,,,,,,,,,,,,,,,,,,,,,,,,,,,,,0,0,0,0,1,digitSpan_stim/twoAudio.xlsx,,,,,,,,,,,,,,,,,,,,,,,,,,,,,,,,,,,,,,,,,,,,,,,,,,,,,,,,,,,,,,,,,,,,,,,,,,,,,,
,678536750213,BCA,05/10/2001,001,2023-04-09_17h06.19.496,OS3_Mult_verification,2022.2.4,Win32,59.18560606,,,,,,,,,,,,,,,,,,,,,,,,,,,,,,,,,,,,,,,,,,,,,,,,,,,,,,,,,,,,,,,,,,,,,,,,157,3.2282,1,"[""1"",""5"",""7"",""return""]","[1.739200000047731,2.18620000004762,2.426200000047629,3.1857000000477456]",,,,,,3,157,Audio/157.mp3,EGNER,0,0,0,0,1,,,,,,,,,,,,,,,,,,,,,,,,,,,,,,,,,,,,,,,,,,,,,,,,,,,,,,,,,,,,,,,,,,,,,,,,,,,,,,,,,,,,
,678536750213,BCA,05/10/2001,001,2023-04-09_17h06.19.496,OS3_Mult_verification,2022.2.4,Win32,59.18560606,,,,,,,,,,,,,,,,,,,,,,,,,,,,,,,,,,,,,,,,,,,,,,,,,,,,,,,,,,,,,,,,,,,,,,,,397,1.8325,1,"[""3"",""9"",""7"",""return""]","[0.67009999996435,0.989699999988261,1.3401999999882719,1.7923000000118918]",,,,,,3,397,Audio/397.mp3,EGNER,0,1,1,1,1,,,,,,,,,,,,,,,,,,,,,,,,,,,,,,,,,,,,,,,,,,,,,,,,,,,,,,,,,,,,,,,,,,,,,,,,,,,,,,,,,,,,
,678536750213,BCA,05/10/2001,001,2023-04-09_17h06.19.496,OS3_Mult_verification,2022.2.4,Win32,59.18560606,,,,,,,,,,,,,,,,,,,,,,,,,,,,,,,,,,,,,,,,,,,,,,,,,,,,,,,,,,,,,,,,,,,,,,,,,,,,,,,,,,,,,,,,,,,0,1,1,1,1,digitSpan_stim/threeAudio.xlsx,,,,,,,,,,,,,,,,,,,,,,,,,,,,,,,,,,,,,,,,,,,,,,,,,,,,,,,,,,,,,,,,,,,,,,,,,,,,,,
,678536750213,BCA,05/10/2001,001,2023-04-09_17h06.19.496,OS3_Mult_verification,2022.2.4,Win32,59.18560606,,,,,,,,,,,,,,,,,,,,,,,,,,,,,,,,,,,,,,,,,,,,,,,,,,,,,,,,,,,,,,,,,,,,,,,,6352,3.9779,1,"[""6"",""3"",""5"",""2"",""return""]","[1.70819999998821,1.9380000000001019,2.854000000000042,3.16359999996439,3.9318999999761672]",,,,,,4,6352,Audio/6352.mp3,EGNER,0,0,0,0,1,,,,,,,,,,,,,,,,,,,,,,,,,,,,,,,,,,,,,,,,,,,,,,,,,,,,,,,,,,,,,,,,,,,,,,,,,,,,,,,,,,,,
,678536750213,BCA,05/10/2001,001,2023-04-09_17h06.19.496,OS3_Mult_verification,2022.2.4,Win32,59.18560606,,,,,,,,,,,,,,,,,,,,,,,,,,,,,,,,,,,,,,,,,,,,,,,,,,,,,,,,,,,,,,,,,,,,,,,,9184,4.7282,1,"[""9"",""1"",""8"",""4"",""return""]","[2.7106999999880372,3.2059999999999036,3.714099999964219,3.991599999964137,4.69119999998793]",,,,,,4,9184,Audio/9184.mp3,EGNER,0,1,1,1,1,,,,,,,,,,,,,,,,,,,,,,,,,,,,,,,,,,,,,,,,,,,,,,,,,,,,,,,,,,,,,,,,,,,,,,,,,,,,,,,,,,,,
,678536750213,BCA,05/10/2001,001,2023-04-09_17h06.19.496,OS3_Mult_verification,2022.2.4,Win32,59.18560606,,,,,,,,,,,,,,,,,,,,,,,,,,,,,,,,,,,,,,,,,,,,,,,,,,,,,,,,,,,,,,,,,,,,,,,,,,,,,,,,,,,,,,,,,,,0,2,2,2,1,digitSpan_stim/fourAudio.xlsx,,,,,,,,,,,,,,,,,,,,,,,,,,,,,,,,,,,,,,,,,,,,,,,,,,,,,,,,,,,,,,,,,,,,,,,,,,,,,,
,678536750213,BCA,05/10/2001,001,2023-04-09_17h06.19.496,OS3_Mult_verification,2022.2.4,Win32,59.18560606,,,,,,,,,,,,,,,,,,,,,,,,,,,,,,,,,,,,,,,,,,,,,,,,,,,,,,,,,,,,,,,,,,,,,,,,59281,4.395,1,"[""5"",""9"",""2"",""8"",""1"",""return""]","[1.2188999999762018,2.0041999999880318,3.131399999976111,3.43879999995238,3.6368999999760945,4.351199999988239]",,,,,,5,59281,Audio/59281.mp3,EGNER,0,0,0,0,1,,,,,,,,,,,,,,,,,,,,,,,,,,,,,,,,,,,,,,,,,,,,,,,,,,,,,,,,,,,,,,,,,,,,,,,,,,,,,,,,,,,,
,678536750213,BCA,05/10/2001,001,2023-04-09_17h06.19.496,OS3_Mult_verification,2022.2.4,Win32,59.18560606,,,,,,,,,,,,,,,,,,,,,,,,,,,,,,,,,,,,,,,,,,,,,,,,,,,,,,,,,,,,,,,,,,,,,,,,694738,25.8108,0,"[""6"",""9"",""4"",""7"",""3"",""8"",""return""]","[3.890100000023722,4.196700000047713,7.820600000023887,8.759900000035714,9.171700000047622,9.58270000004768,25.749900000035723]",,,,,,5,64738,Audio/64738.mp3,EGNER,0,1,1,1,1,,,,,,,,,,,,,,,,,,,,,,,,,,,,,,,,,,,,,,,,,,,,,,,,,,,,,,,,,,,,,,,,,,,,,,,,,,,,,,,,,,,,
,678536750213,BCA,05/10/2001,001,2023-04-09_17h06.19.496,OS3_Mult_verification,2022.2.4,Win32,59.18560606,,,,,,,,,,,,,,,,,,,,,,,,,,,,,,,,,,,,,,,,,,,,,,,,,,,,,,,,,,,,,,,,,,,,,,,,,,,,,,,,,,,,,,,,,,,0,3,3,3,1,digitSpan_stim/fiveAudio.xlsx,,,,,,,,,,,,,,,,,,,,,,,,,,,,,,,,,,,,,,,,,,,,,,,,,,,,,,,,,,,,,,,,,,,,,,,,,,,,,,
,678536750213,BCA,05/10/2001,001,2023-04-09_17h06.19.496,OS3_Mult_verification,2022.2.4,Win32,59.18560606,,,,,,,,,,,,,,,,,,,,,,,,,,,,,,,,,,,,,,,,,,,,,,,,,,,,,,,,,,,,,,,,,,,,,,,,392372,22.6868,0,"[""3"",""9"",""2"",""3"",""7"",""2"",""return""]","[19.742999999999938,19.896799999952236,20.064499999999953,20.376099999964254,21.27129999995236,21.757299999952238,22.645299999952385]",,,,,,6,396172,Audio/396172.mp3,EGNER,0,0,0,0,1,,,,,,,,,,,,,,,,,,,,,,,,,,,,,,,,,,,,,,,,,,,,,,,,,,,,,,,,,,,,,,,,,,,,,,,,,,,,,,,,,,,,
,678536750213,BCA,05/10/2001,001,2023-04-09_17h06.19.496,OS3_Mult_verification,2022.2.4,Win32,59.18560606,,,,,,,,,,,,,,,,,,,,,,,,,,,,,,,,,,,,,,,,,,,,,,,,,,,,,,,,,,,,,,,,,,,,,,,,594631,6.2745,1,"[""5"",""9"",""4"",""6"",""3"",""1"",""return""]","[3.500699999988001,3.98050000000012,4.3162999999524345,4.8602999999523036,5.27719999998817,5.464500000000044,6.210499999999911]",,,,,,6,594631,Audio/594631.mp3,EGNER,0,1,1,1,1,,,,,,,,,,,,,,,,,,,,,,,,,,,,,,,,,,,,,,,,,,,,,,,,,,,,,,,,,,,,,,,,,,,,,,,,,,,,,,,,,,,,
,678536750213,BCA,05/10/2001,001,2023-04-09_17h06.19.496,OS3_Mult_verification,2022.2.4,Win32,59.18560606,,,,,,,,,,,,,,,,,,,,,,,,,,,,,,,,,,,,,,,,,,,,,,,,,,,,,,,,,,,,,,,,,,,,,,,,,,,,,,,,,,,,,,,,,,,0,4,4,4,1,digitSpan_stim/sixAudio.xlsx,,,,,,,,,,,,,,,,,,,,,,,,,,,,,,,,,,,,,,,,,,,,,,,,,,,,,,,,,,,,,,,,,,,,,,,,,,,,,,
,678536750213,BCA,05/10/2001,001,2023-04-09_17h06.19.496,OS3_Mult_verification,2022.2.4,Win32,59.18560606,,,,,,,,,,,,,,,,,,,,,,,,,,,,,,,,,,,,,,,,,,,,,,,,,,,,,,,,,,,,,,,,,,,,,,,,8241973,7.7694,1,"[""8"",""2"",""4"",""1"",""9"",""7"",""3"",""return""]","[4.47280000001183,4.967999999999847,5.334899999976187,5.667500000000018,6.250699999988001,6.584699999988061,7.0636000000238255,7.708800000011934]",,,,,,7,8241973,Audio/8241973.mp3,EGNER,0,0,0,0,1,,,,,,,,,,,,,,,,,,,,,,,,,,,,,,,,,,,,,,,,,,,,,,,,,,,,,,,,,,,,,,,,,,,,,,,,,,,,,,,,,,,,
,678536750213,BCA,05/10/2001,001,2023-04-09_17h06.19.496,OS3_Mult_verification,2022.2.4,Win32,59.18560606,,,,,,,,,,,,,,,,,,,,,,,,,,,,,,,,,,,,,,,,,,,,,,,,,,,,,,,,,,,,,,,,,,,,,,,,2814387,8.6878,0,"[""2"",""8"",""1"",""4"",""3"",""8"",""7"",""return""]","[2.8134999999999764,3.2738000000119882,3.66800000000012,3.9594000000358847,4.800800000012032,7.3759000000359265,7.792600000023867,8.645400000035806]",,,,,,7,2814367,Audio/2814367.mp3,EGNER,0,1,1,1,1,,,,,,,,,,,,,,,,,,,,,,,,,,,,,,,,,,,,,,,,,,,,,,,,,,,,,,,,,,,,,,,,,,,,,,,,,,,,,,,,,,,,
,678536750213,BCA,05/10/2001,001,2023-04-09_17h06.19.496,OS3_Mult_verification,2022.2.4,Win32,59.18560606,,,,,,,,,,,,,,,,,,,,,,,,,,,,,,,,,,,,,,,,,,,,,,,,,,,,,,,,,,,,,,,,,,,,,,,,,,,,,,,,,,,,,,,,,,,0,5,5,5,1,digitSpan_stim/sevenAudio.xlsx,,,,,,,,,,,,,,,,,,,,,,,,,,,,,,,,,,,,,,,,,,,,,,,,,,,,,,,,,,,,,,,,,,,,,,,,,,,,,,
,678536750213,BCA,05/10/2001,001,2023-04-09_17h06.19.496,OS3_Mult_verification,2022.2.4,Win32,59.18560606,,,,,,,,,,,,,,,,,,,,,,,,,,,,,,,,,,,,,,,,,,,,,,,,,,,,,,,,,,,,,,,,,,,,,,,,53827183,44.1865,0,"[""5"",""3"",""2"",""backspace"",""8"",""2"",""7"",""1"",""1"",""backspace"",""8"",""3"",""return""]","[4.035300000012057,4.3904999999999745,4.901200000047766,6.035900000035781,6.438100000023951,6.918600000023844,11.260800000011841,11.763400000035745,34.667200000047615,36.29270000004772,41.437200000047824,41.61370000004763,44.124500000000126]",,,,,,8,53827164,Audio/53827164.mp3,EGNER,0,0,0,0,1,,,,,,,,,,,,,,,,,,,,,,,,,,,,,,,,,,,,,,,,,,,,,,,,,,,,,,,,,,,,,,,,,,,,,,,,,,,,,,,,,,,,
,678536750213,BCA,05/10/2001,001,2023-04-09_17h06.19.496,OS3_Mult_verification,2022.2.4,Win32,59.18560606,,,,,,,,,,,,,,,,,,,,,,,,,,,,,,,,,,,,,,,,,,,,,,,,,,,,,,,,,,,,,,,,,,,,,,,,75247139,8.6239,0,"[""7"",""5"",""2"",""4"",""7"",""1"",""3"",""9"",""return""]","[3.742100000023811,4.239199999988159,4.667900000035843,4.95980000001191,6.4729000000359065,6.952100000023847,7.463800000012043,7.937100000023975,8.576600000023973]",,,,,,8,75241739,Audio/75241739.mp3,EGNER,0,1,1,1,1,,,,,,,,,,,,,,,,,,,,,,,,,,,,,,,,,,,,,,,,,,,,,,,,,,,,,,,,,,,,,,,,,,,,,,,,,,,,,,,,,,,,
,678536750213,BCA,05/10/2001,001,2023-04-09_17h06.19.496,OS3_Mult_verification,2022.2.4,Win32,59.18560606,,,,,,,,,,,,,,,,,,,,,,,,,,,,,,,,,,,,,,,,,,,,,,,,,,,,,,,,,,,,,,,,,,,,,,,,,,,,,,,,,,Egner,,,,,,,,,,,,,,,0,1,1,0,1,digitSpan_stim/Egner.xlsx,,,,,,,,,,,,,,,,,,,,,,,,,,,,,,,,,,,,,,,,,,,,,,,,,,,,,,,,,,,,,,,,,,,,,,,,
,678536750213,BCA,05/10/2001,001,2023-04-09_17h06.19.496,OS3_Mult_verification,2022.2.4,Win32,59.18560606,,,,,,,,,,,,,,,,,,,,,,,,,,,,,,,,,,,,,,,,,,,,,,,,,,,,,,,,,,,,,,,,,,,,,,,,,,,,,,,,,,,,,,,,,,,,,,,,,,,,,,,0,0,0,0,1,,,,,,,,,,,,,,,,,,,,,,,,,,,,,,,,,,,,,,,,,,,,,,,,,,,,,,,,,,,,,,,,,,,
,678536750213,BCA,05/10/2001,001,2023-04-09_17h06.19.496,OS3_Mult_verification,2022.2.4,Win32,59.18560606,,,,,,,,,,,,,,,,,,,,,,,,,,,,,,,,,,,,,,,,,,,,,,,,,,,,,,,,,,,,,,0,1,1,1,1,0,0,1,,,,,,,,,,,,,,,,,,,,,,,,,,,,,,,,,,,,,,,,,,,,,,,,,,,,,,,,,,,,,,,,,,,,,,,,,,,,,,,,,,,,,,,,,,,,,,,,,,,,,,,,,
,678536750213,BCA,05/10/2001,001,2023-04-09_17h06.19.496,OS3_Mult_verification,2022.2.4,Win32,59.18560606,,,,,,,,,,,,,,,,space,0.9179,,,,,,,,,,,,,,,,,,,,,,,,,,,,,,,,,,,,,,,,,,,,,,,,,,,,,,,,,,,,,,,,,,,,,,,,,,,,,,,,,,,,,,,,,,,left,1,1.1551,0,0,0,0,1,practice,9,8,9 | 8,1,0.065,0.05,congruent,left,,,,,,,,,,,,,,,,,,,,,,,,,,,,,,,,,,,,,,,,,,,,,,,,,,
,678536750213,BCA,05/10/2001,001,2023-04-09_17h06.19.496,OS3_Mult_verification,2022.2.4,Win32,59.18560606,,,,,,,,,,,,,,,,,,,,,,,,,,,,,,,,,,,,,,,,,,,,,,,,,,,,,,,,,,,,,,,,,,,,,,,,,,,,,,,,,,,,,,,,,,,,,,,,,,,,,,,,,,,,right,1,0.5967,0,1,1,1,1,practice,4,3,4 | 3,1,0.05,0.065,incongruent,right,,,,,,,,,,,,,,,,,,,,,,,,,,,,,,,,,,,,,,,,,,,,,,,,,,
,678536750213,BCA,05/10/2001,001,2023-04-09_17h06.19.496,OS3_Mult_verification,2022.2.4,Win32,59.18560606,,,,,,,,,,,,,,,,,,,,,,,,,,,,,,,,,,,,,,,,,,,,,,,,,,,,,,,,,,,,,,,,,,,,,,,,,,,,,,,,,,,,,,,,,,,,,,,,,,,,,,,,,,,,right,1,0.525,0,2,2,2,1,practice,9,9,9 | 9,0,0.05,0.065,neutral,right,,,,,,,,,,,,,,,,,,,,,,,,,,,,,,,,,,,,,,,,,,,,,,,,,,
,678536750213,BCA,05/10/2001,001,2023-04-09_17h06.19.496,OS3_Mult_verification,2022.2.4,Win32,59.18560606,,,,,,,,,,,,,,,,,,,,,,,,,,,,,,,,,,,,,,,,,,,,,,,,,,,,,,,,,,,,,,,,,,,,,,,,,,,,,,,,,,,,,,,,,,,,,,,,,,,,,,,,,,,,left,1,0.7494,,,,,,physical,1,1,1 | 1,0,0.065,0.05,neutral,left,0,0,0,48,1,,,,,,,,,,,,,,,,,,,,,,,,,,,,,,,,,,,,,,,,,,,,,
,678536750213,BCA,05/10/2001,001,2023-04-09_17h06.19.496,OS3_Mult_verification,2022.2.4,Win32,59.18560606,,,,,,,,,,,,,,,,,,,,,,,,,,,,,,,,,,,,,,,,,,,,,,,,,,,,,,,,,,,,,,,,,,,,,,,,,,,,,,,,,,,,,,,,,,,,,,,,,,,,,,,,,,,,right,1,0.6881,,,,,,physical,4,3,4 | 3,1,0.05,0.065,incongruent,right,0,1,1,29,1,,,,,,,,,,,,,,,,,,,,,,,,,,,,,,,,,,,,,,,,,,,,,
,678536750213,BCA,05/10/2001,001,2023-04-09_17h06.19.496,OS3_Mult_verification,2022.2.4,Win32,59.18560606,,,,,,,,,,,,,,,,,,,,,,,,,,,,,,,,,,,,,,,,,,,,,,,,,,,,,,,,,,,,,,,,,,,,,,,,,,,,,,,,,,,,,,,,,,,,,,,,,,,,,,,,,,,,right,1,0.5614,,,,,,physical,8,8,8 | 8,0,0.05,0.065,neutral,right,0,2,2,62,1,,,,,,,,,,,,,,,,,,,,,,,,,,,,,,,,,,,,,,,,,,,,,
,678536750213,BCA,05/10/2001,001,2023-04-09_17h06.19.496,OS3_Mult_verification,2022.2.4,Win32,59.18560606,,,,,,,,,,,,,,,,,,,,,,,,,,,,,,,,,,,,,,,,,,,,,,,,,,,,,,,,,,,,,,,,,,,,,,,,,,,,,,,,,,,,,,,,,,,,,,,,,,,,,,,,,,,,left,1,0.4799,,,,,,physical,7,6,7 | 6,1,0.065,0.05,congruent,left,0,3,3,6,1,,,,,,,,,,,,,,,,,,,,,,,,,,,,,,,,,,,,,,,,,,,,,
,678536750213,BCA,05/10/2001,001,2023-04-09_17h06.19.496,OS3_Mult_verification,2022.2.4,Win32,59.18560606,,,,,,,,,,,,,,,,,,,,,,,,,,,,,,,,,,,,,,,,,,,,,,,,,,,,,,,,,,,,,,,,,,,,,,,,,,,,,,,,,,,,,,,,,,,,,,,,,,,,,,,,,,,,right,1,0.4798,,,,,,physical,2,1,2 | 1,1,0.05,0.065,incongruent,right,0,4,4,28,1,,,,,,,,,,,,,,,,,,,,,,,,,,,,,,,,,,,,,,,,,,,,,
,678536750213,BCA,05/10/2001,001,2023-04-09_17h06.19.496,OS3_Mult_verification,2022.2.4,Win32,59.18560606,,,,,,,,,,,,,,,,,,,,,,,,,,,,,,,,,,,,,,,,,,,,,,,,,,,,,,,,,,,,,,,,,,,,,,,,,,,,,,,,,,,,,,,,,,,,,,,,,,,,,,,,,,,,right,1,0.5494,,,,,,physical,9,9,9 | 9,0,0.05,0.065,neutral,right,0,5,5,63,1,,,,,,,,,,,,,,,,,,,,,,,,,,,,,,,,,,,,,,,,,,,,,
,678536750213,BCA,05/10/2001,001,2023-04-09_17h06.19.496,OS3_Mult_verification,2022.2.4,Win32,59.18560606,,,,,,,,,,,,,,,,,,,,,,,,,,,,,,,,,,,,,,,,,,,,,,,,,,,,,,,,,,,,,,,,,,,,,,,,,,,,,,,,,,,,,,,,,,,,,,,,,,,,,,,,,,,,left,1,0.459,,,,,,physical,1,2,1 | 2,1,0.065,0.05,incongruent,left,0,6,6,24,1,,,,,,,,,,,,,,,,,,,,,,,,,,,,,,,,,,,,,,,,,,,,,
,678536750213,BCA,05/10/2001,001,2023-04-09_17h06.19.496,OS3_Mult_verification,2022.2.4,Win32,59.18560606,,,,,,,,,,,,,,,,,,,,,,,,,,,,,,,,,,,,,,,,,,,,,,,,,,,,,,,,,,,,,,,,,,,,,,,,,,,,,,,,,,,,,,,,,,,,,,,,,,,,,,,,,,,,left,1,0.4721,,,,,,physical,1,6,1 | 6,5,0.065,0.05,incongruent,left,0,7,7,40,1,,,,,,,,,,,,,,,,,,,,,,,,,,,,,,,,,,,,,,,,,,,,,
,678536750213,BCA,05/10/2001,001,2023-04-09_17h06.19.496,OS3_Mult_verification,2022.2.4,Win32,59.18560606,,,,,,,,,,,,,,,,,,,,,,,,,,,,,,,,,,,,,,,,,,,,,,,,,,,,,,,,,,,,,,,,,,,,,,,,,,,,,,,,,,,,,,,,,,,,,,,,,,,,,,,,,,,,right,1,0.4444,,,,,,physical,7,7,7 | 7,0,0.05,0.065,neutral,right,0,8,8,59,1,,,,,,,,,,,,,,,,,,,,,,,,,,,,,,,,,,,,,,,,,,,,,
,678536750213,BCA,05/10/2001,001,2023-04-09_17h06.19.496,OS3_Mult_verification,2022.2.4,Win32,59.18560606,,,,,,,,,,,,,,,,,,,,,,,,,,,,,,,,,,,,,,,,,,,,,,,,,,,,,,,,,,,,,,,,,,,,,,,,,,,,,,,,,,,,,,,,,,,,,,,,,,,,,,,,,,,,right,1,0.5567,,,,,,physical,8,3,8 | 3,5,0.05,0.065,incongruent,right,0,9,9,46,1,,,,,,,,,,,,,,,,,,,,,,,,,,,,,,,,,,,,,,,,,,,,,
,678536750213,BCA,05/10/2001,001,2023-04-09_17h06.19.496,OS3_Mult_verification,2022.2.4,Win32,59.18560606,,,,,,,,,,,,,,,,,,,,,,,,,,,,,,,,,,,,,,,,,,,,,,,,,,,,,,,,,,,,,,,,,,,,,,,,,,,,,,,,,,,,,,,,,,,,,,,,,,,,,,,,,,,,right,1,0.5022,,,,,,physical,7,2,7 | 2,5,0.05,0.065,incongruent,right,0,10,10,45,1,,,,,,,,,,,,,,,,,,,,,,,,,,,,,,,,,,,,,,,,,,,,,
,678536750213,BCA,05/10/2001,001,2023-04-09_17h06.19.496,OS3_Mult_verification,2022.2.4,Win32,59.18560606,,,,,,,,,,,,,,,,,,,,,,,,,,,,,,,,,,,,,,,,,,,,,,,,,,,,,,,,,,,,,,,,,,,,,,,,,,,,,,,,,,,,,,,,,,,,,,,,,,,,,,,,,,,,right,1,0.4381,,,,,,physical,3,8,3 | 8,5,0.05,0.065,congruent,right,0,11,11,18,1,,,,,,,,,,,,,,,,,,,,,,,,,,,,,,,,,,,,,,,,,,,,,
,678536750213,BCA,05/10/2001,001,2023-04-09_17h06.19.496,OS3_Mult_verification,2022.2.4,Win32,59.18560606,,,,,,,,,,,,,,,,,,,,,,,,,,,,,,,,,,,,,,,,,,,,,,,,,,,,,,,,,,,,,,,,,,,,,,,,,,,,,,,,,,,,,,,,,,,,,,,,,,,,,,,,,,,,right,1,0.5423,,,,,,physical,2,7,2 | 7,5,0.05,0.065,congruent,right,0,12,12,17,1,,,,,,,,,,,,,,,,,,,,,,,,,,,,,,,,,,,,,,,,,,,,,
,678536750213,BCA,05/10/2001,001,2023-04-09_17h06.19.496,OS3_Mult_verification,2022.2.4,Win32,59.18560606,,,,,,,,,,,,,,,,,,,,,,,,,,,,,,,,,,,,,,,,,,,,,,,,,,,,,,,,,,,,,,,,,,,,,,,,,,,,,,,,,,,,,,,,,,,,,,,,,,,,,,,,,,,,left,1,0.4374,,,,,,physical,6,7,6 | 7,1,0.065,0.05,incongruent,left,0,13,13,26,1,,,,,,,,,,,,,,,,,,,,,,,,,,,,,,,,,,,,,,,,,,,,,
,678536750213,BCA,05/10/2001,001,2023-04-09_17h06.19.496,OS3_Mult_verification,2022.2.4,Win32,59.18560606,,,,,,,,,,,,,,,,,,,,,,,,,,,,,,,,,,,,,,,,,,,,,,,,,,,,,,,,,,,,,,,,,,,,,,,,,,,,,,,,,,,,,,,,,,,,,,,,,,,,,,,,,,,,left,1,0.4174,,,,,,physical,8,9,8 | 9,1,0.065,0.05,incongruent,left,0,14,14,27,1,,,,,,,,,,,,,,,,,,,,,,,,,,,,,,,,,,,,,,,,,,,,,
,678536750213,BCA,05/10/2001,001,2023-04-09_17h06.19.496,OS3_Mult_verification,2022.2.4,Win32,59.18560606,,,,,,,,,,,,,,,,,,,,,,,,,,,,,,,,,,,,,,,,,,,,,,,,,,,,,,,,,,,,,,,,,,,,,,,,,,,,,,,,,,,,,,,,,,,,,,,,,,,,,,,,,,,,left,1,0.5065,,,,,,physical,2,1,2 | 1,1,0.065,0.05,congruent,left,0,15,15,4,1,,,,,,,,,,,,,,,,,,,,,,,,,,,,,,,,,,,,,,,,,,,,,
,678536750213,BCA,05/10/2001,001,2023-04-09_17h06.19.496,OS3_Mult_verification,2022.2.4,Win32,59.18560606,,,,,,,,,,,,,,,,,,,,,,,,,,,,,,,,,,,,,,,,,,,,,,,,,,,,,,,,,,,,,,,,,,,,,,,,,,,,,,,,,,,,,,,,,,,,,,,,,,,,,,,,,,,,right,1,0.5092,,,,,,physical,4,4,4 | 4,0,0.05,0.065,neutral,right,0,16,16,61,1,,,,,,,,,,,,,,,,,,,,,,,,,,,,,,,,,,,,,,,,,,,,,
,678536750213,BCA,05/10/2001,001,2023-04-09_17h06.19.496,OS3_Mult_verification,2022.2.4,Win32,59.18560606,,,,,,,,,,,,,,,,,,,,,,,,,,,,,,,,,,,,,,,,,,,,,,,,,,,,,,,,,,,,,,,,,,,,,,,,,,,,,,,,,,,,,,,,,,,,,,,,,,,,,,,,,,,,right,1,0.5029,,,,,,physical,3,3,3 | 3,0,0.05,0.065,neutral,right,0,17,17,60,1,,,,,,,,,,,,,,,,,,,,,,,,,,,,,,,,,,,,,,,,,,,,,
,678536750213,BCA,05/10/2001,001,2023-04-09_17h06.19.496,OS3_Mult_verification,2022.2.4,Win32,59.18560606,,,,,,,,,,,,,,,,,,,,,,,,,,,,,,,,,,,,,,,,,,,,,,,,,,,,,,,,,,,,,,,,,,,,,,,,,,,,,,,,,,,,,,,,,,,,,,,,,,,,,,,,,,,,left,1,0.5006,,,,,,physical,3,4,3 | 4,1,0.065,0.05,incongruent,left,0,18,18,25,1,,,,,,,,,,,,,,,,,,,,,,,,,,,,,,,,,,,,,,,,,,,,,
,678536750213,BCA,05/10/2001,001,2023-04-09_17h06.19.496,OS3_Mult_verification,2022.2.4,Win32,59.18560606,,,,,,,,,,,,,,,,,,,,,,,,,,,,,,,,,,,,,,,,,,,,,,,,,,,,,,,,,,,,,,,,,,,,,,,,,,,,,,,,,,,,,,,,,,,,,,,,,,,,,,,,,,,,left,1,0.4802,,,,,,physical,4,3,4 | 3,1,0.065,0.05,congruent,left,0,19,19,5,1,,,,,,,,,,,,,,,,,,,,,,,,,,,,,,,,,,,,,,,,,,,,,
,678536750213,BCA,05/10/2001,001,2023-04-09_17h06.19.496,OS3_Mult_verification,2022.2.4,Win32,59.18560606,,,,,,,,,,,,,,,,,,,,,,,,,,,,,,,,,,,,,,,,,,,,,,,,,,,,,,,,,,,,,,,,,,,,,,,,,,,,,,,,,,,,,,,,,,,,,,,,,,,,,,,,,,,,left,1,0.4707,,,,,,physical,6,6,6 | 6,0,0.065,0.05,neutral,left,0,20,20,68,1,,,,,,,,,,,,,,,,,,,,,,,,,,,,,,,,,,,,,,,,,,,,,
,678536750213,BCA,05/10/2001,001,2023-04-09_17h06.19.496,OS3_Mult_verification,2022.2.4,Win32,59.18560606,,,,,,,,,,,,,,,,,,,,,,,,,,,,,,,,,,,,,,,,,,,,,,,,,,,,,,,,,,,,,,,,,,,,,,,,,,,,,,,,,,,,,,,,,,,,,,,,,,,,,,,,,,,,left,1,0.4038,,,,,,physical,6,1,6 | 1,5,0.065,0.05,congruent,left,0,21,21,20,1,,,,,,,,,,,,,,,,,,,,,,,,,,,,,,,,,,,,,,,,,,,,,
,678536750213,BCA,05/10/2001,001,2023-04-09_17h06.19.496,OS3_Mult_verification,2022.2.4,Win32,59.18560606,,,,,,,,,,,,,,,,,,,,,,,,,,,,,,,,,,,,,,,,,,,,,,,,,,,,,,,,,,,,,,,,,,,,,,,,,,,,,,,,,,,,,,,,,,,,,,,,,,,,,,,,,,,,right,1,0.5429,,,,,,physical,7,6,7 | 6,1,0.05,0.065,incongruent,right,0,22,22,30,1,,,,,,,,,,,,,,,,,,,,,,,,,,,,,,,,,,,,,,,,,,,,,
,678536750213,BCA,05/10/2001,001,2023-04-09_17h06.19.496,OS3_Mult_verification,2022.2.4,Win32,59.18560606,,,,,,,,,,,,,,,,,,,,,,,,,,,,,,,,,,,,,,,,,,,,,,,,,,,,,,,,,,,,,,,,,,,,,,,,,,,,,,,,,,,,,,,,,,,,,,,,,,,,,,,,,,,,right,1,0.4266,,,,,,physical,9,7,9 | 7,2,0.05,0.065,incongruent,right,0,23,23,39,1,,,,,,,,,,,,,,,,,,,,,,,,,,,,,,,,,,,,,,,,,,,,,
,678536750213,BCA,05/10/2001,001,2023-04-09_17h06.19.496,OS3_Mult_verification,2022.2.4,Win32,59.18560606,,,,,,,,,,,,,,,,,,,,,,,,,,,,,,,,,,,,,,,,,,,,,,,,,,,,,,,,,,,,,,,,,,,,,,,,,,,,,,,,,,,,,,,,,,,,,,,,,,,,,,,,,,,,left,1,0.4733,,,,,,physical,9,4,9 | 4,5,0.065,0.05,congruent,left,0,24,24,23,1,,,,,,,,,,,,,,,,,,,,,,,,,,,,,,,,,,,,,,,,,,,,,
,678536750213,BCA,05/10/2001,001,2023-04-09_17h06.19.496,OS3_Mult_verification,2022.2.4,Win32,59.18560606,,,,,,,,,,,,,,,,,,,,,,,,,,,,,,,,,,,,,,,,,,,,,,,,,,,,,,,,,,,,,,,,,,,,,,,,,,,,,,,,,,,,,,,,,,,,,,,,,,,,,,,,,,,,left,1,0.452,,,,,,physical,3,3,3 | 3,0,0.065,0.05,neutral,left,0,25,25,66,1,,,,,,,,,,,,,,,,,,,,,,,,,,,,,,,,,,,,,,,,,,,,,
,678536750213,BCA,05/10/2001,001,2023-04-09_17h06.19.496,OS3_Mult_verification,2022.2.4,Win32,59.18560606,,,,,,,,,,,,,,,,,,,,,,,,,,,,,,,,,,,,,,,,,,,,,,,,,,,,,,,,,,,,,,,,,,,,,,,,,,,,,,,,,,,,,,,,,,,,,,,,,,,,,,,,,,,,left,1,0.417,,,,,,physical,2,7,2 | 7,5,0.065,0.05,incongruent,left,0,26,26,41,1,,,,,,,,,,,,,,,,,,,,,,,,,,,,,,,,,,,,,,,,,,,,,
,678536750213,BCA,05/10/2001,001,2023-04-09_17h06.19.496,OS3_Mult_verification,2022.2.4,Win32,59.18560606,,,,,,,,,,,,,,,,,,,,,,,,,,,,,,,,,,,,,,,,,,,,,,,,,,,,,,,,,,,,,,,,,,,,,,,,,,,,,,,,,,,,,,,,,,,,,,,,,,,,,,,,,,,,left,1,0.5068,,,,,,physical,3,3,3 | 3,0,0.065,0.05,neutral,left,0,27,27,49,1,,,,,,,,,,,,,,,,,,,,,,,,,,,,,,,,,,,,,,,,,,,,,
,678536750213,BCA,05/10/2001,001,2023-04-09_17h06.19.496,OS3_Mult_verification,2022.2.4,Win32,59.18560606,,,,,,,,,,,,,,,,,,,,,,,,,,,,,,,,,,,,,,,,,,,,,,,,,,,,,,,,,,,,,,,,,,,,,,,,,,,,,,,,,,,,,,,,,,,,,,,,,,,,,,,,,,,,left,1,0.6673,,,,,,physical,4,2,4 | 2,2,0.065,0.05,congruent,left,0,28,28,13,1,,,,,,,,,,,,,,,,,,,,,,,,,,,,,,,,,,,,,,,,,,,,,
,678536750213,BCA,05/10/2001,001,2023-04-09_17h06.19.496,OS3_Mult_verification,2022.2.4,Win32,59.18560606,,,,,,,,,,,,,,,,,,,,,,,,,,,,,,,,,,,,,,,,,,,,,,,,,,,,,,,,,,,,,,,,,,,,,,,,,,,,,,,,,,,,,,,,,,,,,,,,,,,,,,,,,,,,left,1,0.4882,,,,,,physical,6,6,6 | 6,0,0.065,0.05,neutral,left,0,29,29,50,1,,,,,,,,,,,,,,,,,,,,,,,,,,,,,,,,,,,,,,,,,,,,,
,678536750213,BCA,05/10/2001,001,2023-04-09_17h06.19.496,OS3_Mult_verification,2022.2.4,Win32,59.18560606,,,,,,,,,,,,,,,,,,,,,,,,,,,,,,,,,,,,,,,,,,,,,,,,,,,,,,,,,,,,,,,,,,,,,,,,,,,,,,,,,,,,,,,,,,,,,,,,,,,,,,,,,,,,right,1,0.5425,,,,,,physical,3,1,3 | 1,2,0.05,0.065,incongruent,right,0,30,30,36,1,,,,,,,,,,,,,,,,,,,,,,,,,,,,,,,,,,,,,,,,,,,,,
,678536750213,BCA,05/10/2001,001,2023-04-09_17h06.19.496,OS3_Mult_verification,2022.2.4,Win32,59.18560606,,,,,,,,,,,,,,,,,,,,,,,,,,,,,,,,,,,,,,,,,,,,,,,,,,,,,,,,,,,,,,,,,,,,,,,,,,,,,,,,,,,,,,,,,,,,,,,,,,,,,,,,,,,,left,1,0.5146,,,,,,physical,4,4,4 | 4,0,0.065,0.05,neutral,left,0,31,31,53,1,,,,,,,,,,,,,,,,,,,,,,,,,,,,,,,,,,,,,,,,,,,,,
,678536750213,BCA,05/10/2001,001,2023-04-09_17h06.19.496,OS3_Mult_verification,2022.2.4,Win32,59.18560606,,,,,,,,,,,,,,,,,,,,,,,,,,,,,,,,,,,,,,,,,,,,,,,,,,,,,,,,,,,,,,,,,,,,,,,,,,,,,,,,,,,,,,,,,,,,,,,,,,,,,,,,,,,,left,1,0.5485,,,,,,physical,3,8,3 | 8,5,0.065,0.05,incongruent,left,0,32,32,42,1,,,,,,,,,,,,,,,,,,,,,,,,,,,,,,,,,,,,,,,,,,,,,
,678536750213,BCA,05/10/2001,001,2023-04-09_17h06.19.496,OS3_Mult_verification,2022.2.4,Win32,59.18560606,,,,,,,,,,,,,,,,,,,,,,,,,,,,,,,,,,,,,,,,,,,,,,,,,,,,,,,,,,,,,,,,,,,,,,,,,,,,,,,,,,,,,,,,,,,,,,,,,,,,,,,,,,,,right,1,0.4841,,,,,,physical,2,2,2 | 2,0,0.05,0.065,neutral,right,0,33,33,65,1,,,,,,,,,,,,,,,,,,,,,,,,,,,,,,,,,,,,,,,,,,,,,
,678536750213,BCA,05/10/2001,001,2023-04-09_17h06.19.496,OS3_Mult_verification,2022.2.4,Win32,59.18560606,,,,,,,,,,,,,,,,,,,,,,,,,,,,,,,,,,,,,,,,,,,,,,,,,,,,,,,,,,,,,,,,,,,,,,,,,,,,,,,,,,,,,,,,,,,,,,,,,,,,,,,,,,,,right,1,0.5048,,,,,,physical,2,2,2 | 2,0,0.05,0.065,neutral,right,0,34,34,57,1,,,,,,,,,,,,,,,,,,,,,,,,,,,,,,,,,,,,,,,,,,,,,
,678536750213,BCA,05/10/2001,001,2023-04-09_17h06.19.496,OS3_Mult_verification,2022.2.4,Win32,59.18560606,,,,,,,,,,,,,,,,,,,,,,,,,,,,,,,,,,,,,,,,,,,,,,,,,,,,,,,,,,,,,,,,,,,,,,,,,,,,,,,,,,,,,,,,,,,,,,,,,,,,,,,,,,,,right,1,0.4257,,,,,,physical,3,4,3 | 4,1,0.05,0.065,congruent,right,0,35,35,1,1,,,,,,,,,,,,,,,,,,,,,,,,,,,,,,,,,,,,,,,,,,,,,
,678536750213,BCA,05/10/2001,001,2023-04-09_17h06.19.496,OS3_Mult_verification,2022.2.4,Win32,59.18560606,,,,,,,,,,,,,,,,,,,,,,,,,,,,,,,,,,,,,,,,,,,,,,,,,,,,,,,,,,,,,,,,,,,,,,,,,,,,,,,,,,,,,,,,,,,,,,,,,,,,,,,,,,,,right,1,0.9594,,,,,,physical,4,4,4 | 4,0,0.05,0.065,neutral,right,0,36,36,67,1,,,,,,,,,,,,,,,,,,,,,,,,,,,,,,,,,,,,,,,,,,,,,
,678536750213,BCA,05/10/2001,001,2023-04-09_17h06.19.496,OS3_Mult_verification,2022.2.4,Win32,59.18560606,,,,,,,,,,,,,,,,,,,,,,,,,,,,,,,,,,,,,,,,,,,,,,,,,,,,,,,,,,,,,,,,,,,,,,,,,,,,,,,,,,,,,,,,,,,,,,,,,,,,,,,,,,,,left,1,0.4804,,,,,,physical,8,8,8 | 8,0,0.065,0.05,neutral,left,0,37,37,51,1,,,,,,,,,,,,,,,,,,,,,,,,,,,,,,,,,,,,,,,,,,,,,
,678536750213,BCA,05/10/2001,001,2023-04-09_17h06.19.496,OS3_Mult_verification,2022.2.4,Win32,59.18560606,,,,,,,,,,,,,,,,,,,,,,,,,,,,,,,,,,,,,,,,,,,,,,,,,,,,,,,,,,,,,,,,,,,,,,,,,,,,,,,,,,,,,,,,,,,,,,,,,,,,,,,,,,,,right,1,0.4446,,,,,,physical,7,9,7 | 9,2,0.05,0.065,congruent,right,0,38,38,11,1,,,,,,,,,,,,,,,,,,,,,,,,,,,,,,,,,,,,,,,,,,,,,
,678536750213,BCA,05/10/2001,001,2023-04-09_17h06.19.496,OS3_Mult_verification,2022.2.4,Win32,59.18560606,,,,,,,,,,,,,,,,,,,,,,,,,,,,,,,,,,,,,,,,,,,,,,,,,,,,,,,,,,,,,,,,,,,,,,,,,,,,,,,,,,,,,,,,,,,,,,,,,,,,,,,,,,,,left,1,0.4242,,,,,,physical,7,2,7 | 2,5,0.065,0.05,congruent,left,0,39,39,21,1,,,,,,,,,,,,,,,,,,,,,,,,,,,,,,,,,,,,,,,,,,,,,
,678536750213,BCA,05/10/2001,001,2023-04-09_17h06.19.496,OS3_Mult_verification,2022.2.4,Win32,59.18560606,,,,,,,,,,,,,,,,,,,,,,,,,,,,,,,,,,,,,,,,,,,,,,,,,,,,,,,,,,,,,,,,,,,,,,,,,,,,,,,,,,,,,,,,,,,,,,,,,,,,,,,,,,,,left,1,0.5212,,,,,,physical,6,8,6 | 8,2,0.065,0.05,incongruent,left,0,40,40,34,1,,,,,,,,,,,,,,,,,,,,,,,,,,,,,,,,,,,,,,,,,,,,,
,678536750213,BCA,05/10/2001,001,2023-04-09_17h06.19.496,OS3_Mult_verification,2022.2.4,Win32,59.18560606,,,,,,,,,,,,,,,,,,,,,,,,,,,,,,,,,,,,,,,,,,,,,,,,,,,,,,,,,,,,,,,,,,,,,,,,,,,,,,,,,,,,,,,,,,,,,,,,,,,,,,,,,,,,right,1,0.4602,,,,,,physical,9,4,9 | 4,5,0.05,0.065,incongruent,right,0,41,41,47,1,,,,,,,,,,,,,,,,,,,,,,,,,,,,,,,,,,,,,,,,,,,,,
,678536750213,BCA,05/10/2001,001,2023-04-09_17h06.19.496,OS3_Mult_verification,2022.2.4,Win32,59.18560606,,,,,,,,,,,,,,,,,,,,,,,,,,,,,,,,,,,,,,,,,,,,,,,,,,,,,,,,,,,,,,,,,,,,,,,,,,,,,,,,,,,,,,,,,,,,,,,,,,,,,,,,,,,,right,1,0.5213,,,,,,physical,6,7,6 | 7,1,0.05,0.065,congruent,right,0,42,42,2,1,,,,,,,,,,,,,,,,,,,,,,,,,,,,,,,,,,,,,,,,,,,,,
,678536750213,BCA,05/10/2001,001,2023-04-09_17h06.19.496,OS3_Mult_verification,2022.2.4,Win32,59.18560606,,,,,,,,,,,,,,,,,,,,,,,,,,,,,,,,,,,,,,,,,,,,,,,,,,,,,,,,,,,,,,,,,,,,,,,,,,,,,,,,,,,,,,,,,,,,,,,,,,,,,,,,,,,,right,1,0.48,,,,,,physical,1,2,1 | 2,1,0.05,0.065,congruent,right,0,43,43,0,1,,,,,,,,,,,,,,,,,,,,,,,,,,,,,,,,,,,,,,,,,,,,,
,678536750213,BCA,05/10/2001,001,2023-04-09_17h06.19.496,OS3_Mult_verification,2022.2.4,Win32,59.18560606,,,,,,,,,,,,,,,,,,,,,,,,,,,,,,,,,,,,,,,,,,,,,,,,,,,,,,,,,,,,,,,,,,,,,,,,,,,,,,,,,,,,,,,,,,,,,,,,,,,,,,,,,,,,right,1,0.6263,,,,,,physical,1,6,1 | 6,5,0.05,0.065,congruent,right,0,44,44,16,1,,,,,,,,,,,,,,,,,,,,,,,,,,,,,,,,,,,,,,,,,,,,,
,678536750213,BCA,05/10/2001,001,2023-04-09_17h06.19.496,OS3_Mult_verification,2022.2.4,Win32,59.18560606,,,,,,,,,,,,,,,,,,,,,,,,,,,,,,,,,,,,,,,,,,,,,,,,,,,,,,,,,,,,,,,,,,,,,,,,,,,,,,,,,,,,,,,,,,,,,,,,,,,,,,,,,,,,right,1,0.5659,,,,,,physical,8,9,8 | 9,1,0.05,0.065,congruent,right,0,45,45,3,1,,,,,,,,,,,,,,,,,,,,,,,,,,,,,,,,,,,,,,,,,,,,,
,678536750213,BCA,05/10/2001,001,2023-04-09_17h06.19.496,OS3_Mult_verification,2022.2.4,Win32,59.18560606,,,,,,,,,,,,,,,,,,,,,,,,,,,,,,,,,,,,,,,,,,,,,,,,,,,,,,,,,,,,,,,,,,,,,,,,,,,,,,,,,,,,,,,,,,,,,,,,,,,,,,,,,,,,right,1,0.5931,,,,,,physical,1,1,1 | 1,0,0.05,0.065,neutral,right,0,46,46,56,1,,,,,,,,,,,,,,,,,,,,,,,,,,,,,,,,,,,,,,,,,,,,,
,678536750213,BCA,05/10/2001,001,2023-04-09_17h06.19.496,OS3_Mult_verification,2022.2.4,Win32,59.18560606,,,,,,,,,,,,,,,,,,,,,,,,,,,,,,,,,,,,,,,,,,,,,,,,,,,,,,,,,,,,,,,,,,,,,,,,,,,,,,,,,,,,,,,,,,,,,,,,,,,,,,,,,,,,left,1,0.5222,,,,,,physical,9,9,9 | 9,0,0.065,0.05,neutral,left,0,47,47,55,1,,,,,,,,,,,,,,,,,,,,,,,,,,,,,,,,,,,,,,,,,,,,,
,678536750213,BCA,05/10/2001,001,2023-04-09_17h06.19.496,OS3_Mult_verification,2022.2.4,Win32,59.18560606,,,,,,,,,,,,,,,,,,,,,,,,,,,,,,,,,,,,,,,,,,,,,,,,,,,,,,,,,,,,,,,,,,,,,,,,,,,,,,,,,,,,,,,,,,,,,,,,,,,,,,,,,,,,left,1,0.3831,,,,,,physical,2,4,2 | 4,2,0.065,0.05,incongruent,left,0,48,48,33,1,,,,,,,,,,,,,,,,,,,,,,,,,,,,,,,,,,,,,,,,,,,,,
,678536750213,BCA,05/10/2001,001,2023-04-09_17h06.19.496,OS3_Mult_verification,2022.2.4,Win32,59.18560606,,,,,,,,,,,,,,,,,,,,,,,,,,,,,,,,,,,,,,,,,,,,,,,,,,,,,,,,,,,,,,,,,,,,,,,,,,,,,,,,,,,,,,,,,,,,,,,,,,,,,,,,,,,,left,1,0.6356,,,,,,physical,4,9,4 | 9,5,0.065,0.05,incongruent,left,0,49,49,43,1,,,,,,,,,,,,,,,,,,,,,,,,,,,,,,,,,,,,,,,,,,,,,
,678536750213,BCA,05/10/2001,001,2023-04-09_17h06.19.496,OS3_Mult_verification,2022.2.4,Win32,59.18560606,,,,,,,,,,,,,,,,,,,,,,,,,,,,,,,,,,,,,,,,,,,,,,,,,,,,,,,,,,,,,,,,,,,,,,,,,,,,,,,,,,,,,,,,,,,,,,,,,,,,,,,,,,,,left,1,0.4882,,,,,,physical,7,7,7 | 7,0,0.065,0.05,neutral,left,0,50,50,54,1,,,,,,,,,,,,,,,,,,,,,,,,,,,,,,,,,,,,,,,,,,,,,
,678536750213,BCA,05/10/2001,001,2023-04-09_17h06.19.496,OS3_Mult_verification,2022.2.4,Win32,59.18560606,,,,,,,,,,,,,,,,,,,,,,,,,,,,,,,,,,,,,,,,,,,,,,,,,,,,,,,,,,,,,,,,,,,,,,,,,,,,,,,,,,,,,,,,,,,,,,,,,,,,,,,,,,,,right,1,0.563,,,,,,physical,9,9,9 | 9,0,0.05,0.065,neutral,right,0,51,51,71,1,,,,,,,,,,,,,,,,,,,,,,,,,,,,,,,,,,,,,,,,,,,,,
,678536750213,BCA,05/10/2001,001,2023-04-09_17h06.19.496,OS3_Mult_verification,2022.2.4,Win32,59.18560606,,,,,,,,,,,,,,,,,,,,,,,,,,,,,,,,,,,,,,,,,,,,,,,,,,,,,,,,,,,,,,,,,,,,,,,,,,,,,,,,,,,,,,,,,,,,,,,,,,,,,,,,,,,,right,1,0.3766,,,,,,physical,9,8,9 | 8,1,0.05,0.065,incongruent,right,0,52,52,31,1,,,,,,,,,,,,,,,,,,,,,,,,,,,,,,,,,,,,,,,,,,,,,
,678536750213,BCA,05/10/2001,001,2023-04-09_17h06.19.496,OS3_Mult_verification,2022.2.4,Win32,59.18560606,,,,,,,,,,,,,,,,,,,,,,,,,,,,,,,,,,,,,,,,,,,,,,,,,,,,,,,,,,,,,,,,,,,,,,,,,,,,,,,,,,,,,,,,,,,,,,,,,,,,,,,,,,,,left,1,0.5198,,,,,,physical,8,6,8 | 6,2,0.065,0.05,congruent,left,0,53,53,14,1,,,,,,,,,,,,,,,,,,,,,,,,,,,,,,,,,,,,,,,,,,,,,
,678536750213,BCA,05/10/2001,001,2023-04-09_17h06.19.496,OS3_Mult_verification,2022.2.4,Win32,59.18560606,,,,,,,,,,,,,,,,,,,,,,,,,,,,,,,,,,,,,,,,,,,,,,,,,,,,,,,,,,,,,,,,,,,,,,,,,,,,,,,,,,,,,,,,,,,,,,,,,,,,,,,,,,,,left,1,0.4089,,,,,,physical,8,8,8 | 8,0,0.065,0.05,neutral,left,0,54,54,70,1,,,,,,,,,,,,,,,,,,,,,,,,,,,,,,,,,,,,,,,,,,,,,
,678536750213,BCA,05/10/2001,001,2023-04-09_17h06.19.496,OS3_Mult_verification,2022.2.4,Win32,59.18560606,,,,,,,,,,,,,,,,,,,,,,,,,,,,,,,,,,,,,,,,,,,,,,,,,,,,,,,,,,,,,,,,,,,,,,,,,,,,,,,,,,,,,,,,,,,,,,,,,,,,,,,,,,,,right,1,0.4447,,,,,,physical,1,3,1 | 3,2,0.05,0.065,congruent,right,0,55,55,8,1,,,,,,,,,,,,,,,,,,,,,,,,,,,,,,,,,,,,,,,,,,,,,
,678536750213,BCA,05/10/2001,001,2023-04-09_17h06.19.496,OS3_Mult_verification,2022.2.4,Win32,59.18560606,,,,,,,,,,,,,,,,,,,,,,,,,,,,,,,,,,,,,,,,,,,,,,,,,,,,,,,,,,,,,,,,,,,,,,,,,,,,,,,,,,,,,,,,,,,,,,,,,,,,,,,,,,,,left,1,0.4804,,,,,,physical,9,8,9 | 8,1,0.065,0.05,congruent,left,0,56,56,7,1,,,,,,,,,,,,,,,,,,,,,,,,,,,,,,,,,,,,,,,,,,,,,
,678536750213,BCA,05/10/2001,001,2023-04-09_17h06.19.496,OS3_Mult_verification,2022.2.4,Win32,59.18560606,,,,,,,,,,,,,,,,,,,,,,,,,,,,,,,,,,,,,,,,,,,,,,,,,,,,,,,,,,,,,,,,,,,,,,,,,,,,,,,,,,,,,,,,,,,,,,,,,,,,,,,,,,,,right,1,0.4591,,,,,,physical,4,2,4 | 2,2,0.05,0.065,incongruent,right,0,57,57,37,1,,,,,,,,,,,,,,,,,,,,,,,,,,,,,,,,,,,,,,,,,,,,,
