windowSize,participant,group,DOB (DD/MM/YEAR),session,date,expName,psychopyVersion,OS,frameRate,typing_instr_resp.keys,typing_instr_resp.rt,typing_response,typing_rt,typing_score,typingSpeed_input_resp.keys,typingSpeed_input_resp.rt,typing_speed_trials.thisRepN,typing_speed_trials.thisTrialN,typing_speed_trials.thisN,typing_speed_trials.thisIndex,typing_speed_trials.ran,typing_speed_stim,typing_report_resp.keys,typing_report_resp.rt,vpt_trial_resp1.keys,vpt_trial_resp1.rt,typedResponse,fluency_rt,fluency_score,fluencyInputResp.keys,fluencyInputResp.rt,fluencyPracLoop.thisRepN,fluencyPracLoop.thisTrialN,fluencyPracLoop.thisN,fluencyPracLoop.thisIndex,fluencyPracLoop.ran,problem,answers,fluencyLoop.thisRepN,fluencyLoop.thisTrialN,fluencyLoop.thisN,fluencyLoop.thisIndex,fluencyLoop.ran,stroopResp.keys,stroopResp.corr,stroopResp.rt,stroopPracLoop.thisRepN,stroopPracLoop.thisTrialN,stroopPracLoop.thisN,stroopPracLoop.thisIndex,stroopPracLoop.ran,stroopCond,leftNo,rightNo,displayProblem,numDistance,leftNo_size,rightNo_size,Dims,keyAnswer,stroopLoop.thisRepN,stroopLoop.thisTrialN,stroopLoop.thisN,stroopLoop.thisIndex,stroopLoop.ran,stroopBlocks.thisRepN,stroopBlocks.thisTrialN,stroopBlocks.thisN,stroopBlocks.thisIndex,stroopBlocks.ran,stroop_condition,stroop_pracFile,ActionInst,instrImage,TASK_A.thisRepN,TASK_A.thisTrialN,TASK_A.thisN,TASK_A.thisIndex,TASK_A.ran,controlTaskOrder.thisRepN,controlTaskOrder.thisTrialN,controlTaskOrder.thisN,controlTaskOrder.thisIndex,controlTaskOrder.ran,nRepsTask1,nRepsTask2,nRepsTask3,vptCorrect,vpt_rt,respMouse.x,respMouse.y,respMouse.leftButton,respMouse.midButton,respMouse.rightButton,vptPracticeLoop.thisRepN,vptPracticeLoop.thisTrialN,vptPracticeLoop.thisN,vptPracticeLoop.thisIndex,vptPracticeLoop.ran,trialType,tiles,rows,cols,vptTrialLoop.thisRepN,vptTrialLoop.thisTrialN,vptTrialLoop.thisN,vptTrialLoop.thisIndex,vptTrialLoop.ran,noOfBlocks,TASK_B.thisRepN,TASK_B.thisTrialN,TASK_B.thisN,TASK_B.thisIndex,TASK_B.ran,sampleAudio_resp.keys,sampleAudio_resp.rt,subjResponse,audio_rt,DS_score,inputResp.keys,inputResp.rt,audioPracticeLoop.thisRepN,audioPracticeLoop.thisTrialN,audioPracticeLoop.thisN,audioPracticeLoop.thisIndex,audioPracticeLoop.ran,digitSpan,digits_audioStim,soundsFile,typeDS,audioTrials_Loop.thisRepN,audioTrials_Loop.thisTrialN,audioTrials_Loop.thisN,audioTrials_Loop.thisIndex,audioTrials_Loop.ran,audioBlocks_loop.thisRepN,audioBlocks_loop.thisTrialN,audioBlocks_loop.thisN,audioBlocks_loop.thisIndex,audioBlocks_loop.ran,ConditionFile,digitSpanTask_loop.thisRepN,digitSpanTask_loop.thisTrialN,digitSpanTask_loop.thisN,digitSpanTask_loop.thisIndex,digitSpanTask_loop.ran,dsFile,TASK_C.thisRepN,TASK_C.thisTrialN,TASK_C.thisN,TASK_C.thisIndex,TASK_C.ran,veriStim_resp.keys,veriStim_resp.corr,veriStim_resp.rt,verificationPracLoop.thisRepN,verificationPracLoop.thisTrialN,verificationPracLoop.thisN,verificationPracLoop.thisIndex,verificationPracLoop.ran,mult_problem,mult_answer,mult_type,error_distance,interferenceScore,problemType,interferenceLevel,problemSize,img_leftButton,img_rightButton,veriLoop.thisRepN,veriLoop.thisTrialN,veriLoop.thisN,veriLoop.thisIndex,veriLoop.ran,veriBlock.thisRepN,veriBlock.thisTrialN,veriBlock.thisN,veriBlock.thisIndex,veriBlock.ran,verificationFiles,end_resp.keys,end_resp.rt
"[1495,746]",8233,ABC,18/10/2002,001,2023-04-08_01h17.26.949,OS3_Mult_verification,2022.2.4,Win32,146.7351431,,,,,,,,,,,,,,,,,,,,,,,,,,,,,,,,,,,,,,,,,,,,,,,,,,,,,,,,,,,,,,,,,,,,,,,,,,,,,,,,,,,,,,,,,,,,,,,,,,,,,,,,,,,,,,,,,,,,,,,,,,,,,,,,,,,,,,,,,,,,,,,,,,,,,,,,,,,,,,,,,,,,,,,,,,,,,,
,8233,ABC,18/10/2002,001,2023-04-08_01h17.26.949,OS3_Mult_verification,2022.2.4,Win32,146.7351431,,,,,,,,,,,,,,,,,,,,,,,,,,,,,,,,,,,,,,,,,,,,,,,,,,,,,,,,,,,,,,,,,,,,,,,,,,,,,,,,,,,,,,,,,,,,,,,,,,,,,,,,,,,,,,,,,,,,,,,,,,,,,,,,,,,,,,,,,,,,,,,,,,,,,,,,,,,,,,,,,,,,,,,,,,,,,,
,8233,ABC,18/10/2002,001,2023-04-08_01h17.26.949,OS3_Mult_verification,2022.2.4,Win32,146.7351431,space,7.9177,,,,,,,,,,,,,,,,,,,,,,,,,,,,,,,,,,,,,,,,,,,,,,,,,,,,,,,,,,,,,,,,,,,,,,,,,,,,,,,,,,,,,,,,,,,,,,,,,,,,,,,,,,,,,,,,,,,,,,,,,,,,,,,,,,,,,,,,,,,,,,,,,,,,,,,,,,,,,,,,,,,,,,,,,,,,
,8233,ABC,18/10/2002,001,2023-04-08_01h17.26.949,OS3_Mult_verification,2022.2.4,Win32,146.7351431,,,32,4.9447,1,"[""3"",""2"",""return""]","[3.232700000001131,3.4011000000014917,4.912900000000384]",0,0,0,17,1,32,,,,,,,,,,,,,,,,,,,,,,,,,,,,,,,,,,,,,,,,,,,,,,,,,,,,,,,,,,,,,,,,,,,,,,,,,,,,,,,,,,,,,,,,,,,,,,,,,,,,,,,,,,,,,,,,,,,,,,,,,,,,,,,,,,,,,,,,,,,,,,,,,,,,,,,,,,,,,,,,,
,8233,ABC,18/10/2002,001,2023-04-08_01h17.26.949,OS3_Mult_verification,2022.2.4,Win32,146.7351431,,,63,1.7108,1,"[""6"",""3"",""return""]","[1.3325999999996299,1.5132000000011203,1.6868000000007441]",0,1,1,27,1,63,,,,,,,,,,,,,,,,,,,,,,,,,,,,,,,,,,,,,,,,,,,,,,,,,,,,,,,,,,,,,,,,,,,,,,,,,,,,,,,,,,,,,,,,,,,,,,,,,,,,,,,,,,,,,,,,,,,,,,,,,,,,,,,,,,,,,,,,,,,,,,,,,,,,,,,,,,,,,,,,,
,8233,ABC,18/10/2002,001,2023-04-08_01h17.26.949,OS3_Mult_verification,2022.2.4,Win32,146.7351431,,,40,1.6034,1,"[""4"",""0"",""return""]","[0.9470000000000027,1.3286999999992588,1.5783999999985099]",0,2,2,20,1,40,,,,,,,,,,,,,,,,,,,,,,,,,,,,,,,,,,,,,,,,,,,,,,,,,,,,,,,,,,,,,,,,,,,,,,,,,,,,,,,,,,,,,,,,,,,,,,,,,,,,,,,,,,,,,,,,,,,,,,,,,,,,,,,,,,,,,,,,,,,,,,,,,,,,,,,,,,,,,,,,,
,8233,ABC,18/10/2002,001,2023-04-08_01h17.26.949,OS3_Mult_verification,2022.2.4,Win32,146.7351431,,,10,1.3364,1,"[""1"",""0"",""return""]","[0.7167999999988837,1.0490000000000066,1.3145999999996292]",0,3,3,4,1,10,,,,,,,,,,,,,,,,,,,,,,,,,,,,,,,,,,,,,,,,,,,,,,,,,,,,,,,,,,,,,,,,,,,,,,,,,,,,,,,,,,,,,,,,,,,,,,,,,,,,,,,,,,,,,,,,,,,,,,,,,,,,,,,,,,,,,,,,,,,,,,,,,,,,,,,,,,,,,,,,,
,8233,ABC,18/10/2002,001,2023-04-08_01h17.26.949,OS3_Mult_verification,2022.2.4,Win32,146.7351431,,,56,1.1543,1,"[""5"",""6"",""return""]","[0.902000000000001,0.9836999999992599,1.1311999999992537]",0,4,4,26,1,56,,,,,,,,,,,,,,,,,,,,,,,,,,,,,,,,,,,,,,,,,,,,,,,,,,,,,,,,,,,,,,,,,,,,,,,,,,,,,,,,,,,,,,,,,,,,,,,,,,,,,,,,,,,,,,,,,,,,,,,,,,,,,,,,,,,,,,,,,,,,,,,,,,,,,,,,,,,,,,,,,
,8233,ABC,18/10/2002,001,2023-04-08_01h17.26.949,OS3_Mult_verification,2022.2.4,Win32,146.7351431,,,48,1.2487,1,"[""4"",""8"",""return""]","[0.7543000000007538,1.0747000000011155,1.221500000000006]",0,5,5,23,1,48,,,,,,,,,,,,,,,,,,,,,,,,,,,,,,,,,,,,,,,,,,,,,,,,,,,,,,,,,,,,,,,,,,,,,,,,,,,,,,,,,,,,,,,,,,,,,,,,,,,,,,,,,,,,,,,,,,,,,,,,,,,,,,,,,,,,,,,,,,,,,,,,,,,,,,,,,,,,,,,,,
,8233,ABC,18/10/2002,001,2023-04-08_01h17.26.949,OS3_Mult_verification,2022.2.4,Win32,146.7351431,,,49,1.2273,1,"[""4"",""9"",""return""]","[0.6817999999988871,1.0493999999985135,1.1957999999988829]",0,6,6,24,1,49,,,,,,,,,,,,,,,,,,,,,,,,,,,,,,,,,,,,,,,,,,,,,,,,,,,,,,,,,,,,,,,,,,,,,,,,,,,,,,,,,,,,,,,,,,,,,,,,,,,,,,,,,,,,,,,,,,,,,,,,,,,,,,,,,,,,,,,,,,,,,,,,,,,,,,,,,,,,,,,,,
,8233,ABC,18/10/2002,001,2023-04-08_01h17.26.949,OS3_Mult_verification,2022.2.4,Win32,146.7351431,,,8,1.5074,1,"[""8"",""return""]","[1.325499999999991,1.4807999999988795]",0,7,7,2,1,8,,,,,,,,,,,,,,,,,,,,,,,,,,,,,,,,,,,,,,,,,,,,,,,,,,,,,,,,,,,,,,,,,,,,,,,,,,,,,,,,,,,,,,,,,,,,,,,,,,,,,,,,,,,,,,,,,,,,,,,,,,,,,,,,,,,,,,,,,,,,,,,,,,,,,,,,,,,,,,,,,
,8233,ABC,18/10/2002,001,2023-04-08_01h17.26.949,OS3_Mult_verification,2022.2.4,Win32,146.7351431,,,15,0.9707,1,"[""1"",""5"",""return""]","[0.6320999999996246,0.8334000000003812,0.9450000000000074]",0,8,8,7,1,15,,,,,,,,,,,,,,,,,,,,,,,,,,,,,,,,,,,,,,,,,,,,,,,,,,,,,,,,,,,,,,,,,,,,,,,,,,,,,,,,,,,,,,,,,,,,,,,,,,,,,,,,,,,,,,,,,,,,,,,,,,,,,,,,,,,,,,,,,,,,,,,,,,,,,,,,,,,,,,,,,
,8233,ABC,18/10/2002,001,2023-04-08_01h17.26.949,OS3_Mult_verification,2022.2.4,Win32,146.7351431,,,45,1.0069,1,"[""4"",""5"",""return""]","[0.7800000000000011,0.9075999999996327,0.9808000000007553]",0,9,9,22,1,45,,,,,,,,,,,,,,,,,,,,,,,,,,,,,,,,,,,,,,,,,,,,,,,,,,,,,,,,,,,,,,,,,,,,,,,,,,,,,,,,,,,,,,,,,,,,,,,,,,,,,,,,,,,,,,,,,,,,,,,,,,,,,,,,,,,,,,,,,,,,,,,,,,,,,,,,,,,,,,,,,
,8233,ABC,18/10/2002,001,2023-04-08_01h17.26.949,OS3_Mult_verification,2022.2.4,Win32,146.7351431,,,25,1.0552,1,"[""2"",""5"",""return""]","[0.6650999999996259,0.8469000000003604,1.0334999999999894]",0,10,10,13,1,25,,,,,,,,,,,,,,,,,,,,,,,,,,,,,,,,,,,,,,,,,,,,,,,,,,,,,,,,,,,,,,,,,,,,,,,,,,,,,,,,,,,,,,,,,,,,,,,,,,,,,,,,,,,,,,,,,,,,,,,,,,,,,,,,,,,,,,,,,,,,,,,,,,,,,,,,,,,,,,,,,
,8233,ABC,18/10/2002,001,2023-04-08_01h17.26.949,OS3_Mult_verification,2022.2.4,Win32,146.7351431,,,42,1.4224,1,"[""4"",""2"",""return""]","[1.0206999999992519,1.2083999999985053,1.3957999999988715]",0,11,11,21,1,42,,,,,,,,,,,,,,,,,,,,,,,,,,,,,,,,,,,,,,,,,,,,,,,,,,,,,,,,,,,,,,,,,,,,,,,,,,,,,,,,,,,,,,,,,,,,,,,,,,,,,,,,,,,,,,,,,,,,,,,,,,,,,,,,,,,,,,,,,,,,,,,,,,,,,,,,,,,,,,,,,
,8233,ABC,18/10/2002,001,2023-04-08_01h17.26.949,OS3_Mult_verification,2022.2.4,Win32,146.7351431,,,14,1.1132,1,"[""1"",""4"",""return""]","[0.6384000000003738,0.9111000000014968,1.0906000000015013]",0,12,12,6,1,14,,,,,,,,,,,,,,,,,,,,,,,,,,,,,,,,,,,,,,,,,,,,,,,,,,,,,,,,,,,,,,,,,,,,,,,,,,,,,,,,,,,,,,,,,,,,,,,,,,,,,,,,,,,,,,,,,,,,,,,,,,,,,,,,,,,,,,,,,,,,,,,,,,,,,,,,,,,,,,,,,
,8233,ABC,18/10/2002,001,2023-04-08_01h17.26.949,OS3_Mult_verification,2022.2.4,Win32,146.7351431,,,21,0.9461,1,"[""2"",""1"",""return""]","[0.7331999999992576,0.8412999999988813,0.9176999999992574]",0,13,13,11,1,21,,,,,,,,,,,,,,,,,,,,,,,,,,,,,,,,,,,,,,,,,,,,,,,,,,,,,,,,,,,,,,,,,,,,,,,,,,,,,,,,,,,,,,,,,,,,,,,,,,,,,,,,,,,,,,,,,,,,,,,,,,,,,,,,,,,,,,,,,,,,,,,,,,,,,,,,,,,,,,,,,
,8233,ABC,18/10/2002,001,2023-04-08_01h17.26.949,OS3_Mult_verification,2022.2.4,Win32,146.7351431,,,12,0.8609,1,"[""1"",""2"",""return""]","[0.5594000000003803,0.6194000000003825,0.8335999999996346]",0,14,14,5,1,12,,,,,,,,,,,,,,,,,,,,,,,,,,,,,,,,,,,,,,,,,,,,,,,,,,,,,,,,,,,,,,,,,,,,,,,,,,,,,,,,,,,,,,,,,,,,,,,,,,,,,,,,,,,,,,,,,,,,,,,,,,,,,,,,,,,,,,,,,,,,,,,,,,,,,,,,,,,,,,,,,
,8233,ABC,18/10/2002,001,2023-04-08_01h17.26.949,OS3_Mult_verification,2022.2.4,Win32,146.7351431,,,72,2.0829,1,"[""7"",""3"",""backspace"",""2"",""return""]","[1.152200000001116,1.4029999999999916,1.8187000000011153,1.9657000000011209,2.0602000000011174]",0,15,15,29,1,72,,,,,,,,,,,,,,,,,,,,,,,,,,,,,,,,,,,,,,,,,,,,,,,,,,,,,,,,,,,,,,,,,,,,,,,,,,,,,,,,,,,,,,,,,,,,,,,,,,,,,,,,,,,,,,,,,,,,,,,,,,,,,,,,,,,,,,,,,,,,,,,,,,,,,,,,,,,,,,,,,
,8233,ABC,18/10/2002,001,2023-04-08_01h17.26.949,OS3_Mult_verification,2022.2.4,Win32,146.7351431,,,30,1.8707,1,"[""3"",""0"",""return""]","[1.4510000000000076,1.5899000000003696,1.8474999999999966]",0,16,16,16,1,30,,,,,,,,,,,,,,,,,,,,,,,,,,,,,,,,,,,,,,,,,,,,,,,,,,,,,,,,,,,,,,,,,,,,,,,,,,,,,,,,,,,,,,,,,,,,,,,,,,,,,,,,,,,,,,,,,,,,,,,,,,,,,,,,,,,,,,,,,,,,,,,,,,,,,,,,,,,,,,,,,
,8233,ABC,18/10/2002,001,2023-04-08_01h17.26.949,OS3_Mult_verification,2022.2.4,Win32,146.7351431,,,27,1.0673,1,"[""2"",""7"",""return""]","[0.5699999999999932,0.9107000000011141,1.0429999999999922]",0,17,17,14,1,27,,,,,,,,,,,,,,,,,,,,,,,,,,,,,,,,,,,,,,,,,,,,,,,,,,,,,,,,,,,,,,,,,,,,,,,,,,,,,,,,,,,,,,,,,,,,,,,,,,,,,,,,,,,,,,,,,,,,,,,,,,,,,,,,,,,,,,,,,,,,,,,,,,,,,,,,,,,,,,,,,
,8233,ABC,18/10/2002,001,2023-04-08_01h17.26.949,OS3_Mult_verification,2022.2.4,Win32,146.7351431,,,54,1.2222,1,"[""5"",""4"",""return""]","[0.8069000000003825,0.9295999999996241,1.1967999999988876]",0,18,18,25,1,54,,,,,,,,,,,,,,,,,,,,,,,,,,,,,,,,,,,,,,,,,,,,,,,,,,,,,,,,,,,,,,,,,,,,,,,,,,,,,,,,,,,,,,,,,,,,,,,,,,,,,,,,,,,,,,,,,,,,,,,,,,,,,,,,,,,,,,,,,,,,,,,,,,,,,,,,,,,,,,,,,
,8233,ABC,18/10/2002,001,2023-04-08_01h17.26.949,OS3_Mult_verification,2022.2.4,Win32,146.7351431,,,4,0.7343,1,"[""4"",""return""]","[0.5805999999996345,0.7045999999996297]",0,19,19,0,1,4,,,,,,,,,,,,,,,,,,,,,,,,,,,,,,,,,,,,,,,,,,,,,,,,,,,,,,,,,,,,,,,,,,,,,,,,,,,,,,,,,,,,,,,,,,,,,,,,,,,,,,,,,,,,,,,,,,,,,,,,,,,,,,,,,,,,,,,,,,,,,,,,,,,,,,,,,,,,,,,,,
,8233,ABC,18/10/2002,001,2023-04-08_01h17.26.949,OS3_Mult_verification,2022.2.4,Win32,146.7351431,,,24,0.9725,1,"[""2"",""4"",""return""]","[0.6166999999992555,0.7974999999999994,0.9571999999992471]",0,20,20,12,1,24,,,,,,,,,,,,,,,,,,,,,,,,,,,,,,,,,,,,,,,,,,,,,,,,,,,,,,,,,,,,,,,,,,,,,,,,,,,,,,,,,,,,,,,,,,,,,,,,,,,,,,,,,,,,,,,,,,,,,,,,,,,,,,,,,,,,,,,,,,,,,,,,,,,,,,,,,,,,,,,,,
,8233,ABC,18/10/2002,001,2023-04-08_01h17.26.949,OS3_Mult_verification,2022.2.4,Win32,146.7351431,,,18,1.2082,1,"[""1"",""8"",""return""]","[0.6495000000000033,1.049800000000758,1.182400000000385]",0,21,21,9,1,18,,,,,,,,,,,,,,,,,,,,,,,,,,,,,,,,,,,,,,,,,,,,,,,,,,,,,,,,,,,,,,,,,,,,,,,,,,,,,,,,,,,,,,,,,,,,,,,,,,,,,,,,,,,,,,,,,,,,,,,,,,,,,,,,,,,,,,,,,,,,,,,,,,,,,,,,,,,,,,,,,
,8233,ABC,18/10/2002,001,2023-04-08_01h17.26.949,OS3_Mult_verification,2022.2.4,Win32,146.7351431,,,81,1.0904,1,"[""8"",""1"",""return""]","[0.8142999999988803,0.9091999999992595,1.0645999999996292]",0,22,22,30,1,81,,,,,,,,,,,,,,,,,,,,,,,,,,,,,,,,,,,,,,,,,,,,,,,,,,,,,,,,,,,,,,,,,,,,,,,,,,,,,,,,,,,,,,,,,,,,,,,,,,,,,,,,,,,,,,,,,,,,,,,,,,,,,,,,,,,,,,,,,,,,,,,,,,,,,,,,,,,,,,,,,
,8233,ABC,18/10/2002,001,2023-04-08_01h17.26.949,OS3_Mult_verification,2022.2.4,Win32,146.7351431,,,36,1.418,1,"[""3"",""6"",""return""]","[0.8539999999999992,1.2501999999992535,1.3875999999996225]",0,23,23,19,1,36,,,,,,,,,,,,,,,,,,,,,,,,,,,,,,,,,,,,,,,,,,,,,,,,,,,,,,,,,,,,,,,,,,,,,,,,,,,,,,,,,,,,,,,,,,,,,,,,,,,,,,,,,,,,,,,,,,,,,,,,,,,,,,,,,,,,,,,,,,,,,,,,,,,,,,,,,,,,,,,,,
,8233,ABC,18/10/2002,001,2023-04-08_01h17.26.949,OS3_Mult_verification,2022.2.4,Win32,146.7351431,,,64,1.1237,1,"[""6"",""4"",""return""]","[0.8129999999999882,0.9317000000011149,1.1046000000014828]",0,24,24,28,1,64,,,,,,,,,,,,,,,,,,,,,,,,,,,,,,,,,,,,,,,,,,,,,,,,,,,,,,,,,,,,,,,,,,,,,,,,,,,,,,,,,,,,,,,,,,,,,,,,,,,,,,,,,,,,,,,,,,,,,,,,,,,,,,,,,,,,,,,,,,,,,,,,,,,,,,,,,,,,,,,,,
,8233,ABC,18/10/2002,001,2023-04-08_01h17.26.949,OS3_Mult_verification,2022.2.4,Win32,146.7351431,,,9,1.0078,1,"[""9"",""return""]","[0.8066999999992532,0.9817999999988842]",0,25,25,3,1,9,,,,,,,,,,,,,,,,,,,,,,,,,,,,,,,,,,,,,,,,,,,,,,,,,,,,,,,,,,,,,,,,,,,,,,,,,,,,,,,,,,,,,,,,,,,,,,,,,,,,,,,,,,,,,,,,,,,,,,,,,,,,,,,,,,,,,,,,,,,,,,,,,,,,,,,,,,,,,,,,,
,8233,ABC,18/10/2002,001,2023-04-08_01h17.26.949,OS3_Mult_verification,2022.2.4,Win32,146.7351431,,,28,1.5289,1,"[""2"",""8"",""return""]","[0.6762999999988892,1.3140000000000072,1.5090999999996342]",0,26,26,15,1,28,,,,,,,,,,,,,,,,,,,,,,,,,,,,,,,,,,,,,,,,,,,,,,,,,,,,,,,,,,,,,,,,,,,,,,,,,,,,,,,,,,,,,,,,,,,,,,,,,,,,,,,,,,,,,,,,,,,,,,,,,,,,,,,,,,,,,,,,,,,,,,,,,,,,,,,,,,,,,,,,,
,8233,ABC,18/10/2002,001,2023-04-08_01h17.26.949,OS3_Mult_verification,2022.2.4,Win32,146.7351431,,,35,2.1852,1,"[""4"",""backspace"",""3"",""5"",""return""]","[0.840099999999623,1.2300999999996236,1.6356999999992468,2.043099999999626,2.1600999999996304]",0,27,27,18,1,35,,,,,,,,,,,,,,,,,,,,,,,,,,,,,,,,,,,,,,,,,,,,,,,,,,,,,,,,,,,,,,,,,,,,,,,,,,,,,,,,,,,,,,,,,,,,,,,,,,,,,,,,,,,,,,,,,,,,,,,,,,,,,,,,,,,,,,,,,,,,,,,,,,,,,,,,,,,,,,,,,
,8233,ABC,18/10/2002,001,2023-04-08_01h17.26.949,OS3_Mult_verification,2022.2.4,Win32,146.7351431,,,6,0.8395,1,"[""6"",""return""]","[0.6891999999992606,0.8147999999988826]",0,28,28,1,1,6,,,,,,,,,,,,,,,,,,,,,,,,,,,,,,,,,,,,,,,,,,,,,,,,,,,,,,,,,,,,,,,,,,,,,,,,,,,,,,,,,,,,,,,,,,,,,,,,,,,,,,,,,,,,,,,,,,,,,,,,,,,,,,,,,,,,,,,,,,,,,,,,,,,,,,,,,,,,,,,,,
,8233,ABC,18/10/2002,001,2023-04-08_01h17.26.949,OS3_Mult_verification,2022.2.4,Win32,146.7351431,,,20,1.0684,1,"[""2"",""0"",""return""]","[0.5859999999999985,0.8329000000003646,1.0409000000003772]",0,29,29,10,1,20,,,,,,,,,,,,,,,,,,,,,,,,,,,,,,,,,,,,,,,,,,,,,,,,,,,,,,,,,,,,,,,,,,,,,,,,,,,,,,,,,,,,,,,,,,,,,,,,,,,,,,,,,,,,,,,,,,,,,,,,,,,,,,,,,,,,,,,,,,,,,,,,,,,,,,,,,,,,,,,,,
,8233,ABC,18/10/2002,001,2023-04-08_01h17.26.949,OS3_Mult_verification,2022.2.4,Win32,146.7351431,,,16,1.1238,1,"[""1"",""6"",""return""]","[0.4789999999999992,0.9266999999992578,1.0980999999996328]",0,30,30,8,1,16,,,,,,,,,,,,,,,,,,,,,,,,,,,,,,,,,,,,,,,,,,,,,,,,,,,,,,,,,,,,,,,,,,,,,,,,,,,,,,,,,,,,,,,,,,,,,,,,,,,,,,,,,,,,,,,,,,,,,,,,,,,,,,,,,,,,,,,,,,,,,,,,,,,,,,,,,,,,,,,,,
,8233,ABC,18/10/2002,001,2023-04-08_01h17.26.949,OS3_Mult_verification,2022.2.4,Win32,146.7351431,,,54,1.054,1,"[""5"",""4"",""return""]","[0.842299999998886,0.9382999999988755,1.031299999998879]",1,0,31,25,1,54,,,,,,,,,,,,,,,,,,,,,,,,,,,,,,,,,,,,,,,,,,,,,,,,,,,,,,,,,,,,,,,,,,,,,,,,,,,,,,,,,,,,,,,,,,,,,,,,,,,,,,,,,,,,,,,,,,,,,,,,,,,,,,,,,,,,,,,,,,,,,,,,,,,,,,,,,,,,,,,,,
,8233,ABC,18/10/2002,001,2023-04-08_01h17.26.949,OS3_Mult_verification,2022.2.4,Win32,146.7351431,,,49,1.211,1,"[""4"",""9"",""return""]","[0.5946999999992499,1.0023000000007443,1.1845999999996195]",1,1,32,24,1,49,,,,,,,,,,,,,,,,,,,,,,,,,,,,,,,,,,,,,,,,,,,,,,,,,,,,,,,,,,,,,,,,,,,,,,,,,,,,,,,,,,,,,,,,,,,,,,,,,,,,,,,,,,,,,,,,,,,,,,,,,,,,,,,,,,,,,,,,,,,,,,,,,,,,,,,,,,,,,,,,,
,8233,ABC,18/10/2002,001,2023-04-08_01h17.26.949,OS3_Mult_verification,2022.2.4,Win32,146.7351431,,,12,0.9161,1,"[""1"",""2"",""return""]","[0.5769999999999982,0.661699999999243,0.8885999999996272]",1,2,33,5,1,12,,,,,,,,,,,,,,,,,,,,,,,,,,,,,,,,,,,,,,,,,,,,,,,,,,,,,,,,,,,,,,,,,,,,,,,,,,,,,,,,,,,,,,,,,,,,,,,,,,,,,,,,,,,,,,,,,,,,,,,,,,,,,,,,,,,,,,,,,,,,,,,,,,,,,,,,,,,,,,,,,
,8233,ABC,18/10/2002,001,2023-04-08_01h17.26.949,OS3_Mult_verification,2022.2.4,Win32,146.7351431,,,15,1.1185,1,"[""1"",""5"",""return""]","[0.48850000000000193,0.9465000000000003,1.0967000000011211]",1,3,34,7,1,15,,,,,,,,,,,,,,,,,,,,,,,,,,,,,,,,,,,,,,,,,,,,,,,,,,,,,,,,,,,,,,,,,,,,,,,,,,,,,,,,,,,,,,,,,,,,,,,,,,,,,,,,,,,,,,,,,,,,,,,,,,,,,,,,,,,,,,,,,,,,,,,,,,,,,,,,,,,,,,,,,
,8233,ABC,18/10/2002,001,2023-04-08_01h17.26.949,OS3_Mult_verification,2022.2.4,Win32,146.7351431,,,16,0.9419,1,"[""1"",""6"",""return""]","[0.4061999999992594,0.7530000000000001,0.9136999999992526]",1,4,35,8,1,16,,,,,,,,,,,,,,,,,,,,,,,,,,,,,,,,,,,,,,,,,,,,,,,,,,,,,,,,,,,,,,,,,,,,,,,,,,,,,,,,,,,,,,,,,,,,,,,,,,,,,,,,,,,,,,,,,,,,,,,,,,,,,,,,,,,,,,,,,,,,,,,,,,,,,,,,,,,,,,,,,
,8233,ABC,18/10/2002,001,2023-04-08_01h17.26.949,OS3_Mult_verification,2022.2.4,Win32,146.7351431,,,42,1.3541,1,"[""4"",""2"",""return""]","[0.9654999999999916,1.1746999999992482,1.3299999999999983]",1,5,36,21,1,42,,,,,,,,,,,,,,,,,,,,,,,,,,,,,,,,,,,,,,,,,,,,,,,,,,,,,,,,,,,,,,,,,,,,,,,,,,,,,,,,,,,,,,,,,,,,,,,,,,,,,,,,,,,,,,,,,,,,,,,,,,,,,,,,,,,,,,,,,,,,,,,,,,,,,,,,,,,,,,,,,
,8233,ABC,18/10/2002,001,2023-04-08_01h17.26.949,OS3_Mult_verification,2022.2.4,Win32,146.7351431,,,18,1.409,1,"[""1"",""8"",""return""]","[0.4921999999992579,1.0745000000000005,1.3792999999988922]",1,6,37,9,1,18,,,,,,,,,,,,,,,,,,,,,,,,,,,,,,,,,,,,,,,,,,,,,,,,,,,,,,,,,,,,,,,,,,,,,,,,,,,,,,,,,,,,,,,,,,,,,,,,,,,,,,,,,,,,,,,,,,,,,,,,,,,,,,,,,,,,,,,,,,,,,,,,,,,,,,,,,,,,,,,,,
,8233,ABC,18/10/2002,001,2023-04-08_01h17.26.949,OS3_Mult_verification,2022.2.4,Win32,146.7351431,,,64,1.1971,1,"[""6"",""4"",""return""]","[0.8970000000000056,0.9799000000003701,1.1673000000007363]",1,7,38,28,1,64,,,,,,,,,,,,,,,,,,,,,,,,,,,,,,,,,,,,,,,,,,,,,,,,,,,,,,,,,,,,,,,,,,,,,,,,,,,,,,,,,,,,,,,,,,,,,,,,,,,,,,,,,,,,,,,,,,,,,,,,,,,,,,,,,,,,,,,,,,,,,,,,,,,,,,,,,,,,,,,,,
,8233,ABC,18/10/2002,001,2023-04-08_01h17.26.949,OS3_Mult_verification,2022.2.4,Win32,146.7351431,,,8,1.0952,1,"[""8"",""return""]","[0.8264000000003762,1.0749000000003832]",1,8,39,2,1,8,,,,,,,,,,,,,,,,,,,,,,,,,,,,,,,,,,,,,,,,,,,,,,,,,,,,,,,,,,,,,,,,,,,,,,,,,,,,,,,,,,,,,,,,,,,,,,,,,,,,,,,,,,,,,,,,,,,,,,,,,,,,,,,,,,,,,,,,,,,,,,,,,,,,,,,,,,,,,,,,,
,8233,ABC,18/10/2002,001,2023-04-08_01h17.26.949,OS3_Mult_verification,2022.2.4,Win32,146.7351431,,,72,1.9082,1,"[""7"",""2"",""return""]","[1.154100000001506,1.7154000000003862,1.8880000000000052]",1,9,40,29,1,72,,,,,,,,,,,,,,,,,,,,,,,,,,,,,,,,,,,,,,,,,,,,,,,,,,,,,,,,,,,,,,,,,,,,,,,,,,,,,,,,,,,,,,,,,,,,,,,,,,,,,,,,,,,,,,,,,,,,,,,,,,,,,,,,,,,,,,,,,,,,,,,,,,,,,,,,,,,,,,,,,
,8233,ABC,18/10/2002,001,2023-04-08_01h17.26.949,OS3_Mult_verification,2022.2.4,Win32,146.7351431,,,24,1.4097,1,"[""2"",""4"",""return""]","[0.9271000000015022,1.2168000000007453,1.3830000000000098]",1,10,41,12,1,24,,,,,,,,,,,,,,,,,,,,,,,,,,,,,,,,,,,,,,,,,,,,,,,,,,,,,,,,,,,,,,,,,,,,,,,,,,,,,,,,,,,,,,,,,,,,,,,,,,,,,,,,,,,,,,,,,,,,,,,,,,,,,,,,,,,,,,,,,,,,,,,,,,,,,,,,,,,,,,,,,
,8233,ABC,18/10/2002,001,2023-04-08_01h17.26.949,OS3_Mult_verification,2022.2.4,Win32,146.7351431,,,32,1.1944,1,"[""3"",""2"",""return""]","[0.9185999999996284,0.9965000000000259,1.169400000000394]",1,11,42,17,1,32,,,,,,,,,,,,,,,,,,,,,,,,,,,,,,,,,,,,,,,,,,,,,,,,,,,,,,,,,,,,,,,,,,,,,,,,,,,,,,,,,,,,,,,,,,,,,,,,,,,,,,,,,,,,,,,,,,,,,,,,,,,,,,,,,,,,,,,,,,,,,,,,,,,,,,,,,,,,,,,,,
,8233,ABC,18/10/2002,001,2023-04-08_01h17.26.949,OS3_Mult_verification,2022.2.4,Win32,146.7351431,,,48,1.5292,1,"[""4"",""8"",""return""]","[0.8355999999996158,1.3355999999996158,1.5039999999999765]",1,12,43,23,1,48,,,,,,,,,,,,,,,,,,,,,,,,,,,,,,,,,,,,,,,,,,,,,,,,,,,,,,,,,,,,,,,,,,,,,,,,,,,,,,,,,,,,,,,,,,,,,,,,,,,,,,,,,,,,,,,,,,,,,,,,,,,,,,,,,,,,,,,,,,,,,,,,,,,,,,,,,,,,,,,,,
,8233,ABC,18/10/2002,001,2023-04-08_01h17.26.949,OS3_Mult_verification,2022.2.4,Win32,146.7351431,,,25,0.9718,1,"[""2"",""5"",""return""]","[0.6111999999992577,0.8214000000003807,0.945699999999249]",1,13,44,13,1,25,,,,,,,,,,,,,,,,,,,,,,,,,,,,,,,,,,,,,,,,,,,,,,,,,,,,,,,,,,,,,,,,,,,,,,,,,,,,,,,,,,,,,,,,,,,,,,,,,,,,,,,,,,,,,,,,,,,,,,,,,,,,,,,,,,,,,,,,,,,,,,,,,,,,,,,,,,,,,,,,,
,8233,ABC,18/10/2002,001,2023-04-08_01h17.26.949,OS3_Mult_verification,2022.2.4,Win32,146.7351431,,,14,0.8944,1,"[""1"",""4"",""return""]","[0.5134999999999934,0.7167999999988695,0.8687999999988847]",1,14,45,6,1,14,,,,,,,,,,,,,,,,,,,,,,,,,,,,,,,,,,,,,,,,,,,,,,,,,,,,,,,,,,,,,,,,,,,,,,,,,,,,,,,,,,,,,,,,,,,,,,,,,,,,,,,,,,,,,,,,,,,,,,,,,,,,,,,,,,,,,,,,,,,,,,,,,,,,,,,,,,,,,,,,,
,8233,ABC,18/10/2002,001,2023-04-08_01h17.26.949,OS3_Mult_verification,2022.2.4,Win32,146.7351431,,,20,1.2683,1,"[""2"",""0"",""return""]","[0.6514000000003648,1.033900000000358,1.2294000000003678]",1,15,46,10,1,20,,,,,,,,,,,,,,,,,,,,,,,,,,,,,,,,,,,,,,,,,,,,,,,,,,,,,,,,,,,,,,,,,,,,,,,,,,,,,,,,,,,,,,,,,,,,,,,,,,,,,,,,,,,,,,,,,,,,,,,,,,,,,,,,,,,,,,,,,,,,,,,,,,,,,,,,,,,,,,,,,
,8233,ABC,18/10/2002,001,2023-04-08_01h17.26.949,OS3_Mult_verification,2022.2.4,Win32,146.7351431,,,21,1.1366,1,"[""2"",""1"",""return""]","[0.7965999999996427,0.888400000000388,1.1097000000011121]",1,16,47,11,1,21,,,,,,,,,,,,,,,,,,,,,,,,,,,,,,,,,,,,,,,,,,,,,,,,,,,,,,,,,,,,,,,,,,,,,,,,,,,,,,,,,,,,,,,,,,,,,,,,,,,,,,,,,,,,,,,,,,,,,,,,,,,,,,,,,,,,,,,,,,,,,,,,,,,,,,,,,,,,,,,,,
,8233,ABC,18/10/2002,001,2023-04-08_01h17.26.949,OS3_Mult_verification,2022.2.4,Win32,146.7351431,,,10,1.1567,1,"[""1"",""0"",""return""]","[0.5625,0.9805000000000064,1.1353000000007398]",1,17,48,4,1,10,,,,,,,,,,,,,,,,,,,,,,,,,,,,,,,,,,,,,,,,,,,,,,,,,,,,,,,,,,,,,,,,,,,,,,,,,,,,,,,,,,,,,,,,,,,,,,,,,,,,,,,,,,,,,,,,,,,,,,,,,,,,,,,,,,,,,,,,,,,,,,,,,,,,,,,,,,,,,,,,,
,8233,ABC,18/10/2002,001,2023-04-08_01h17.26.949,OS3_Mult_verification,2022.2.4,Win32,146.7351431,,,40,1.6672,1,"[""4"",""0"",""return""]","[1.2088999999984935,1.494199999999239,1.6393999999984885]",1,18,49,20,1,40,,,,,,,,,,,,,,,,,,,,,,,,,,,,,,,,,,,,,,,,,,,,,,,,,,,,,,,,,,,,,,,,,,,,,,,,,,,,,,,,,,,,,,,,,,,,,,,,,,,,,,,,,,,,,,,,,,,,,,,,,,,,,,,,,,,,,,,,,,,,,,,,,,,,,,,,,,,,,,,,,
,8233,ABC,18/10/2002,001,2023-04-08_01h17.26.949,OS3_Mult_verification,2022.2.4,Win32,146.7351431,,,9,1.0008,1,"[""9"",""return""]","[0.8085999999996432,0.9748000000007551]",1,19,50,3,1,9,,,,,,,,,,,,,,,,,,,,,,,,,,,,,,,,,,,,,,,,,,,,,,,,,,,,,,,,,,,,,,,,,,,,,,,,,,,,,,,,,,,,,,,,,,,,,,,,,,,,,,,,,,,,,,,,,,,,,,,,,,,,,,,,,,,,,,,,,,,,,,,,,,,,,,,,,,,,,,,,,
,8233,ABC,18/10/2002,001,2023-04-08_01h17.26.949,OS3_Mult_verification,2022.2.4,Win32,146.7351431,,,45,1.098,1,"[""4"",""5"",""return""]","[0.7980999999996357,0.9276999999992483,1.0754000000003714]",1,20,51,22,1,45,,,,,,,,,,,,,,,,,,,,,,,,,,,,,,,,,,,,,,,,,,,,,,,,,,,,,,,,,,,,,,,,,,,,,,,,,,,,,,,,,,,,,,,,,,,,,,,,,,,,,,,,,,,,,,,,,,,,,,,,,,,,,,,,,,,,,,,,,,,,,,,,,,,,,,,,,,,,,,,,,
,8233,ABC,18/10/2002,001,2023-04-08_01h17.26.949,OS3_Mult_verification,2022.2.4,Win32,146.7351431,,,81,2.5799,1,"[""8"",""2"",""1"",""backspace"",""backspace"",""1"",""return""]","[0.8365000000000009,1.1233000000007394,1.7863000000007503,2.2079000000003646,2.335800000000745,2.4385000000000048,2.556600000001481]",1,21,52,30,1,81,,,,,,,,,,,,,,,,,,,,,,,,,,,,,,,,,,,,,,,,,,,,,,,,,,,,,,,,,,,,,,,,,,,,,,,,,,,,,,,,,,,,,,,,,,,,,,,,,,,,,,,,,,,,,,,,,,,,,,,,,,,,,,,,,,,,,,,,,,,,,,,,,,,,,,,,,,,,,,,,,
,8233,ABC,18/10/2002,001,2023-04-08_01h17.26.949,OS3_Mult_verification,2022.2.4,Win32,146.7351431,,,56,1.1465,1,"[""5"",""6"",""return""]","[0.849200000001133,0.9677000000011162,1.1211000000014906]",1,22,53,26,1,56,,,,,,,,,,,,,,,,,,,,,,,,,,,,,,,,,,,,,,,,,,,,,,,,,,,,,,,,,,,,,,,,,,,,,,,,,,,,,,,,,,,,,,,,,,,,,,,,,,,,,,,,,,,,,,,,,,,,,,,,,,,,,,,,,,,,,,,,,,,,,,,,,,,,,,,,,,,,,,,,,
,8233,ABC,18/10/2002,001,2023-04-08_01h17.26.949,OS3_Mult_verification,2022.2.4,Win32,146.7351431,,,36,1.5559,1,"[""3"",""6"",""return""]","[1.0098000000007517,1.3332000000011135,1.5353000000007455]",1,23,54,19,1,36,,,,,,,,,,,,,,,,,,,,,,,,,,,,,,,,,,,,,,,,,,,,,,,,,,,,,,,,,,,,,,,,,,,,,,,,,,,,,,,,,,,,,,,,,,,,,,,,,,,,,,,,,,,,,,,,,,,,,,,,,,,,,,,,,,,,,,,,,,,,,,,,,,,,,,,,,,,,,,,,,
,8233,ABC,18/10/2002,001,2023-04-08_01h17.26.949,OS3_Mult_verification,2022.2.4,Win32,146.7351431,,,27,1.4797,1,"[""2"",""7"",""return""]","[0.6374999999999886,1.2696999999992613,1.4524000000003525]",1,24,55,14,1,27,,,,,,,,,,,,,,,,,,,,,,,,,,,,,,,,,,,,,,,,,,,,,,,,,,,,,,,,,,,,,,,,,,,,,,,,,,,,,,,,,,,,,,,,,,,,,,,,,,,,,,,,,,,,,,,,,,,,,,,,,,,,,,,,,,,,,,,,,,,,,,,,,,,,,,,,,,,,,,,,,
,8233,ABC,18/10/2002,001,2023-04-08_01h17.26.949,OS3_Mult_verification,2022.2.4,Win32,146.7351431,,,35,1.3734,1,"[""3"",""5"",""return""]","[1.050599999999605,1.1850999999996077,1.350999999999999]",1,25,56,18,1,35,,,,,,,,,,,,,,,,,,,,,,,,,,,,,,,,,,,,,,,,,,,,,,,,,,,,,,,,,,,,,,,,,,,,,,,,,,,,,,,,,,,,,,,,,,,,,,,,,,,,,,,,,,,,,,,,,,,,,,,,,,,,,,,,,,,,,,,,,,,,,,,,,,,,,,,,,,,,,,,,,
,8233,ABC,18/10/2002,001,2023-04-08_01h17.26.949,OS3_Mult_verification,2022.2.4,Win32,146.7351431,,,6,0.9677,1,"[""6"",""return""]","[0.7644000000003643,0.9427000000011105]",1,26,57,1,1,6,,,,,,,,,,,,,,,,,,,,,,,,,,,,,,,,,,,,,,,,,,,,,,,,,,,,,,,,,,,,,,,,,,,,,,,,,,,,,,,,,,,,,,,,,,,,,,,,,,,,,,,,,,,,,,,,,,,,,,,,,,,,,,,,,,,,,,,,,,,,,,,,,,,,,,,,,,,,,,,,,
,8233,ABC,18/10/2002,001,2023-04-08_01h17.26.949,OS3_Mult_verification,2022.2.4,Win32,146.7351431,,,63,1.4963,1,"[""6"",""3"",""return""]","[1.0599000000003684,1.295599999999638,1.4712999999988767]",1,27,58,27,1,63,,,,,,,,,,,,,,,,,,,,,,,,,,,,,,,,,,,,,,,,,,,,,,,,,,,,,,,,,,,,,,,,,,,,,,,,,,,,,,,,,,,,,,,,,,,,,,,,,,,,,,,,,,,,,,,,,,,,,,,,,,,,,,,,,,,,,,,,,,,,,,,,,,,,,,,,,,,,,,,,,
,8233,ABC,18/10/2002,001,2023-04-08_01h17.26.949,OS3_Mult_verification,2022.2.4,Win32,146.7351431,,,28,1.4559,1,"[""2"",""8"",""return""]","[0.8661999999992531,1.2483999999984974,1.4274999999999807]",1,28,59,15,1,28,,,,,,,,,,,,,,,,,,,,,,,,,,,,,,,,,,,,,,,,,,,,,,,,,,,,,,,,,,,,,,,,,,,,,,,,,,,,,,,,,,,,,,,,,,,,,,,,,,,,,,,,,,,,,,,,,,,,,,,,,,,,,,,,,,,,,,,,,,,,,,,,,,,,,,,,,,,,,,,,,
,8233,ABC,18/10/2002,001,2023-04-08_01h17.26.949,OS3_Mult_verification,2022.2.4,Win32,146.7351431,,,4,0.8719,1,"[""4"",""return""]","[0.6639000000003819,0.8463000000007526]",1,29,60,0,1,4,,,,,,,,,,,,,,,,,,,,,,,,,,,,,,,,,,,,,,,,,,,,,,,,,,,,,,,,,,,,,,,,,,,,,,,,,,,,,,,,,,,,,,,,,,,,,,,,,,,,,,,,,,,,,,,,,,,,,,,,,,,,,,,,,,,,,,,,,,,,,,,,,,,,,,,,,,,,,,,,,
,8233,ABC,18/10/2002,001,2023-04-08_01h17.26.949,OS3_Mult_verification,2022.2.4,Win32,146.7351431,,,30,1.2878,1,"[""3"",""0"",""return""]","[0.6715999999996427,1.0396999999992715,1.2612999999988972]",1,30,61,16,1,30,,,,,,,,,,,,,,,,,,,,,,,,,,,,,,,,,,,,,,,,,,,,,,,,,,,,,,,,,,,,,,,,,,,,,,,,,,,,,,,,,,,,,,,,,,,,,,,,,,,,,,,,,,,,,,,,,,,,,,,,,,,,,,,,,,,,,,,,,,,,,,,,,,,,,,,,,,,,,,,,,
,8233,ABC,18/10/2002,001,2023-04-08_01h17.26.949,OS3_Mult_verification,2022.2.4,Win32,146.7351431,,,,,,,,,,,,,,space,7.0601,,,,,,,,,,,,,,,,,,,,,,,,,,,,,,,,,,,,,,,,,,,,,,,,,,,,,,,,,,,,,,,,,,,,,,,,,,,,,,,,,,,,,,,,,,,,,,,,,,,,,,,,,,,,,,,,,,,,,,,,,,,,,,,,,,,,,,,,,,,,,,,,,,,,,,,,,,,,,,,
,8233,ABC,18/10/2002,001,2023-04-08_01h17.26.949,OS3_Mult_verification,2022.2.4,Win32,146.7351431,,,,,,,,,,,,,,,,,,,,,,,,,,,,,,,,,,,,,,,,,,,,,,,,,,,,,,,,,,,,,,,,,,,,,,,,,,,,,,,,,,,,,,,,,,,,,,,,,,,,,,,,,,,,,,,,,,,,,,,,,,,,,,,,,,,,,,,,,,,,,,,,,,,,,,,,,,,,,,,,,,,,,,,,,,,,,,
,8233,ABC,18/10/2002,001,2023-04-08_01h17.26.949,OS3_Mult_verification,2022.2.4,Win32,146.7351431,,,,,,,,,,,,,,,,space,7.36,,,,,,,,,,,,,,,,,,,,,,,,,,,,,,,,,,,,,,,,,,,,,,,,,,,,,,,,,,,,,,,,,,,,,,,,,,,,,,,,,,,,,,,,,,,,,,,,,,,,,,,,,,,,,,,,,,,,,,,,,,,,,,,,,,,,,,,,,,,,,,,,,,,,,,,,,,,,,
,8233,ABC,18/10/2002,001,2023-04-08_01h17.26.949,OS3_Mult_verification,2022.2.4,Win32,146.7351431,,,,,,,,,,,,,,,,,,22,1.9567,1,"[""2"",""2"",""return""]","[1.4188000000007435,1.5771999999992659,1.6811999999992508]",0,0,0,2,1,2 × 11 =,22,,,,,,,,,,,,,,,,,,,,,,,,,,,,,,,,,,,,,,,,,,,,,,,,,,,,,,,,,,,,,,,,,,,,,,,,,,,,,,,,,,,,,,,,,,,,,,,,,,,,,,,,,,,,,,,,,,,,,,,,,,,,,,,,,,,,,,,,,,,,,,,,,
,8233,ABC,18/10/2002,001,2023-04-08_01h17.26.949,OS3_Mult_verification,2022.2.4,Win32,146.7351431,,,,,,,,,,,,,,,,,,20,1.8297,1,"[""2"",""0"",""return""]","[0.8066999999992674,1.2653000000007353,1.5489000000003728]",0,1,1,1,1,2 × 10 =,20,,,,,,,,,,,,,,,,,,,,,,,,,,,,,,,,,,,,,,,,,,,,,,,,,,,,,,,,,,,,,,,,,,,,,,,,,,,,,,,,,,,,,,,,,,,,,,,,,,,,,,,,,,,,,,,,,,,,,,,,,,,,,,,,,,,,,,,,,,,,,,,,,
,8233,ABC,18/10/2002,001,2023-04-08_01h17.26.949,OS3_Mult_verification,2022.2.4,Win32,146.7351431,,,,,,,,,,,,,,,,,,7,1.4389,1,"[""7"",""return""]","[0.9995999999996457,1.1586999999992713]",0,2,2,0,1,1 × 7 =,7,,,,,,,,,,,,,,,,,,,,,,,,,,,,,,,,,,,,,,,,,,,,,,,,,,,,,,,,,,,,,,,,,,,,,,,,,,,,,,,,,,,,,,,,,,,,,,,,,,,,,,,,,,,,,,,,,,,,,,,,,,,,,,,,,,,,,,,,,,,,,,,,,
,8233,ABC,18/10/2002,001,2023-04-08_01h17.26.949,OS3_Mult_verification,2022.2.4,Win32,146.7351431,,,,,,,,,,,,,,,,,,,,,,,,,,,,,,,,,,,,,,,,,,,,,,,,,,,,,,,,,,,,,,,,,,,,,,,,,,,,,,,,,,,,,,,,,,,,,,,,,,,,,,,,,,,,,,,,,,,,,,,,,,,,,,,,,,,,,,,,,,,,,,,,,,,,,,,,,,,,,,,,,,,,,,,,,,,,,,
,8233,ABC,18/10/2002,001,2023-04-08_01h17.26.949,OS3_Mult_verification,2022.2.4,Win32,146.7351431,,,,,,,,,,,,,,,,,,,,,,,,,,,,,,,,,,,,,,,,,,,,,,,,,,,,,,,,,,,,,,,,,,,,,,,,,,,,,,,,,,,,,,,,,,,,,,,,,,,,,,,,,,,,,,,,,,,,,,,,,,,,,,,,,,,,,,,,,,,,,,,,,,,,,,,,,,,,,,,,,,,,,,,,,,,,,,
,8233,ABC,18/10/2002,001,2023-04-08_01h17.26.949,OS3_Mult_verification,2022.2.4,Win32,146.7351431,,,,,,,,,,,,,,,,,,6,1.5478,1,"[""6"",""return""]","[1.1263000000007253,1.2650999999996202]",,,,,,2 × 3 =,6,0,0,0,0,1,,,,,,,,,,,,,,,,,,,,,,,,,,,,,,,,,,,,,,,,,,,,,,,,,,,,,,,,,,,,,,,,,,,,,,,,,,,,,,,,,,,,,,,,,,,,,,,,,,,,,,,,,,,,,,,,,,,,,,,,,,,,,,,,,,,,,,,,,,,,
,8233,ABC,18/10/2002,001,2023-04-08_01h17.26.949,OS3_Mult_verification,2022.2.4,Win32,146.7351431,,,,,,,,,,,,,,,,,,40,2.1135,1,"[""4"",""0"",""return""]","[1.360099999999619,1.6563999999985128,1.8306999999992684]",,,,,,5 × 8 =,40,0,1,1,1,1,,,,,,,,,,,,,,,,,,,,,,,,,,,,,,,,,,,,,,,,,,,,,,,,,,,,,,,,,,,,,,,,,,,,,,,,,,,,,,,,,,,,,,,,,,,,,,,,,,,,,,,,,,,,,,,,,,,,,,,,,,,,,,,,,,,,,,,,,,,,
,8233,ABC,18/10/2002,001,2023-04-08_01h17.26.949,OS3_Mult_verification,2022.2.4,Win32,146.7351431,,,,,,,,,,,,,,,,,,12,1.427,1,"[""1"",""2"",""return""]","[0.8785000000000025,0.9824999999999875,1.147799999998881]",,,,,,3 × 4 =,12,0,2,2,2,1,,,,,,,,,,,,,,,,,,,,,,,,,,,,,,,,,,,,,,,,,,,,,,,,,,,,,,,,,,,,,,,,,,,,,,,,,,,,,,,,,,,,,,,,,,,,,,,,,,,,,,,,,,,,,,,,,,,,,,,,,,,,,,,,,,,,,,,,,,,,
,8233,ABC,18/10/2002,001,2023-04-08_01h17.26.949,OS3_Mult_verification,2022.2.4,Win32,146.7351431,,,,,,,,,,,,,,,,,,15,1.429,1,"[""1"",""5"",""return""]","[0.7773999999985222,0.9943999999985351,1.1470999999996536]",,,,,,5 × 3 =,15,0,3,3,3,1,,,,,,,,,,,,,,,,,,,,,,,,,,,,,,,,,,,,,,,,,,,,,,,,,,,,,,,,,,,,,,,,,,,,,,,,,,,,,,,,,,,,,,,,,,,,,,,,,,,,,,,,,,,,,,,,,,,,,,,,,,,,,,,,,,,,,,,,,,,,
,8233,ABC,18/10/2002,001,2023-04-08_01h17.26.949,OS3_Mult_verification,2022.2.4,Win32,146.7351431,,,,,,,,,,,,,,,,,,8,1.5239,1,"[""8"",""return""]","[1.075599999999639,1.2450999999996384]",,,,,,2 × 4 =,8,0,4,4,4,1,,,,,,,,,,,,,,,,,,,,,,,,,,,,,,,,,,,,,,,,,,,,,,,,,,,,,,,,,,,,,,,,,,,,,,,,,,,,,,,,,,,,,,,,,,,,,,,,,,,,,,,,,,,,,,,,,,,,,,,,,,,,,,,,,,,,,,,,,,,,
,8233,ABC,18/10/2002,001,2023-04-08_01h17.26.949,OS3_Mult_verification,2022.2.4,Win32,146.7351431,,,,,,,,,,,,,,,,,,4,1.2955,1,"[""4"",""return""]","[0.84699999999998,1.0199999999999818]",,,,,,2 × 2 =,4,0,5,5,5,1,,,,,,,,,,,,,,,,,,,,,,,,,,,,,,,,,,,,,,,,,,,,,,,,,,,,,,,,,,,,,,,,,,,,,,,,,,,,,,,,,,,,,,,,,,,,,,,,,,,,,,,,,,,,,,,,,,,,,,,,,,,,,,,,,,,,,,,,,,,,
,8233,ABC,18/10/2002,001,2023-04-08_01h17.26.949,OS3_Mult_verification,2022.2.4,Win32,146.7351431,,,,,,,,,,,,,,,,,,20,1.553,1,"[""2"",""0"",""return""]","[0.7669000000003905,1.1127000000011265,1.27309999999963]",,,,,,4 × 5 =,20,0,6,6,6,1,,,,,,,,,,,,,,,,,,,,,,,,,,,,,,,,,,,,,,,,,,,,,,,,,,,,,,,,,,,,,,,,,,,,,,,,,,,,,,,,,,,,,,,,,,,,,,,,,,,,,,,,,,,,,,,,,,,,,,,,,,,,,,,,,,,,,,,,,,,,
,8233,ABC,18/10/2002,001,2023-04-08_01h17.26.949,OS3_Mult_verification,2022.2.4,Win32,146.7351431,,,,,,,,,,,,,,,,,,9,1.3944,1,"[""9"",""return""]","[0.9691999999992618,1.1215999999996313]",,,,,,3 × 3 =,9,0,7,7,7,1,,,,,,,,,,,,,,,,,,,,,,,,,,,,,,,,,,,,,,,,,,,,,,,,,,,,,,,,,,,,,,,,,,,,,,,,,,,,,,,,,,,,,,,,,,,,,,,,,,,,,,,,,,,,,,,,,,,,,,,,,,,,,,,,,,,,,,,,,,,,
,8233,ABC,18/10/2002,001,2023-04-08_01h17.26.949,OS3_Mult_verification,2022.2.4,Win32,146.7351431,,,,,,,,,,,,,,,,,,10,1.5198,1,"[""1"",""0"",""return""]","[0.7519000000003757,1.079799999998869,1.2425999999996122]",,,,,,5 × 2 =,10,0,8,8,8,1,,,,,,,,,,,,,,,,,,,,,,,,,,,,,,,,,,,,,,,,,,,,,,,,,,,,,,,,,,,,,,,,,,,,,,,,,,,,,,,,,,,,,,,,,,,,,,,,,,,,,,,,,,,,,,,,,,,,,,,,,,,,,,,,,,,,,,,,,,,,
,8233,ABC,18/10/2002,001,2023-04-08_01h17.26.949,OS3_Mult_verification,2022.2.4,Win32,146.7351431,,,,,,,,,,,,,,,,,,16,1.5263,1,"[""1"",""6"",""return""]","[0.7287000000011403,1.0502000000011265,1.2433000000007723]",,,,,,4 × 4 =,16,0,9,9,9,1,,,,,,,,,,,,,,,,,,,,,,,,,,,,,,,,,,,,,,,,,,,,,,,,,,,,,,,,,,,,,,,,,,,,,,,,,,,,,,,,,,,,,,,,,,,,,,,,,,,,,,,,,,,,,,,,,,,,,,,,,,,,,,,,,,,,,,,,,,,,
,8233,ABC,18/10/2002,001,2023-04-08_01h17.26.949,OS3_Mult_verification,2022.2.4,Win32,146.7351431,,,,,,,,,,,,,,,,,,24,2.0281,1,"[""2"",""4"",""return""]","[1.4300000000000068,1.5870999999996513,1.7507000000011317]",,,,,,8 × 3 =,24,0,10,10,10,1,,,,,,,,,,,,,,,,,,,,,,,,,,,,,,,,,,,,,,,,,,,,,,,,,,,,,,,,,,,,,,,,,,,,,,,,,,,,,,,,,,,,,,,,,,,,,,,,,,,,,,,,,,,,,,,,,,,,,,,,,,,,,,,,,,,,,,,,,,,,
,8233,ABC,18/10/2002,001,2023-04-08_01h17.26.949,OS3_Mult_verification,2022.2.4,Win32,146.7351431,,,,,,,,,,,,,,,,,,30,2.5809,1,"[""4"",""backspace"",""3"",""0"",""return""]","[1.2222999999988815,1.6752999999988845,1.8775999999996316,2.084000000000003,2.298599999999624]",,,,,,6 × 5 =,30,0,11,11,11,1,,,,,,,,,,,,,,,,,,,,,,,,,,,,,,,,,,,,,,,,,,,,,,,,,,,,,,,,,,,,,,,,,,,,,,,,,,,,,,,,,,,,,,,,,,,,,,,,,,,,,,,,,,,,,,,,,,,,,,,,,,,,,,,,,,,,,,,,,,,,
,8233,ABC,18/10/2002,001,2023-04-08_01h17.26.949,OS3_Mult_verification,2022.2.4,Win32,146.7351431,,,,,,,,,,,,,,,,,,14,1.2242,1,"[""1"",""4"",""return""]","[0.7216000000015015,0.8317000000011205,0.9519000000003928]",,,,,,7 × 2 =,14,0,12,12,12,1,,,,,,,,,,,,,,,,,,,,,,,,,,,,,,,,,,,,,,,,,,,,,,,,,,,,,,,,,,,,,,,,,,,,,,,,,,,,,,,,,,,,,,,,,,,,,,,,,,,,,,,,,,,,,,,,,,,,,,,,,,,,,,,,,,,,,,,,,,,,
,8233,ABC,18/10/2002,001,2023-04-08_01h17.26.949,OS3_Mult_verification,2022.2.4,Win32,146.7351431,,,,,,,,,,,,,,,,,,27,2.1785,1,"[""2"",""7"",""return""]","[1.3146999999992488,1.7341999999992481,1.8879000000003714]",,,,,,3 × 9 =,27,0,13,13,13,1,,,,,,,,,,,,,,,,,,,,,,,,,,,,,,,,,,,,,,,,,,,,,,,,,,,,,,,,,,,,,,,,,,,,,,,,,,,,,,,,,,,,,,,,,,,,,,,,,,,,,,,,,,,,,,,,,,,,,,,,,,,,,,,,,,,,,,,,,,,,
,8233,ABC,18/10/2002,001,2023-04-08_01h17.26.949,OS3_Mult_verification,2022.2.4,Win32,146.7351431,,,,,,,,,,,,,,,,,,16,1.68,1,"[""1"",""6"",""return""]","[0.6762999999988608,1.2061999999992565,1.4028999999985103]",,,,,,2 × 8 =,16,0,14,14,14,1,,,,,,,,,,,,,,,,,,,,,,,,,,,,,,,,,,,,,,,,,,,,,,,,,,,,,,,,,,,,,,,,,,,,,,,,,,,,,,,,,,,,,,,,,,,,,,,,,,,,,,,,,,,,,,,,,,,,,,,,,,,,,,,,,,,,,,,,,,,,
,8233,ABC,18/10/2002,001,2023-04-08_01h17.26.949,OS3_Mult_verification,2022.2.4,Win32,146.7351431,,,,,,,,,,,,,,,,,,24,1.5451,1,"[""2"",""4"",""return""]","[0.9118000000007385,1.0999999999999943,1.2600999999996247]",,,,,,4 × 6 =,24,0,15,15,15,1,,,,,,,,,,,,,,,,,,,,,,,,,,,,,,,,,,,,,,,,,,,,,,,,,,,,,,,,,,,,,,,,,,,,,,,,,,,,,,,,,,,,,,,,,,,,,,,,,,,,,,,,,,,,,,,,,,,,,,,,,,,,,,,,,,,,,,,,,,,,
,8233,ABC,18/10/2002,001,2023-04-08_01h17.26.949,OS3_Mult_verification,2022.2.4,Win32,146.7351431,,,,,,,,,,,,,,,,,,21,1.5155,1,"[""2"",""1"",""return""]","[0.9795000000000016,1.063699999999244,1.2368999999985135]",,,,,,7 × 3 =,21,0,16,16,16,1,,,,,,,,,,,,,,,,,,,,,,,,,,,,,,,,,,,,,,,,,,,,,,,,,,,,,,,,,,,,,,,,,,,,,,,,,,,,,,,,,,,,,,,,,,,,,,,,,,,,,,,,,,,,,,,,,,,,,,,,,,,,,,,,,,,,,,,,,,,,
,8233,ABC,18/10/2002,001,2023-04-08_01h17.26.949,OS3_Mult_verification,2022.2.4,Win32,146.7351431,,,,,,,,,,,,,,,,,,27,4.8303,1,"[""2"",""7"",""return""]","[3.7716999999992424,4.3072999999988895,4.548900000000373]",,,,,,9 × 3 =,27,0,17,17,17,1,,,,,,,,,,,,,,,,,,,,,,,,,,,,,,,,,,,,,,,,,,,,,,,,,,,,,,,,,,,,,,,,,,,,,,,,,,,,,,,,,,,,,,,,,,,,,,,,,,,,,,,,,,,,,,,,,,,,,,,,,,,,,,,,,,,,,,,,,,,,
,8233,ABC,18/10/2002,001,2023-04-08_01h17.26.949,OS3_Mult_verification,2022.2.4,Win32,146.7351431,,,,,,,,,,,,,,,,,,28,3.0602,1,"[""2"",""8"",""return""]","[2.1475999999996134,2.5699000000003593,2.7790999999996018]",,,,,,4 × 7 =,28,0,18,18,18,1,,,,,,,,,,,,,,,,,,,,,,,,,,,,,,,,,,,,,,,,,,,,,,,,,,,,,,,,,,,,,,,,,,,,,,,,,,,,,,,,,,,,,,,,,,,,,,,,,,,,,,,,,,,,,,,,,,,,,,,,,,,,,,,,,,,,,,,,,,,,
,8233,ABC,18/10/2002,001,2023-04-08_01h17.26.949,OS3_Mult_verification,2022.2.4,Win32,146.7351431,,,,,,,,,,,,,,,,,,18,2.0117,1,"[""1"",""8"",""return""]","[0.7708000000007473,1.5217000000011183,1.7340000000000089]",,,,,,2 × 9 =,18,0,19,19,19,1,,,,,,,,,,,,,,,,,,,,,,,,,,,,,,,,,,,,,,,,,,,,,,,,,,,,,,,,,,,,,,,,,,,,,,,,,,,,,,,,,,,,,,,,,,,,,,,,,,,,,,,,,,,,,,,,,,,,,,,,,,,,,,,,,,,,,,,,,,,,
,8233,ABC,18/10/2002,001,2023-04-08_01h17.26.949,OS3_Mult_verification,2022.2.4,Win32,146.7351431,,,,,,,,,,,,,,,,,,72,6.5489,1,"[""7"",""2"",""return""]","[5.805999999999983,6.091800000000717,6.259300000000735]",,,,,,9 × 8 =,72,0,20,20,20,1,,,,,,,,,,,,,,,,,,,,,,,,,,,,,,,,,,,,,,,,,,,,,,,,,,,,,,,,,,,,,,,,,,,,,,,,,,,,,,,,,,,,,,,,,,,,,,,,,,,,,,,,,,,,,,,,,,,,,,,,,,,,,,,,,,,,,,,,,,,,
,8233,ABC,18/10/2002,001,2023-04-08_01h17.26.949,OS3_Mult_verification,2022.2.4,Win32,146.7351431,,,,,,,,,,,,,,,,,,54,4.3045,0,"[""5"",""4"",""return""]","[3.3734000000004016,3.7537999999989324,4.024000000000001]",,,,,,7 × 6 =,42,0,21,21,21,1,,,,,,,,,,,,,,,,,,,,,,,,,,,,,,,,,,,,,,,,,,,,,,,,,,,,,,,,,,,,,,,,,,,,,,,,,,,,,,,,,,,,,,,,,,,,,,,,,,,,,,,,,,,,,,,,,,,,,,,,,,,,,,,,,,,,,,,,,,,,
,8233,ABC,18/10/2002,001,2023-04-08_01h17.26.949,OS3_Mult_verification,2022.2.4,Win32,146.7351431,,,,,,,,,,,,,,,,,,54,8.2197,1,"[""5"",""4"",""return""]","[7.696000000000026,7.7713999999984935,7.937299999998913]",,,,,,6 × 9 =,54,0,22,22,22,1,,,,,,,,,,,,,,,,,,,,,,,,,,,,,,,,,,,,,,,,,,,,,,,,,,,,,,,,,,,,,,,,,,,,,,,,,,,,,,,,,,,,,,,,,,,,,,,,,,,,,,,,,,,,,,,,,,,,,,,,,,,,,,,,,,,,,,,,,,,,
,8233,ABC,18/10/2002,001,2023-04-08_01h17.26.949,OS3_Mult_verification,2022.2.4,Win32,146.7351431,,,,,,,,,,,,,,,,,,45,1.5912,1,"[""4"",""5"",""return""]","[0.9715999999996257,1.105799999998851,1.3196999999992727]",,,,,,9 × 5 =,45,0,23,23,23,1,,,,,,,,,,,,,,,,,,,,,,,,,,,,,,,,,,,,,,,,,,,,,,,,,,,,,,,,,,,,,,,,,,,,,,,,,,,,,,,,,,,,,,,,,,,,,,,,,,,,,,,,,,,,,,,,,,,,,,,,,,,,,,,,,,,,,,,,,,,,
,8233,ABC,18/10/2002,001,2023-04-08_01h17.26.949,OS3_Mult_verification,2022.2.4,Win32,146.7351431,,,,,,,,,,,,,,,,,,56,2.6378,1,"[""5"",""6"",""return""]","[2.12919999999923,2.238400000000354,2.3658000000007178]",,,,,,8 × 7 =,56,0,24,24,24,1,,,,,,,,,,,,,,,,,,,,,,,,,,,,,,,,,,,,,,,,,,,,,,,,,,,,,,,,,,,,,,,,,,,,,,,,,,,,,,,,,,,,,,,,,,,,,,,,,,,,,,,,,,,,,,,,,,,,,,,,,,,,,,,,,,,,,,,,,,,,
,8233,ABC,18/10/2002,001,2023-04-08_01h17.26.949,OS3_Mult_verification,2022.2.4,Win32,146.7351431,,,,,,,,,,,,,,,,,,36,2.5832,1,"[""3"",""6"",""return""]","[1.7545999999996411,2.1497999999988906,2.3041999999992413]",,,,,,6 × 6 =,36,0,25,25,25,1,,,,,,,,,,,,,,,,,,,,,,,,,,,,,,,,,,,,,,,,,,,,,,,,,,,,,,,,,,,,,,,,,,,,,,,,,,,,,,,,,,,,,,,,,,,,,,,,,,,,,,,,,,,,,,,,,,,,,,,,,,,,,,,,,,,,,,,,,,,,
,8233,ABC,18/10/2002,001,2023-04-08_01h17.26.949,OS3_Mult_verification,2022.2.4,Win32,146.7351431,,,,,,,,,,,,,,,,,,35,2.2311,1,"[""3"",""5"",""return""]","[1.584099999999637,1.764599999999632,1.9442000000011035]",,,,,,5 × 7 =,35,0,26,26,26,1,,,,,,,,,,,,,,,,,,,,,,,,,,,,,,,,,,,,,,,,,,,,,,,,,,,,,,,,,,,,,,,,,,,,,,,,,,,,,,,,,,,,,,,,,,,,,,,,,,,,,,,,,,,,,,,,,,,,,,,,,,,,,,,,,,,,,,,,,,,,
,8233,ABC,18/10/2002,001,2023-04-08_01h17.26.949,OS3_Mult_verification,2022.2.4,Win32,146.7351431,,,,,,,,,,,,,,,,,,32,2.3915,0,"[""3"",""2"",""return""]","[1.837599999999611,1.9165999999996188,2.109800000000746]",,,,,,4 × 9 =,36,0,27,27,27,1,,,,,,,,,,,,,,,,,,,,,,,,,,,,,,,,,,,,,,,,,,,,,,,,,,,,,,,,,,,,,,,,,,,,,,,,,,,,,,,,,,,,,,,,,,,,,,,,,,,,,,,,,,,,,,,,,,,,,,,,,,,,,,,,,,,,,,,,,,,,
,8233,ABC,18/10/2002,001,2023-04-08_01h17.26.949,OS3_Mult_verification,2022.2.4,Win32,146.7351431,,,,,,,,,,,,,,,,,,48,2.3437,1,"[""4"",""8"",""return""]","[1.0688999999985072,1.7769999999999868,2.0698999999984835]",,,,,,8 × 6 =,48,0,28,28,28,1,,,,,,,,,,,,,,,,,,,,,,,,,,,,,,,,,,,,,,,,,,,,,,,,,,,,,,,,,,,,,,,,,,,,,,,,,,,,,,,,,,,,,,,,,,,,,,,,,,,,,,,,,,,,,,,,,,,,,,,,,,,,,,,,,,,,,,,,,,,,
,8233,ABC,18/10/2002,001,2023-04-08_01h17.26.949,OS3_Mult_verification,2022.2.4,Win32,146.7351431,,,,,,,,,,,,,,,,,,64,2.7621,0,"[""6"",""4"",""return""]","[1.8657000000011408,2.29320000000115,2.480099999999652]",,,,,,9 × 7 =,63,0,29,29,29,1,,,,,,,,,,,,,,,,,,,,,,,,,,,,,,,,,,,,,,,,,,,,,,,,,,,,,,,,,,,,,,,,,,,,,,,,,,,,,,,,,,,,,,,,,,,,,,,,,,,,,,,,,,,,,,,,,,,,,,,,,,,,,,,,,,,,,,,,,,,,
,8233,ABC,18/10/2002,001,2023-04-08_01h17.26.949,OS3_Mult_verification,2022.2.4,Win32,146.7351431,,,,,,,,,,,,,,,,,,12,1.3553,1,"[""1"",""2"",""return""]","[0.819599999999582,0.9109000000003675,1.077199999999209]",,,,,,4 × 3 =,12,0,30,30,30,1,,,,,,,,,,,,,,,,,,,,,,,,,,,,,,,,,,,,,,,,,,,,,,,,,,,,,,,,,,,,,,,,,,,,,,,,,,,,,,,,,,,,,,,,,,,,,,,,,,,,,,,,,,,,,,,,,,,,,,,,,,,,,,,,,,,,,,,,,,,,
,8233,ABC,18/10/2002,001,2023-04-08_01h17.26.949,OS3_Mult_verification,2022.2.4,Win32,146.7351431,,,,,,,,,,,,,,,,,,25,1.5655,1,"[""2"",""5"",""return""]","[0.8485999999996352,1.0970999999996138,1.2794000000003507]",,,,,,5 × 5 =,25,0,31,31,31,1,,,,,,,,,,,,,,,,,,,,,,,,,,,,,,,,,,,,,,,,,,,,,,,,,,,,,,,,,,,,,,,,,,,,,,,,,,,,,,,,,,,,,,,,,,,,,,,,,,,,,,,,,,,,,,,,,,,,,,,,,,,,,,,,,,,,,,,,,,,,
,8233,ABC,18/10/2002,001,2023-04-08_01h17.26.949,OS3_Mult_verification,2022.2.4,Win32,146.7351431,,,,,,,,,,,,,,,,,,6,1.5778,1,"[""6"",""return""]","[1.1359999999999673,1.3012000000010744]",,,,,,3 × 2 =,6,0,32,32,32,1,,,,,,,,,,,,,,,,,,,,,,,,,,,,,,,,,,,,,,,,,,,,,,,,,,,,,,,,,,,,,,,,,,,,,,,,,,,,,,,,,,,,,,,,,,,,,,,,,,,,,,,,,,,,,,,,,,,,,,,,,,,,,,,,,,,,,,,,,,,,
,8233,ABC,18/10/2002,001,2023-04-08_01h17.26.949,OS3_Mult_verification,2022.2.4,Win32,146.7351431,,,,,,,,,,,,,,,,,,20,1.8045,1,"[""2"",""0"",""return""]","[0.8471999999992477,1.272199999999259,1.5211999999992827]",,,,,,5 × 4 =,20,0,33,33,33,1,,,,,,,,,,,,,,,,,,,,,,,,,,,,,,,,,,,,,,,,,,,,,,,,,,,,,,,,,,,,,,,,,,,,,,,,,,,,,,,,,,,,,,,,,,,,,,,,,,,,,,,,,,,,,,,,,,,,,,,,,,,,,,,,,,,,,,,,,,,,
,8233,ABC,18/10/2002,001,2023-04-08_01h17.26.949,OS3_Mult_verification,2022.2.4,Win32,146.7351431,,,,,,,,,,,,,,,,,,8,1.5753,1,"[""8"",""return""]","[1.1094999999999686,1.3041999999992413]",,,,,,4 × 2 =,8,0,34,34,34,1,,,,,,,,,,,,,,,,,,,,,,,,,,,,,,,,,,,,,,,,,,,,,,,,,,,,,,,,,,,,,,,,,,,,,,,,,,,,,,,,,,,,,,,,,,,,,,,,,,,,,,,,,,,,,,,,,,,,,,,,,,,,,,,,,,,,,,,,,,,,
,8233,ABC,18/10/2002,001,2023-04-08_01h17.26.949,OS3_Mult_verification,2022.2.4,Win32,146.7351431,,,,,,,,,,,,,,,,,,12,1.5335,1,"[""1"",""2"",""return""]","[1.0242999999988456,1.0902999999988765,1.2602999999988356]",,,,,,2 × 6 =,12,0,35,35,35,1,,,,,,,,,,,,,,,,,,,,,,,,,,,,,,,,,,,,,,,,,,,,,,,,,,,,,,,,,,,,,,,,,,,,,,,,,,,,,,,,,,,,,,,,,,,,,,,,,,,,,,,,,,,,,,,,,,,,,,,,,,,,,,,,,,,,,,,,,,,,
,8233,ABC,18/10/2002,001,2023-04-08_01h17.26.949,OS3_Mult_verification,2022.2.4,Win32,146.7351431,,,,,,,,,,,,,,,,,,15,2.7479,1,"[""1"",""5"",""return""]","[2.062000000000012,2.29389999999853,2.4646999999992545]",,,,,,3 × 5 =,15,0,36,36,36,1,,,,,,,,,,,,,,,,,,,,,,,,,,,,,,,,,,,,,,,,,,,,,,,,,,,,,,,,,,,,,,,,,,,,,,,,,,,,,,,,,,,,,,,,,,,,,,,,,,,,,,,,,,,,,,,,,,,,,,,,,,,,,,,,,,,,,,,,,,,,
,8233,ABC,18/10/2002,001,2023-04-08_01h17.26.949,OS3_Mult_verification,2022.2.4,Win32,146.7351431,,,,,,,,,,,,,,,,,,18,2.7706,1,"[""1"",""8"",""return""]","[1.257599999999627,2.0004000000003543,2.4887999999988892]",,,,,,6 × 3 =,18,0,37,37,37,1,,,,,,,,,,,,,,,,,,,,,,,,,,,,,,,,,,,,,,,,,,,,,,,,,,,,,,,,,,,,,,,,,,,,,,,,,,,,,,,,,,,,,,,,,,,,,,,,,,,,,,,,,,,,,,,,,,,,,,,,,,,,,,,,,,,,,,,,,,,,
,8233,ABC,18/10/2002,001,2023-04-08_01h17.26.949,OS3_Mult_verification,2022.2.4,Win32,146.7351431,,,,,,,,,,,,,,,,,,1,1.3021,0,"[""1""]",[0.8357999999989261],,,,,,2 × 5 =,10,0,38,38,38,1,,,,,,,,,,,,,,,,,,,,,,,,,,,,,,,,,,,,,,,,,,,,,,,,,,,,,,,,,,,,,,,,,,,,,,,,,,,,,,,,,,,,,,,,,,,,,,,,,,,,,,,,,,,,,,,,,,,,,,,,,,,,,,,,,,,,,,,,,,,,
,8233,ABC,18/10/2002,001,2023-04-08_01h17.26.949,OS3_Mult_verification,2022.2.4,Win32,146.7351431,,,,,,,,,,,,,,,,space,1.87,,,,,,,,,,,,,,,,,,right,1,0.6733,0,0,0,1,1,practice,7,8,7 | 8,1,0.065,0.05,incongruent,right,,,,,,,,,,,,,,,,,,,,,,,,,,,,,,,,,,,,,,,,,,,,,,,,,,,,,,,,,,,,,,,,,,,,,,,,,,,,,,,,,,,,,,,,,,,,,,,,,,,,,,,,,,,,,,,,,,,,,,,,,,,
,8233,ABC,18/10/2002,001,2023-04-08_01h17.26.949,OS3_Mult_verification,2022.2.4,Win32,146.7351431,,,,,,,,,,,,,,,,,,,,,,,,,,,,,,,,,,,right,1,0.4557,0,1,1,2,1,practice,4,9,4 | 9,5,0.06,0.06,neutral,right,,,,,,,,,,,,,,,,,,,,,,,,,,,,,,,,,,,,,,,,,,,,,,,,,,,,,,,,,,,,,,,,,,,,,,,,,,,,,,,,,,,,,,,,,,,,,,,,,,,,,,,,,,,,,,,,,,,,,,,,,,,
,8233,ABC,18/10/2002,001,2023-04-08_01h17.26.949,OS3_Mult_verification,2022.2.4,Win32,146.7351431,,,,,,,,,,,,,,,,,,,,,,,,,,,,,,,,,,,right,1,0.6037,0,2,2,0,1,practice,1,2,1 | 2,1,0.05,0.065,congruent,right,,,,,,,,,,,,,,,,,,,,,,,,,,,,,,,,,,,,,,,,,,,,,,,,,,,,,,,,,,,,,,,,,,,,,,,,,,,,,,,,,,,,,,,,,,,,,,,,,,,,,,,,,,,,,,,,,,,,,,,,,,,
,8233,ABC,18/10/2002,001,2023-04-08_01h17.26.949,OS3_Mult_verification,2022.2.4,Win32,146.7351431,,,,,,,,,,,,,,,,,,,,,,,,,,,,,,,,,,,left,1,0.4563,,,,,,magnitude,8,3,8 | 3,5,0.06,0.06,neutral,left,0,0,0,70,1,,,,,,,,,,,,,,,,,,,,,,,,,,,,,,,,,,,,,,,,,,,,,,,,,,,,,,,,,,,,,,,,,,,,,,,,,,,,,,,,,,,,,,,,,,,,,,,,,,,,,,,,,,,,,,,,,,,,,,
,8233,ABC,18/10/2002,001,2023-04-08_01h17.26.949,OS3_Mult_verification,2022.2.4,Win32,146.7351431,,,,,,,,,,,,,,,,,,,,,,,,,,,,,,,,,,,left,1,0.4336,,,,,,magnitude,9,4,9 | 4,5,0.06,0.06,neutral,left,0,1,1,71,1,,,,,,,,,,,,,,,,,,,,,,,,,,,,,,,,,,,,,,,,,,,,,,,,,,,,,,,,,,,,,,,,,,,,,,,,,,,,,,,,,,,,,,,,,,,,,,,,,,,,,,,,,,,,,,,,,,,,,,
,8233,ABC,18/10/2002,001,2023-04-08_01h17.26.949,OS3_Mult_verification,2022.2.4,Win32,146.7351431,,,,,,,,,,,,,,,,,,,,,,,,,,,,,,,,,,,left,1,0.4868,,,,,,magnitude,2,1,2 | 1,1,0.065,0.05,congruent,left,0,2,2,4,1,,,,,,,,,,,,,,,,,,,,,,,,,,,,,,,,,,,,,,,,,,,,,,,,,,,,,,,,,,,,,,,,,,,,,,,,,,,,,,,,,,,,,,,,,,,,,,,,,,,,,,,,,,,,,,,,,,,,,,
,8233,ABC,18/10/2002,001,2023-04-08_01h17.26.949,OS3_Mult_verification,2022.2.4,Win32,146.7351431,,,,,,,,,,,,,,,,,,,,,,,,,,,,,,,,,,,left,1,0.545,,,,,,magnitude,8,6,8 | 6,2,0.05,0.065,incongruent,left,0,3,3,38,1,,,,,,,,,,,,,,,,,,,,,,,,,,,,,,,,,,,,,,,,,,,,,,,,,,,,,,,,,,,,,,,,,,,,,,,,,,,,,,,,,,,,,,,,,,,,,,,,,,,,,,,,,,,,,,,,,,,,,,
,8233,ABC,18/10/2002,001,2023-04-08_01h17.26.949,OS3_Mult_verification,2022.2.4,Win32,146.7351431,,,,,,,,,,,,,,,,,,,,,,,,,,,,,,,,,,,right,1,0.4505,,,,,,magnitude,6,8,6 | 8,2,0.06,0.06,neutral,right,0,4,4,58,1,,,,,,,,,,,,,,,,,,,,,,,,,,,,,,,,,,,,,,,,,,,,,,,,,,,,,,,,,,,,,,,,,,,,,,,,,,,,,,,,,,,,,,,,,,,,,,,,,,,,,,,,,,,,,,,,,,,,,,
,8233,ABC,18/10/2002,001,2023-04-08_01h17.26.949,OS3_Mult_verification,2022.2.4,Win32,146.7351431,,,,,,,,,,,,,,,,,,,,,,,,,,,,,,,,,,,left,1,0.491,,,,,,magnitude,9,7,9 | 7,2,0.06,0.06,neutral,left,0,5,5,63,1,,,,,,,,,,,,,,,,,,,,,,,,,,,,,,,,,,,,,,,,,,,,,,,,,,,,,,,,,,,,,,,,,,,,,,,,,,,,,,,,,,,,,,,,,,,,,,,,,,,,,,,,,,,,,,,,,,,,,,
,8233,ABC,18/10/2002,001,2023-04-08_01h17.26.949,OS3_Mult_verification,2022.2.4,Win32,146.7351431,,,,,,,,,,,,,,,,,,,,,,,,,,,,,,,,,,,right,1,0.3889,,,,,,magnitude,3,8,3 | 8,5,0.05,0.065,congruent,right,0,6,6,18,1,,,,,,,,,,,,,,,,,,,,,,,,,,,,,,,,,,,,,,,,,,,,,,,,,,,,,,,,,,,,,,,,,,,,,,,,,,,,,,,,,,,,,,,,,,,,,,,,,,,,,,,,,,,,,,,,,,,,,,
,8233,ABC,18/10/2002,001,2023-04-08_01h17.26.949,OS3_Mult_verification,2022.2.4,Win32,146.7351431,,,,,,,,,,,,,,,,,,,,,,,,,,,,,,,,,,,right,1,0.4356,,,,,,magnitude,3,8,3 | 8,5,0.06,0.06,neutral,right,0,7,7,66,1,,,,,,,,,,,,,,,,,,,,,,,,,,,,,,,,,,,,,,,,,,,,,,,,,,,,,,,,,,,,,,,,,,,,,,,,,,,,,,,,,,,,,,,,,,,,,,,,,,,,,,,,,,,,,,,,,,,,,,
,8233,ABC,18/10/2002,001,2023-04-08_01h17.26.949,OS3_Mult_verification,2022.2.4,Win32,146.7351431,,,,,,,,,,,,,,,,,,,,,,,,,,,,,,,,,,,right,1,0.4263,,,,,,magnitude,1,6,1 | 6,5,0.05,0.065,congruent,right,0,8,8,16,1,,,,,,,,,,,,,,,,,,,,,,,,,,,,,,,,,,,,,,,,,,,,,,,,,,,,,,,,,,,,,,,,,,,,,,,,,,,,,,,,,,,,,,,,,,,,,,,,,,,,,,,,,,,,,,,,,,,,,,
,8233,ABC,18/10/2002,001,2023-04-08_01h17.26.949,OS3_Mult_verification,2022.2.4,Win32,146.7351431,,,,,,,,,,,,,,,,,,,,,,,,,,,,,,,,,,,left,0,0.4373,,,,,,magnitude,6,8,6 | 8,2,0.05,0.065,congruent,right,0,9,9,10,1,,,,,,,,,,,,,,,,,,,,,,,,,,,,,,,,,,,,,,,,,,,,,,,,,,,,,,,,,,,,,,,,,,,,,,,,,,,,,,,,,,,,,,,,,,,,,,,,,,,,,,,,,,,,,,,,,,,,,,
,8233,ABC,18/10/2002,001,2023-04-08_01h17.26.949,OS3_Mult_verification,2022.2.4,Win32,146.7351431,,,,,,,,,,,,,,,,,,,,,,,,,,,,,,,,,,,right,1,0.7476,,,,,,magnitude,2,4,2 | 4,2,0.05,0.065,congruent,right,0,10,10,9,1,,,,,,,,,,,,,,,,,,,,,,,,,,,,,,,,,,,,,,,,,,,,,,,,,,,,,,,,,,,,,,,,,,,,,,,,,,,,,,,,,,,,,,,,,,,,,,,,,,,,,,,,,,,,,,,,,,,,,,
,8233,ABC,18/10/2002,001,2023-04-08_01h17.26.949,OS3_Mult_verification,2022.2.4,Win32,146.7351431,,,,,,,,,,,,,,,,,,,,,,,,,,,,,,,,,,,left,1,0.586,,,,,,magnitude,4,2,4 | 2,2,0.065,0.05,congruent,left,0,11,11,13,1,,,,,,,,,,,,,,,,,,,,,,,,,,,,,,,,,,,,,,,,,,,,,,,,,,,,,,,,,,,,,,,,,,,,,,,,,,,,,,,,,,,,,,,,,,,,,,,,,,,,,,,,,,,,,,,,,,,,,,
,8233,ABC,18/10/2002,001,2023-04-08_01h17.26.949,OS3_Mult_verification,2022.2.4,Win32,146.7351431,,,,,,,,,,,,,,,,,,,,,,,,,,,,,,,,,,,left,1,0.6982,,,,,,magnitude,9,7,9 | 7,2,0.05,0.065,incongruent,left,0,12,12,39,1,,,,,,,,,,,,,,,,,,,,,,,,,,,,,,,,,,,,,,,,,,,,,,,,,,,,,,,,,,,,,,,,,,,,,,,,,,,,,,,,,,,,,,,,,,,,,,,,,,,,,,,,,,,,,,,,,,,,,,
,8233,ABC,18/10/2002,001,2023-04-08_01h17.26.949,OS3_Mult_verification,2022.2.4,Win32,146.7351431,,,,,,,,,,,,,,,,,,,,,,,,,,,,,,,,,,,left,1,0.5191,,,,,,magnitude,3,1,3 | 1,2,0.05,0.065,incongruent,left,0,13,13,36,1,,,,,,,,,,,,,,,,,,,,,,,,,,,,,,,,,,,,,,,,,,,,,,,,,,,,,,,,,,,,,,,,,,,,,,,,,,,,,,,,,,,,,,,,,,,,,,,,,,,,,,,,,,,,,,,,,,,,,,
,8233,ABC,18/10/2002,001,2023-04-08_01h17.26.949,OS3_Mult_verification,2022.2.4,Win32,146.7351431,,,,,,,,,,,,,,,,,,,,,,,,,,,,,,,,,,,right,1,0.7848,,,,,,magnitude,1,2,1 | 2,1,0.06,0.06,neutral,right,0,14,14,48,1,,,,,,,,,,,,,,,,,,,,,,,,,,,,,,,,,,,,,,,,,,,,,,,,,,,,,,,,,,,,,,,,,,,,,,,,,,,,,,,,,,,,,,,,,,,,,,,,,,,,,,,,,,,,,,,,,,,,,,
,8233,ABC,18/10/2002,001,2023-04-08_01h17.26.949,OS3_Mult_verification,2022.2.4,Win32,146.7351431,,,,,,,,,,,,,,,,,,,,,,,,,,,,,,,,,,,right,1,0.6255,,,,,,magnitude,3,4,3 | 4,1,0.065,0.05,incongruent,right,0,15,15,25,1,,,,,,,,,,,,,,,,,,,,,,,,,,,,,,,,,,,,,,,,,,,,,,,,,,,,,,,,,,,,,,,,,,,,,,,,,,,,,,,,,,,,,,,,,,,,,,,,,,,,,,,,,,,,,,,,,,,,,,
,8233,ABC,18/10/2002,001,2023-04-08_01h17.26.949,OS3_Mult_verification,2022.2.4,Win32,146.7351431,,,,,,,,,,,,,,,,,,,,,,,,,,,,,,,,,,,right,1,0.5306,,,,,,magnitude,7,9,7 | 9,2,0.05,0.065,congruent,right,0,16,16,11,1,,,,,,,,,,,,,,,,,,,,,,,,,,,,,,,,,,,,,,,,,,,,,,,,,,,,,,,,,,,,,,,,,,,,,,,,,,,,,,,,,,,,,,,,,,,,,,,,,,,,,,,,,,,,,,,,,,,,,,
,8233,ABC,18/10/2002,001,2023-04-08_01h17.26.949,OS3_Mult_verification,2022.2.4,Win32,146.7351431,,,,,,,,,,,,,,,,,,,,,,,,,,,,,,,,,,,left,1,0.4406,,,,,,magnitude,6,1,6 | 1,5,0.065,0.05,congruent,left,0,17,17,20,1,,,,,,,,,,,,,,,,,,,,,,,,,,,,,,,,,,,,,,,,,,,,,,,,,,,,,,,,,,,,,,,,,,,,,,,,,,,,,,,,,,,,,,,,,,,,,,,,,,,,,,,,,,,,,,,,,,,,,,
,8233,ABC,18/10/2002,001,2023-04-08_01h17.26.949,OS3_Mult_verification,2022.2.4,Win32,146.7351431,,,,,,,,,,,,,,,,,,,,,,,,,,,,,,,,,,,left,1,0.4748,,,,,,magnitude,4,3,4 | 3,1,0.05,0.065,incongruent,left,0,18,18,29,1,,,,,,,,,,,,,,,,,,,,,,,,,,,,,,,,,,,,,,,,,,,,,,,,,,,,,,,,,,,,,,,,,,,,,,,,,,,,,,,,,,,,,,,,,,,,,,,,,,,,,,,,,,,,,,,,,,,,,,
,8233,ABC,18/10/2002,001,2023-04-08_01h17.26.949,OS3_Mult_verification,2022.2.4,Win32,146.7351431,,,,,,,,,,,,,,,,,,,,,,,,,,,,,,,,,,,right,1,0.643,,,,,,magnitude,1,3,1 | 3,2,0.065,0.05,incongruent,right,0,19,19,32,1,,,,,,,,,,,,,,,,,,,,,,,,,,,,,,,,,,,,,,,,,,,,,,,,,,,,,,,,,,,,,,,,,,,,,,,,,,,,,,,,,,,,,,,,,,,,,,,,,,,,,,,,,,,,,,,,,,,,,,
,8233,ABC,18/10/2002,001,2023-04-08_01h17.26.949,OS3_Mult_verification,2022.2.4,Win32,146.7351431,,,,,,,,,,,,,,,,,,,,,,,,,,,,,,,,,,,right,1,0.7946,,,,,,magnitude,1,3,1 | 3,2,0.06,0.06,neutral,right,0,20,20,56,1,,,,,,,,,,,,,,,,,,,,,,,,,,,,,,,,,,,,,,,,,,,,,,,,,,,,,,,,,,,,,,,,,,,,,,,,,,,,,,,,,,,,,,,,,,,,,,,,,,,,,,,,,,,,,,,,,,,,,,
,8233,ABC,18/10/2002,001,2023-04-08_01h17.26.949,OS3_Mult_verification,2022.2.4,Win32,146.7351431,,,,,,,,,,,,,,,,,,,,,,,,,,,,,,,,,,,left,1,0.489,,,,,,magnitude,3,1,3 | 1,2,0.065,0.05,congruent,left,0,21,21,12,1,,,,,,,,,,,,,,,,,,,,,,,,,,,,,,,,,,,,,,,,,,,,,,,,,,,,,,,,,,,,,,,,,,,,,,,,,,,,,,,,,,,,,,,,,,,,,,,,,,,,,,,,,,,,,,,,,,,,,,
,8233,ABC,18/10/2002,001,2023-04-08_01h17.26.949,OS3_Mult_verification,2022.2.4,Win32,146.7351431,,,,,,,,,,,,,,,,,,,,,,,,,,,,,,,,,,,left,1,0.5514,,,,,,magnitude,3,1,3 | 1,2,0.06,0.06,neutral,left,0,22,22,60,1,,,,,,,,,,,,,,,,,,,,,,,,,,,,,,,,,,,,,,,,,,,,,,,,,,,,,,,,,,,,,,,,,,,,,,,,,,,,,,,,,,,,,,,,,,,,,,,,,,,,,,,,,,,,,,,,,,,,,,
,8233,ABC,18/10/2002,001,2023-04-08_01h17.26.949,OS3_Mult_verification,2022.2.4,Win32,146.7351431,,,,,,,,,,,,,,,,,,,,,,,,,,,,,,,,,,,right,1,0.5968,,,,,,magnitude,6,7,6 | 7,1,0.06,0.06,neutral,right,0,23,23,50,1,,,,,,,,,,,,,,,,,,,,,,,,,,,,,,,,,,,,,,,,,,,,,,,,,,,,,,,,,,,,,,,,,,,,,,,,,,,,,,,,,,,,,,,,,,,,,,,,,,,,,,,,,,,,,,,,,,,,,,
,8233,ABC,18/10/2002,001,2023-04-08_01h17.26.949,OS3_Mult_verification,2022.2.4,Win32,146.7351431,,,,,,,,,,,,,,,,,,,,,,,,,,,,,,,,,,,right,1,0.4747,,,,,,magnitude,2,7,2 | 7,5,0.05,0.065,congruent,right,0,24,24,17,1,,,,,,,,,,,,,,,,,,,,,,,,,,,,,,,,,,,,,,,,,,,,,,,,,,,,,,,,,,,,,,,,,,,,,,,,,,,,,,,,,,,,,,,,,,,,,,,,,,,,,,,,,,,,,,,,,,,,,,
,8233,ABC,18/10/2002,001,2023-04-08_01h17.26.949,OS3_Mult_verification,2022.2.4,Win32,146.7351431,,,,,,,,,,,,,,,,,,,,,,,,,,,,,,,,,,,right,1,0.6418,,,,,,magnitude,3,8,3 | 8,5,0.065,0.05,incongruent,right,0,25,25,42,1,,,,,,,,,,,,,,,,,,,,,,,,,,,,,,,,,,,,,,,,,,,,,,,,,,,,,,,,,,,,,,,,,,,,,,,,,,,,,,,,,,,,,,,,,,,,,,,,,,,,,,,,,,,,,,,,,,,,,,
,8233,ABC,18/10/2002,001,2023-04-08_01h17.26.949,OS3_Mult_verification,2022.2.4,Win32,146.7351431,,,,,,,,,,,,,,,,,,,,,,,,,,,,,,,,,,,left,1,0.6684,,,,,,magnitude,7,6,7 | 6,1,0.06,0.06,neutral,left,0,26,26,54,1,,,,,,,,,,,,,,,,,,,,,,,,,,,,,,,,,,,,,,,,,,,,,,,,,,,,,,,,,,,,,,,,,,,,,,,,,,,,,,,,,,,,,,,,,,,,,,,,,,,,,,,,,,,,,,,,,,,,,,
,8233,ABC,18/10/2002,001,2023-04-08_01h17.26.949,OS3_Mult_verification,2022.2.4,Win32,146.7351431,,,,,,,,,,,,,,,,,,,,,,,,,,,,,,,,,,,left,1,0.4889,,,,,,magnitude,7,6,7 | 6,1,0.05,0.065,incongruent,left,0,27,27,30,1,,,,,,,,,,,,,,,,,,,,,,,,,,,,,,,,,,,,,,,,,,,,,,,,,,,,,,,,,,,,,,,,,,,,,,,,,,,,,,,,,,,,,,,,,,,,,,,,,,,,,,,,,,,,,,,,,,,,,,
,8233,ABC,18/10/2002,001,2023-04-08_01h17.26.949,OS3_Mult_verification,2022.2.4,Win32,146.7351431,,,,,,,,,,,,,,,,,,,,,,,,,,,,,,,,,,,left,1,0.4358,,,,,,magnitude,7,2,7 | 2,5,0.065,0.05,congruent,left,0,28,28,21,1,,,,,,,,,,,,,,,,,,,,,,,,,,,,,,,,,,,,,,,,,,,,,,,,,,,,,,,,,,,,,,,,,,,,,,,,,,,,,,,,,,,,,,,,,,,,,,,,,,,,,,,,,,,,,,,,,,,,,,
,8233,ABC,18/10/2002,001,2023-04-08_01h17.26.949,OS3_Mult_verification,2022.2.4,Win32,146.7351431,,,,,,,,,,,,,,,,,,,,,,,,,,,,,,,,,,,right,1,0.5472,,,,,,magnitude,1,3,1 | 3,2,0.05,0.065,congruent,right,0,29,29,8,1,,,,,,,,,,,,,,,,,,,,,,,,,,,,,,,,,,,,,,,,,,,,,,,,,,,,,,,,,,,,,,,,,,,,,,,,,,,,,,,,,,,,,,,,,,,,,,,,,,,,,,,,,,,,,,,,,,,,,,
,8233,ABC,18/10/2002,001,2023-04-08_01h17.26.949,OS3_Mult_verification,2022.2.4,Win32,146.7351431,,,,,,,,,,,,,,,,,,,,,,,,,,,,,,,,,,,right,1,0.4813,,,,,,magnitude,1,6,1 | 6,5,0.06,0.06,neutral,right,0,30,30,64,1,,,,,,,,,,,,,,,,,,,,,,,,,,,,,,,,,,,,,,,,,,,,,,,,,,,,,,,,,,,,,,,,,,,,,,,,,,,,,,,,,,,,,,,,,,,,,,,,,,,,,,,,,,,,,,,,,,,,,,
,8233,ABC,18/10/2002,001,2023-04-08_01h17.26.949,OS3_Mult_verification,2022.2.4,Win32,146.7351431,,,,,,,,,,,,,,,,,,,,,,,,,,,,,,,,,,,right,1,0.6426,,,,,,magnitude,6,7,6 | 7,1,0.05,0.065,congruent,right,0,31,31,2,1,,,,,,,,,,,,,,,,,,,,,,,,,,,,,,,,,,,,,,,,,,,,,,,,,,,,,,,,,,,,,,,,,,,,,,,,,,,,,,,,,,,,,,,,,,,,,,,,,,,,,,,,,,,,,,,,,,,,,,
,8233,ABC,18/10/2002,001,2023-04-08_01h17.26.949,OS3_Mult_verification,2022.2.4,Win32,146.7351431,,,,,,,,,,,,,,,,,,,,,,,,,,,,,,,,,,,right,1,0.4325,,,,,,magnitude,2,7,2 | 7,5,0.06,0.06,neutral,right,0,32,32,65,1,,,,,,,,,,,,,,,,,,,,,,,,,,,,,,,,,,,,,,,,,,,,,,,,,,,,,,,,,,,,,,,,,,,,,,,,,,,,,,,,,,,,,,,,,,,,,,,,,,,,,,,,,,,,,,,,,,,,,,
,8233,ABC,18/10/2002,001,2023-04-08_01h17.26.949,OS3_Mult_verification,2022.2.4,Win32,146.7351431,,,,,,,,,,,,,,,,,,,,,,,,,,,,,,,,,,,left,1,0.6465,,,,,,magnitude,9,8,9 | 8,1,0.05,0.065,incongruent,left,0,33,33,31,1,,,,,,,,,,,,,,,,,,,,,,,,,,,,,,,,,,,,,,,,,,,,,,,,,,,,,,,,,,,,,,,,,,,,,,,,,,,,,,,,,,,,,,,,,,,,,,,,,,,,,,,,,,,,,,,,,,,,,,
,8233,ABC,18/10/2002,001,2023-04-08_01h17.26.949,OS3_Mult_verification,2022.2.4,Win32,146.7351431,,,,,,,,,,,,,,,,,,,,,,,,,,,,,,,,,,,left,1,0.662,,,,,,magnitude,8,6,8 | 6,2,0.065,0.05,congruent,left,0,34,34,14,1,,,,,,,,,,,,,,,,,,,,,,,,,,,,,,,,,,,,,,,,,,,,,,,,,,,,,,,,,,,,,,,,,,,,,,,,,,,,,,,,,,,,,,,,,,,,,,,,,,,,,,,,,,,,,,,,,,,,,,
,8233,ABC,18/10/2002,001,2023-04-08_01h17.26.949,OS3_Mult_verification,2022.2.4,Win32,146.7351431,,,,,,,,,,,,,,,,,,,,,,,,,,,,,,,,,,,right,1,0.4909,,,,,,magnitude,8,9,8 | 9,1,0.05,0.065,congruent,right,0,35,35,3,1,,,,,,,,,,,,,,,,,,,,,,,,,,,,,,,,,,,,,,,,,,,,,,,,,,,,,,,,,,,,,,,,,,,,,,,,,,,,,,,,,,,,,,,,,,,,,,,,,,,,,,,,,,,,,,,,,,,,,,
,8233,ABC,18/10/2002,001,2023-04-08_01h17.26.949,OS3_Mult_verification,2022.2.4,Win32,146.7351431,,,,,,,,,,,,,,,,,,,,,,,,,,,,,,,,,,,right,1,0.4692,,,,,,magnitude,8,9,8 | 9,1,0.06,0.06,neutral,right,0,36,36,51,1,,,,,,,,,,,,,,,,,,,,,,,,,,,,,,,,,,,,,,,,,,,,,,,,,,,,,,,,,,,,,,,,,,,,,,,,,,,,,,,,,,,,,,,,,,,,,,,,,,,,,,,,,,,,,,,,,,,,,,
,8233,ABC,18/10/2002,001,2023-04-08_01h17.26.949,OS3_Mult_verification,2022.2.4,Win32,146.7351431,,,,,,,,,,,,,,,,,,,,,,,,,,,,,,,,,,,left,1,0.4497,,,,,,magnitude,4,3,4 | 3,1,0.06,0.06,neutral,left,0,37,37,53,1,,,,,,,,,,,,,,,,,,,,,,,,,,,,,,,,,,,,,,,,,,,,,,,,,,,,,,,,,,,,,,,,,,,,,,,,,,,,,,,,,,,,,,,,,,,,,,,,,,,,,,,,,,,,,,,,,,,,,,
,8233,ABC,18/10/2002,001,2023-04-08_01h17.26.949,OS3_Mult_verification,2022.2.4,Win32,146.7351431,,,,,,,,,,,,,,,,,,,,,,,,,,,,,,,,,,,left,1,0.4997,,,,,,magnitude,2,1,2 | 1,1,0.06,0.06,neutral,left,0,38,38,52,1,,,,,,,,,,,,,,,,,,,,,,,,,,,,,,,,,,,,,,,,,,,,,,,,,,,,,,,,,,,,,,,,,,,,,,,,,,,,,,,,,,,,,,,,,,,,,,,,,,,,,,,,,,,,,,,,,,,,,,
,8233,ABC,18/10/2002,001,2023-04-08_01h17.26.949,OS3_Mult_verification,2022.2.4,Win32,146.7351431,,,,,,,,,,,,,,,,,,,,,,,,,,,,,,,,,,,left,1,0.4385,,,,,,magnitude,2,1,2 | 1,1,0.05,0.065,incongruent,left,0,39,39,28,1,,,,,,,,,,,,,,,,,,,,,,,,,,,,,,,,,,,,,,,,,,,,,,,,,,,,,,,,,,,,,,,,,,,,,,,,,,,,,,,,,,,,,,,,,,,,,,,,,,,,,,,,,,,,,,,,,,,,,,
,8233,ABC,18/10/2002,001,2023-04-08_01h17.26.949,OS3_Mult_verification,2022.2.4,Win32,146.7351431,,,,,,,,,,,,,,,,,,,,,,,,,,,,,,,,,,,left,1,0.5347,,,,,,magnitude,6,1,6 | 1,5,0.05,0.065,incongruent,left,0,40,40,44,1,,,,,,,,,,,,,,,,,,,,,,,,,,,,,,,,,,,,,,,,,,,,,,,,,,,,,,,,,,,,,,,,,,,,,,,,,,,,,,,,,,,,,,,,,,,,,,,,,,,,,,,,,,,,,,,,,,,,,,
,8233,ABC,18/10/2002,001,2023-04-08_01h17.26.949,OS3_Mult_verification,2022.2.4,Win32,146.7351431,,,,,,,,,,,,,,,,,,,,,,,,,,,,,,,,,,,right,1,0.6087,,,,,,magnitude,7,9,7 | 9,2,0.06,0.06,neutral,right,0,41,41,59,1,,,,,,,,,,,,,,,,,,,,,,,,,,,,,,,,,,,,,,,,,,,,,,,,,,,,,,,,,,,,,,,,,,,,,,,,,,,,,,,,,,,,,,,,,,,,,,,,,,,,,,,,,,,,,,,,,,,,,,
,8233,ABC,18/10/2002,001,2023-04-08_01h17.26.949,OS3_Mult_verification,2022.2.4,Win32,146.7351431,,,,,,,,,,,,,,,,,,,,,,,,,,,,,,,,,,,right,1,0.4761,,,,,,magnitude,3,4,3 | 4,1,0.05,0.065,congruent,right,0,42,42,1,1,,,,,,,,,,,,,,,,,,,,,,,,,,,,,,,,,,,,,,,,,,,,,,,,,,,,,,,,,,,,,,,,,,,,,,,,,,,,,,,,,,,,,,,,,,,,,,,,,,,,,,,,,,,,,,,,,,,,,,
,8233,ABC,18/10/2002,001,2023-04-08_01h17.26.949,OS3_Mult_verification,2022.2.4,Win32,146.7351431,,,,,,,,,,,,,,,,,,,,,,,,,,,,,,,,,,,left,1,0.4149,,,,,,magnitude,8,3,8 | 3,5,0.05,0.065,incongruent,left,0,43,43,46,1,,,,,,,,,,,,,,,,,,,,,,,,,,,,,,,,,,,,,,,,,,,,,,,,,,,,,,,,,,,,,,,,,,,,,,,,,,,,,,,,,,,,,,,,,,,,,,,,,,,,,,,,,,,,,,,,,,,,,,
,8233,ABC,18/10/2002,001,2023-04-08_01h17.26.949,OS3_Mult_verification,2022.2.4,Win32,146.7351431,,,,,,,,,,,,,,,,,,,,,,,,,,,,,,,,,,,left,1,0.4587,,,,,,magnitude,9,7,9 | 7,2,0.065,0.05,congruent,left,0,44,44,15,1,,,,,,,,,,,,,,,,,,,,,,,,,,,,,,,,,,,,,,,,,,,,,,,,,,,,,,,,,,,,,,,,,,,,,,,,,,,,,,,,,,,,,,,,,,,,,,,,,,,,,,,,,,,,,,,,,,,,,,
,8233,ABC,18/10/2002,001,2023-04-08_01h17.26.949,OS3_Mult_verification,2022.2.4,Win32,146.7351431,,,,,,,,,,,,,,,,,,,,,,,,,,,,,,,,,,,left,1,0.4506,,,,,,magnitude,9,8,9 | 8,1,0.06,0.06,neutral,left,0,45,45,55,1,,,,,,,,,,,,,,,,,,,,,,,,,,,,,,,,,,,,,,,,,,,,,,,,,,,,,,,,,,,,,,,,,,,,,,,,,,,,,,,,,,,,,,,,,,,,,,,,,,,,,,,,,,,,,,,,,,,,,,
,8233,ABC,18/10/2002,001,2023-04-08_01h17.26.949,OS3_Mult_verification,2022.2.4,Win32,146.7351431,,,,,,,,,,,,,,,,,,,,,,,,,,,,,,,,,,,right,1,0.4625,,,,,,magnitude,4,9,4 | 9,5,0.06,0.06,neutral,right,0,46,46,67,1,,,,,,,,,,,,,,,,,,,,,,,,,,,,,,,,,,,,,,,,,,,,,,,,,,,,,,,,,,,,,,,,,,,,,,,,,,,,,,,,,,,,,,,,,,,,,,,,,,,,,,,,,,,,,,,,,,,,,,
,8233,ABC,18/10/2002,001,2023-04-08_01h17.26.949,OS3_Mult_verification,2022.2.4,Win32,146.7351431,,,,,,,,,,,,,,,,,,,,,,,,,,,,,,,,,,,right,1,0.639,,,,,,magnitude,2,4,2 | 4,2,0.065,0.05,incongruent,right,0,47,47,33,1,,,,,,,,,,,,,,,,,,,,,,,,,,,,,,,,,,,,,,,,,,,,,,,,,,,,,,,,,,,,,,,,,,,,,,,,,,,,,,,,,,,,,,,,,,,,,,,,,,,,,,,,,,,,,,,,,,,,,,
,8233,ABC,18/10/2002,001,2023-04-08_01h17.26.949,OS3_Mult_verification,2022.2.4,Win32,146.7351431,,,,,,,,,,,,,,,,,,,,,,,,,,,,,,,,,,,left,1,0.5746,,,,,,magnitude,4,2,4 | 2,2,0.05,0.065,incongruent,left,0,48,48,37,1,,,,,,,,,,,,,,,,,,,,,,,,,,,,,,,,,,,,,,,,,,,,,,,,,,,,,,,,,,,,,,,,,,,,,,,,,,,,,,,,,,,,,,,,,,,,,,,,,,,,,,,,,,,,,,,,,,,,,,
,8233,ABC,18/10/2002,001,2023-04-08_01h17.26.949,OS3_Mult_verification,2022.2.4,Win32,146.7351431,,,,,,,,,,,,,,,,,,,,,,,,,,,,,,,,,,,right,1,0.4903,,,,,,magnitude,3,4,3 | 4,1,0.06,0.06,neutral,right,0,49,49,49,1,,,,,,,,,,,,,,,,,,,,,,,,,,,,,,,,,,,,,,,,,,,,,,,,,,,,,,,,,,,,,,,,,,,,,,,,,,,,,,,,,,,,,,,,,,,,,,,,,,,,,,,,,,,,,,,,,,,,,,
,8233,ABC,18/10/2002,001,2023-04-08_01h17.26.949,OS3_Mult_verification,2022.2.4,Win32,146.7351431,,,,,,,,,,,,,,,,,,,,,,,,,,,,,,,,,,,right,1,0.5273,,,,,,magnitude,2,4,2 | 4,2,0.06,0.06,neutral,right,0,50,50,57,1,,,,,,,,,,,,,,,,,,,,,,,,,,,,,,,,,,,,,,,,,,,,,,,,,,,,,,,,,,,,,,,,,,,,,,,,,,,,,,,,,,,,,,,,,,,,,,,,,,,,,,,,,,,,,,,,,,,,,,
,8233,ABC,18/10/2002,001,2023-04-08_01h17.26.949,OS3_Mult_verification,2022.2.4,Win32,146.7351431,,,,,,,,,,,,,,,,,,,,,,,,,,,,,,,,,,,right,1,0.6782,,,,,,magnitude,8,9,8 | 9,1,0.065,0.05,incongruent,right,0,51,51,27,1,,,,,,,,,,,,,,,,,,,,,,,,,,,,,,,,,,,,,,,,,,,,,,,,,,,,,,,,,,,,,,,,,,,,,,,,,,,,,,,,,,,,,,,,,,,,,,,,,,,,,,,,,,,,,,,,,,,,,,
,8233,ABC,18/10/2002,001,2023-04-08_01h17.26.949,OS3_Mult_verification,2022.2.4,Win32,146.7351431,,,,,,,,,,,,,,,,,,,,,,,,,,,,,,,,,,,right,1,0.5955,,,,,,magnitude,1,2,1 | 2,1,0.05,0.065,congruent,right,0,52,52,0,1,,,,,,,,,,,,,,,,,,,,,,,,,,,,,,,,,,,,,,,,,,,,,,,,,,,,,,,,,,,,,,,,,,,,,,,,,,,,,,,,,,,,,,,,,,,,,,,,,,,,,,,,,,,,,,,,,,,,,,
,8233,ABC,18/10/2002,001,2023-04-08_01h17.26.949,OS3_Mult_verification,2022.2.4,Win32,146.7351431,,,,,,,,,,,,,,,,,,,,,,,,,,,,,,,,,,,left,1,0.4948,,,,,,magnitude,7,2,7 | 2,5,0.05,0.065,incongruent,left,0,53,53,45,1,,,,,,,,,,,,,,,,,,,,,,,,,,,,,,,,,,,,,,,,,,,,,,,,,,,,,,,,,,,,,,,,,,,,,,,,,,,,,,,,,,,,,,,,,,,,,,,,,,,,,,,,,,,,,,,,,,,,,,
,8233,ABC,18/10/2002,001,2023-04-08_01h17.26.949,OS3_Mult_verification,2022.2.4,Win32,146.7351431,,,,,,,,,,,,,,,,,,,,,,,,,,,,,,,,,,,right,1,0.6054,,,,,,magnitude,7,9,7 | 9,2,0.065,0.05,incongruent,right,0,54,54,35,1,,,,,,,,,,,,,,,,,,,,,,,,,,,,,,,,,,,,,,,,,,,,,,,,,,,,,,,,,,,,,,,,,,,,,,,,,,,,,,,,,,,,,,,,,,,,,,,,,,,,,,,,,,,,,,,,,,,,,,
,8233,ABC,18/10/2002,001,2023-04-08_01h17.26.949,OS3_Mult_verification,2022.2.4,Win32,146.7351431,,,,,,,,,,,,,,,,,,,,,,,,,,,,,,,,,,,left,1,0.4418,,,,,,magnitude,4,2,4 | 2,2,0.06,0.06,neutral,left,0,55,55,61,1,,,,,,,,,,,,,,,,,,,,,,,,,,,,,,,,,,,,,,,,,,,,,,,,,,,,,,,,,,,,,,,,,,,,,,,,,,,,,,,,,,,,,,,,,,,,,,,,,,,,,,,,,,,,,,,,,,,,,,
,8233,ABC,18/10/2002,001,2023-04-08_01h17.26.949,OS3_Mult_verification,2022.2.4,Win32,146.7351431,,,,,,,,,,,,,,,,,,,,,,,,,,,,,,,,,,,left,1,0.4612,,,,,,magnitude,8,3,8 | 3,5,0.065,0.05,congruent,left,0,56,56,22,1,,,,,,,,,,,,,,,,,,,,,,,,,,,,,,,,,,,,,,,,,,,,,,,,,,,,,,,,,,,,,,,,,,,,,,,,,,,,,,,,,,,,,,,,,,,,,,,,,,,,,,,,,,,,,,,,,,,,,,
,8233,ABC,18/10/2002,001,2023-04-08_01h17.26.949,OS3_Mult_verification,2022.2.4,Win32,146.7351431,,,,,,,,,,,,,,,,,,,,,,,,,,,,,,,,,,,left,1,0.4924,,,,,,magnitude,7,2,7 | 2,5,0.06,0.06,neutral,left,0,57,57,69,1,,,,,,,,,,,,,,,,,,,,,,,,,,,,,,,,,,,,,,,,,,,,,,,,,,,,,,,,,,,,,,,,,,,,,,,,,,,,,,,,,,,,,,,,,,,,,,,,,,,,,,,,,,,,,,,,,,,,,,
,8233,ABC,18/10/2002,001,2023-04-08_01h17.26.949,OS3_Mult_verification,2022.2.4,Win32,146.7351431,,,,,,,,,,,,,,,,,,,,,,,,,,,,,,,,,,,left,1,0.5462,,,,,,magnitude,7,6,7 | 6,1,0.065,0.05,congruent,left,0,58,58,6,1,,,,,,,,,,,,,,,,,,,,,,,,,,,,,,,,,,,,,,,,,,,,,,,,,,,,,,,,,,,,,,,,,,,,,,,,,,,,,,,,,,,,,,,,,,,,,,,,,,,,,,,,,,,,,,,,,,,,,,
,8233,ABC,18/10/2002,001,2023-04-08_01h17.26.949,OS3_Mult_verification,2022.2.4,Win32,146.7351431,,,,,,,,,,,,,,,,,,,,,,,,,,,,,,,,,,,right,1,0.4428,,,,,,magnitude,2,7,2 | 7,5,0.065,0.05,incongruent,right,0,59,59,41,1,,,,,,,,,,,,,,,,,,,,,,,,,,,,,,,,,,,,,,,,,,,,,,,,,,,,,,,,,,,,,,,,,,,,,,,,,,,,,,,,,,,,,,,,,,,,,,,,,,,,,,,,,,,,,,,,,,,,,,
,8233,ABC,18/10/2002,001,2023-04-08_01h17.26.949,OS3_Mult_verification,2022.2.4,Win32,146.7351431,,,,,,,,,,,,,,,,,,,,,,,,,,,,,,,,,,,left,0,0.5325,,,,,,magnitude,1,2,1 | 2,1,0.065,0.05,incongruent,right,0,60,60,24,1,,,,,,,,,,,,,,,,,,,,,,,,,,,,,,,,,,,,,,,,,,,,,,,,,,,,,,,,,,,,,,,,,,,,,,,,,,,,,,,,,,,,,,,,,,,,,,,,,,,,,,,,,,,,,,,,,,,,,,
,8233,ABC,18/10/2002,001,2023-04-08_01h17.26.949,OS3_Mult_verification,2022.2.4,Win32,146.7351431,,,,,,,,,,,,,,,,,,,,,,,,,,,,,,,,,,,right,1,1.4783,,,,,,magnitude,6,8,6 | 8,2,0.065,0.05,incongruent,right,0,61,61,34,1,,,,,,,,,,,,,,,,,,,,,,,,,,,,,,,,,,,,,,,,,,,,,,,,,,,,,,,,,,,,,,,,,,,,,,,,,,,,,,,,,,,,,,,,,,,,,,,,,,,,,,,,,,,,,,,,,,,,,,
,8233,ABC,18/10/2002,001,2023-04-08_01h17.26.949,OS3_Mult_verification,2022.2.4,Win32,146.7351431,,,,,,,,,,,,,,,,,,,,,,,,,,,,,,,,,,,left,1,0.5597,,,,,,magnitude,9,8,9 | 8,1,0.065,0.05,congruent,left,0,62,62,7,1,,,,,,,,,,,,,,,,,,,,,,,,,,,,,,,,,,,,,,,,,,,,,,,,,,,,,,,,,,,,,,,,,,,,,,,,,,,,,,,,,,,,,,,,,,,,,,,,,,,,,,,,,,,,,,,,,,,,,,
,8233,ABC,18/10/2002,001,2023-04-08_01h17.26.949,OS3_Mult_verification,2022.2.4,Win32,146.7351431,,,,,,,,,,,,,,,,,,,,,,,,,,,,,,,,,,,left,1,0.712,,,,,,magnitude,9,4,9 | 4,5,0.05,0.065,incongruent,left,0,63,63,47,1,,,,,,,,,,,,,,,,,,,,,,,,,,,,,,,,,,,,,,,,,,,,,,,,,,,,,,,,,,,,,,,,,,,,,,,,,,,,,,,,,,,,,,,,,,,,,,,,,,,,,,,,,,,,,,,,,,,,,,
,8233,ABC,18/10/2002,001,2023-04-08_01h17.26.949,OS3_Mult_verification,2022.2.4,Win32,146.7351431,,,,,,,,,,,,,,,,,,,,,,,,,,,,,,,,,,,left,1,0.583,,,,,,magnitude,6,1,6 | 1,5,0.06,0.06,neutral,left,0,64,64,68,1,,,,,,,,,,,,,,,,,,,,,,,,,,,,,,,,,,,,,,,,,,,,,,,,,,,,,,,,,,,,,,,,,,,,,,,,,,,,,,,,,,,,,,,,,,,,,,,,,,,,,,,,,,,,,,,,,,,,,,
,8233,ABC,18/10/2002,001,2023-04-08_01h17.26.949,OS3_Mult_verification,2022.2.4,Win32,146.7351431,,,,,,,,,,,,,,,,,,,,,,,,,,,,,,,,,,,left,1,0.5782,,,,,,magnitude,8,6,8 | 6,2,0.06,0.06,neutral,left,0,65,65,62,1,,,,,,,,,,,,,,,,,,,,,,,,,,,,,,,,,,,,,,,,,,,,,,,,,,,,,,,,,,,,,,,,,,,,,,,,,,,,,,,,,,,,,,,,,,,,,,,,,,,,,,,,,,,,,,,,,,,,,,
,8233,ABC,18/10/2002,001,2023-04-08_01h17.26.949,OS3_Mult_verification,2022.2.4,Win32,146.7351431,,,,,,,,,,,,,,,,,,,,,,,,,,,,,,,,,,,left,1,0.4892,,,,,,magnitude,4,3,4 | 3,1,0.065,0.05,congruent,left,0,66,66,5,1,,,,,,,,,,,,,,,,,,,,,,,,,,,,,,,,,,,,,,,,,,,,,,,,,,,,,,,,,,,,,,,,,,,,,,,,,,,,,,,,,,,,,,,,,,,,,,,,,,,,,,,,,,,,,,,,,,,,,,
,8233,ABC,18/10/2002,001,2023-04-08_01h17.26.949,OS3_Mult_verification,2022.2.4,Win32,146.7351431,,,,,,,,,,,,,,,,,,,,,,,,,,,,,,,,,,,right,1,0.8578,,,,,,magnitude,6,7,6 | 7,1,0.065,0.05,incongruent,right,0,67,67,26,1,,,,,,,,,,,,,,,,,,,,,,,,,,,,,,,,,,,,,,,,,,,,,,,,,,,,,,,,,,,,,,,,,,,,,,,,,,,,,,,,,,,,,,,,,,,,,,,,,,,,,,,,,,,,,,,,,,,,,,
,8233,ABC,18/10/2002,001,2023-04-08_01h17.26.949,OS3_Mult_verification,2022.2.4,Win32,146.7351431,,,,,,,,,,,,,,,,,,,,,,,,,,,,,,,,,,,left,1,0.5491,,,,,,magnitude,9,4,9 | 4,5,0.065,0.05,congruent,left,0,68,68,23,1,,,,,,,,,,,,,,,,,,,,,,,,,,,,,,,,,,,,,,,,,,,,,,,,,,,,,,,,,,,,,,,,,,,,,,,,,,,,,,,,,,,,,,,,,,,,,,,,,,,,,,,,,,,,,,,,,,,,,,
,8233,ABC,18/10/2002,001,2023-04-08_01h17.26.949,OS3_Mult_verification,2022.2.4,Win32,146.7351431,,,,,,,,,,,,,,,,,,,,,,,,,,,,,,,,,,,right,1,0.4748,,,,,,magnitude,1,6,1 | 6,5,0.065,0.05,incongruent,right,0,69,69,40,1,,,,,,,,,,,,,,,,,,,,,,,,,,,,,,,,,,,,,,,,,,,,,,,,,,,,,,,,,,,,,,,,,,,,,,,,,,,,,,,,,,,,,,,,,,,,,,,,,,,,,,,,,,,,,,,,,,,,,,
,8233,ABC,18/10/2002,001,2023-04-08_01h17.26.949,OS3_Mult_verification,2022.2.4,Win32,146.7351431,,,,,,,,,,,,,,,,,,,,,,,,,,,,,,,,,,,right,1,0.5393,,,,,,magnitude,4,9,4 | 9,5,0.065,0.05,incongruent,right,0,70,70,43,1,,,,,,,,,,,,,,,,,,,,,,,,,,,,,,,,,,,,,,,,,,,,,,,,,,,,,,,,,,,,,,,,,,,,,,,,,,,,,,,,,,,,,,,,,,,,,,,,,,,,,,,,,,,,,,,,,,,,,,
,8233,ABC,18/10/2002,001,2023-04-08_01h17.26.949,OS3_Mult_verification,2022.2.4,Win32,146.7351431,,,,,,,,,,,,,,,,,,,,,,,,,,,,,,,,,,,right,1,0.412,,,,,,magnitude,4,9,4 | 9,5,0.05,0.065,congruent,right,0,71,71,19,1,,,,,,,,,,,,,,,,,,,,,,,,,,,,,,,,,,,,,,,,,,,,,,,,,,,,,,,,,,,,,,,,,,,,,,,,,,,,,,,,,,,,,,,,,,,,,,,,,,,,,,,,,,,,,,,,,,,,,,
,8233,ABC,18/10/2002,001,2023-04-08_01h17.26.949,OS3_Mult_verification,2022.2.4,Win32,146.7351431,,,,,,,,,,,,,,,,,,,,,,,,,,,,,,,,,,,,,,,,,,,,,,,,,,,,,,,,,0,0,0,0,1,stroop_stim/magnitude.xlsx,stroop_stim/prac_magnitude.xlsx,NUMERICALLY larger (larger coefficient).,images/numericallyLarger.png,,,,,,,,,,,,,,,,,,,,,,,,,,,,,,,,,,,,,,,,,,,,,,,,,,,,,,,,,,,,,,,,,,,,,,,,,,,,,,,,,,,,,,,,,,,,,,,,,,,,,,,,,,,,,
,8233,ABC,18/10/2002,001,2023-04-08_01h17.26.949,OS3_Mult_verification,2022.2.4,Win32,146.7351431,,,,,,,,,,,,,,,,space,1.6355,,,,,,,,,,,,,,,,,,left,1,0.8062,0,0,0,0,1,practice,9,8,9 | 8,1,0.065,0.05,congruent,left,,,,,,,,,,,,,,,,,,,,,,,,,,,,,,,,,,,,,,,,,,,,,,,,,,,,,,,,,,,,,,,,,,,,,,,,,,,,,,,,,,,,,,,,,,,,,,,,,,,,,,,,,,,,,,,,,,,,,,,,,,,
,8233,ABC,18/10/2002,001,2023-04-08_01h17.26.949,OS3_Mult_verification,2022.2.4,Win32,146.7351431,,,,,,,,,,,,,,,,,,,,,,,,,,,,,,,,,,,right,1,0.5741,0,1,1,2,1,practice,9,9,9 | 9,0,0.05,0.065,neutral,right,,,,,,,,,,,,,,,,,,,,,,,,,,,,,,,,,,,,,,,,,,,,,,,,,,,,,,,,,,,,,,,,,,,,,,,,,,,,,,,,,,,,,,,,,,,,,,,,,,,,,,,,,,,,,,,,,,,,,,,,,,,
,8233,ABC,18/10/2002,001,2023-04-08_01h17.26.949,OS3_Mult_verification,2022.2.4,Win32,146.7351431,,,,,,,,,,,,,,,,,,,,,,,,,,,,,,,,,,,right,1,0.6132,0,2,2,1,1,practice,4,3,4 | 3,1,0.05,0.065,incongruent,right,,,,,,,,,,,,,,,,,,,,,,,,,,,,,,,,,,,,,,,,,,,,,,,,,,,,,,,,,,,,,,,,,,,,,,,,,,,,,,,,,,,,,,,,,,,,,,,,,,,,,,,,,,,,,,,,,,,,,,,,,,,
,8233,ABC,18/10/2002,001,2023-04-08_01h17.26.949,OS3_Mult_verification,2022.2.4,Win32,146.7351431,,,,,,,,,,,,,,,,,,,,,,,,,,,,,,,,,,,left,1,0.5005,,,,,,physical,6,6,6 | 6,0,0.065,0.05,neutral,left,0,0,0,68,1,,,,,,,,,,,,,,,,,,,,,,,,,,,,,,,,,,,,,,,,,,,,,,,,,,,,,,,,,,,,,,,,,,,,,,,,,,,,,,,,,,,,,,,,,,,,,,,,,,,,,,,,,,,,,,,,,,,,,,
,8233,ABC,18/10/2002,001,2023-04-08_01h17.26.949,OS3_Mult_verification,2022.2.4,Win32,146.7351431,,,,,,,,,,,,,,,,,,,,,,,,,,,,,,,,,,,left,1,0.5825,,,,,,physical,2,4,2 | 4,2,0.065,0.05,incongruent,left,0,1,1,33,1,,,,,,,,,,,,,,,,,,,,,,,,,,,,,,,,,,,,,,,,,,,,,,,,,,,,,,,,,,,,,,,,,,,,,,,,,,,,,,,,,,,,,,,,,,,,,,,,,,,,,,,,,,,,,,,,,,,,,,
,8233,ABC,18/10/2002,001,2023-04-08_01h17.26.949,OS3_Mult_verification,2022.2.4,Win32,146.7351431,,,,,,,,,,,,,,,,,,,,,,,,,,,,,,,,,,,left,1,0.5396,,,,,,physical,8,9,8 | 9,1,0.065,0.05,incongruent,left,0,2,2,27,1,,,,,,,,,,,,,,,,,,,,,,,,,,,,,,,,,,,,,,,,,,,,,,,,,,,,,,,,,,,,,,,,,,,,,,,,,,,,,,,,,,,,,,,,,,,,,,,,,,,,,,,,,,,,,,,,,,,,,,
,8233,ABC,18/10/2002,001,2023-04-08_01h17.26.949,OS3_Mult_verification,2022.2.4,Win32,146.7351431,,,,,,,,,,,,,,,,,,,,,,,,,,,,,,,,,,,right,1,0.4568,,,,,,physical,7,7,7 | 7,0,0.05,0.065,neutral,right,0,3,3,59,1,,,,,,,,,,,,,,,,,,,,,,,,,,,,,,,,,,,,,,,,,,,,,,,,,,,,,,,,,,,,,,,,,,,,,,,,,,,,,,,,,,,,,,,,,,,,,,,,,,,,,,,,,,,,,,,,,,,,,,
,8233,ABC,18/10/2002,001,2023-04-08_01h17.26.949,OS3_Mult_verification,2022.2.4,Win32,146.7351431,,,,,,,,,,,,,,,,,,,,,,,,,,,,,,,,,,,right,1,0.5277,,,,,,physical,2,1,2 | 1,1,0.05,0.065,incongruent,right,0,4,4,28,1,,,,,,,,,,,,,,,,,,,,,,,,,,,,,,,,,,,,,,,,,,,,,,,,,,,,,,,,,,,,,,,,,,,,,,,,,,,,,,,,,,,,,,,,,,,,,,,,,,,,,,,,,,,,,,,,,,,,,,
,8233,ABC,18/10/2002,001,2023-04-08_01h17.26.949,OS3_Mult_verification,2022.2.4,Win32,146.7351431,,,,,,,,,,,,,,,,,,,,,,,,,,,,,,,,,,,right,1,0.4199,,,,,,physical,8,9,8 | 9,1,0.05,0.065,congruent,right,0,5,5,3,1,,,,,,,,,,,,,,,,,,,,,,,,,,,,,,,,,,,,,,,,,,,,,,,,,,,,,,,,,,,,,,,,,,,,,,,,,,,,,,,,,,,,,,,,,,,,,,,,,,,,,,,,,,,,,,,,,,,,,,
,8233,ABC,18/10/2002,001,2023-04-08_01h17.26.949,OS3_Mult_verification,2022.2.4,Win32,146.7351431,,,,,,,,,,,,,,,,,,,,,,,,,,,,,,,,,,,left,1,0.4171,,,,,,physical,4,9,4 | 9,5,0.065,0.05,incongruent,left,0,6,6,43,1,,,,,,,,,,,,,,,,,,,,,,,,,,,,,,,,,,,,,,,,,,,,,,,,,,,,,,,,,,,,,,,,,,,,,,,,,,,,,,,,,,,,,,,,,,,,,,,,,,,,,,,,,,,,,,,,,,,,,,
,8233,ABC,18/10/2002,001,2023-04-08_01h17.26.949,OS3_Mult_verification,2022.2.4,Win32,146.7351431,,,,,,,,,,,,,,,,,,,,,,,,,,,,,,,,,,,left,1,0.551,,,,,,physical,2,7,2 | 7,5,0.065,0.05,incongruent,left,0,7,7,41,1,,,,,,,,,,,,,,,,,,,,,,,,,,,,,,,,,,,,,,,,,,,,,,,,,,,,,,,,,,,,,,,,,,,,,,,,,,,,,,,,,,,,,,,,,,,,,,,,,,,,,,,,,,,,,,,,,,,,,,
,8233,ABC,18/10/2002,001,2023-04-08_01h17.26.949,OS3_Mult_verification,2022.2.4,Win32,146.7351431,,,,,,,,,,,,,,,,,,,,,,,,,,,,,,,,,,,right,1,0.4076,,,,,,physical,3,8,3 | 8,5,0.05,0.065,congruent,right,0,8,8,18,1,,,,,,,,,,,,,,,,,,,,,,,,,,,,,,,,,,,,,,,,,,,,,,,,,,,,,,,,,,,,,,,,,,,,,,,,,,,,,,,,,,,,,,,,,,,,,,,,,,,,,,,,,,,,,,,,,,,,,,
,8233,ABC,18/10/2002,001,2023-04-08_01h17.26.949,OS3_Mult_verification,2022.2.4,Win32,146.7351431,,,,,,,,,,,,,,,,,,,,,,,,,,,,,,,,,,,left,1,0.3741,,,,,,physical,4,3,4 | 3,1,0.065,0.05,congruent,left,0,9,9,5,1,,,,,,,,,,,,,,,,,,,,,,,,,,,,,,,,,,,,,,,,,,,,,,,,,,,,,,,,,,,,,,,,,,,,,,,,,,,,,,,,,,,,,,,,,,,,,,,,,,,,,,,,,,,,,,,,,,,,,,
,8233,ABC,18/10/2002,001,2023-04-08_01h17.26.949,OS3_Mult_verification,2022.2.4,Win32,146.7351431,,,,,,,,,,,,,,,,,,,,,,,,,,,,,,,,,,,right,1,0.3583,,,,,,physical,1,6,1 | 6,5,0.05,0.065,congruent,right,0,10,10,16,1,,,,,,,,,,,,,,,,,,,,,,,,,,,,,,,,,,,,,,,,,,,,,,,,,,,,,,,,,,,,,,,,,,,,,,,,,,,,,,,,,,,,,,,,,,,,,,,,,,,,,,,,,,,,,,,,,,,,,,
,8233,ABC,18/10/2002,001,2023-04-08_01h17.26.949,OS3_Mult_verification,2022.2.4,Win32,146.7351431,,,,,,,,,,,,,,,,,,,,,,,,,,,,,,,,,,,left,1,0.4498,,,,,,physical,1,1,1 | 1,0,0.065,0.05,neutral,left,0,11,11,64,1,,,,,,,,,,,,,,,,,,,,,,,,,,,,,,,,,,,,,,,,,,,,,,,,,,,,,,,,,,,,,,,,,,,,,,,,,,,,,,,,,,,,,,,,,,,,,,,,,,,,,,,,,,,,,,,,,,,,,,
,8233,ABC,18/10/2002,001,2023-04-08_01h17.26.949,OS3_Mult_verification,2022.2.4,Win32,146.7351431,,,,,,,,,,,,,,,,,,,,,,,,,,,,,,,,,,,left,1,0.4264,,,,,,physical,7,2,7 | 2,5,0.065,0.05,congruent,left,0,12,12,21,1,,,,,,,,,,,,,,,,,,,,,,,,,,,,,,,,,,,,,,,,,,,,,,,,,,,,,,,,,,,,,,,,,,,,,,,,,,,,,,,,,,,,,,,,,,,,,,,,,,,,,,,,,,,,,,,,,,,,,,
,8233,ABC,18/10/2002,001,2023-04-08_01h17.26.949,OS3_Mult_verification,2022.2.4,Win32,146.7351431,,,,,,,,,,,,,,,,,,,,,,,,,,,,,,,,,,,left,1,0.3585,,,,,,physical,7,6,7 | 6,1,0.065,0.05,congruent,left,0,13,13,6,1,,,,,,,,,,,,,,,,,,,,,,,,,,,,,,,,,,,,,,,,,,,,,,,,,,,,,,,,,,,,,,,,,,,,,,,,,,,,,,,,,,,,,,,,,,,,,,,,,,,,,,,,,,,,,,,,,,,,,,
,8233,ABC,18/10/2002,001,2023-04-08_01h17.26.949,OS3_Mult_verification,2022.2.4,Win32,146.7351431,,,,,,,,,,,,,,,,,,,,,,,,,,,,,,,,,,,left,1,0.639,,,,,,physical,6,7,6 | 7,1,0.065,0.05,incongruent,left,0,14,14,26,1,,,,,,,,,,,,,,,,,,,,,,,,,,,,,,,,,,,,,,,,,,,,,,,,,,,,,,,,,,,,,,,,,,,,,,,,,,,,,,,,,,,,,,,,,,,,,,,,,,,,,,,,,,,,,,,,,,,,,,
,8233,ABC,18/10/2002,001,2023-04-08_01h17.26.949,OS3_Mult_verification,2022.2.4,Win32,146.7351431,,,,,,,,,,,,,,,,,,,,,,,,,,,,,,,,,,,left,1,0.4999,,,,,,physical,4,2,4 | 2,2,0.065,0.05,congruent,left,0,15,15,13,1,,,,,,,,,,,,,,,,,,,,,,,,,,,,,,,,,,,,,,,,,,,,,,,,,,,,,,,,,,,,,,,,,,,,,,,,,,,,,,,,,,,,,,,,,,,,,,,,,,,,,,,,,,,,,,,,,,,,,,
,8233,ABC,18/10/2002,001,2023-04-08_01h17.26.949,OS3_Mult_verification,2022.2.4,Win32,146.7351431,,,,,,,,,,,,,,,,,,,,,,,,,,,,,,,,,,,right,1,0.3861,,,,,,physical,8,6,8 | 6,2,0.05,0.065,incongruent,right,0,16,16,38,1,,,,,,,,,,,,,,,,,,,,,,,,,,,,,,,,,,,,,,,,,,,,,,,,,,,,,,,,,,,,,,,,,,,,,,,,,,,,,,,,,,,,,,,,,,,,,,,,,,,,,,,,,,,,,,,,,,,,,,
,8233,ABC,18/10/2002,001,2023-04-08_01h17.26.949,OS3_Mult_verification,2022.2.4,Win32,146.7351431,,,,,,,,,,,,,,,,,,,,,,,,,,,,,,,,,,,left,1,0.7051,,,,,,physical,8,8,8 | 8,0,0.065,0.05,neutral,left,0,17,17,51,1,,,,,,,,,,,,,,,,,,,,,,,,,,,,,,,,,,,,,,,,,,,,,,,,,,,,,,,,,,,,,,,,,,,,,,,,,,,,,,,,,,,,,,,,,,,,,,,,,,,,,,,,,,,,,,,,,,,,,,
,8233,ABC,18/10/2002,001,2023-04-08_01h17.26.949,OS3_Mult_verification,2022.2.4,Win32,146.7351431,,,,,,,,,,,,,,,,,,,,,,,,,,,,,,,,,,,right,1,0.4995,,,,,,physical,4,4,4 | 4,0,0.05,0.065,neutral,right,0,18,18,61,1,,,,,,,,,,,,,,,,,,,,,,,,,,,,,,,,,,,,,,,,,,,,,,,,,,,,,,,,,,,,,,,,,,,,,,,,,,,,,,,,,,,,,,,,,,,,,,,,,,,,,,,,,,,,,,,,,,,,,,
,8233,ABC,18/10/2002,001,2023-04-08_01h17.26.949,OS3_Mult_verification,2022.2.4,Win32,146.7351431,,,,,,,,,,,,,,,,,,,,,,,,,,,,,,,,,,,right,1,0.5584,,,,,,physical,2,2,2 | 2,0,0.05,0.065,neutral,right,0,19,19,65,1,,,,,,,,,,,,,,,,,,,,,,,,,,,,,,,,,,,,,,,,,,,,,,,,,,,,,,,,,,,,,,,,,,,,,,,,,,,,,,,,,,,,,,,,,,,,,,,,,,,,,,,,,,,,,,,,,,,,,,
,8233,ABC,18/10/2002,001,2023-04-08_01h17.26.949,OS3_Mult_verification,2022.2.4,Win32,146.7351431,,,,,,,,,,,,,,,,,,,,,,,,,,,,,,,,,,,left,1,0.4601,,,,,,physical,2,1,2 | 1,1,0.065,0.05,congruent,left,0,20,20,4,1,,,,,,,,,,,,,,,,,,,,,,,,,,,,,,,,,,,,,,,,,,,,,,,,,,,,,,,,,,,,,,,,,,,,,,,,,,,,,,,,,,,,,,,,,,,,,,,,,,,,,,,,,,,,,,,,,,,,,,
,8233,ABC,18/10/2002,001,2023-04-08_01h17.26.949,OS3_Mult_verification,2022.2.4,Win32,146.7351431,,,,,,,,,,,,,,,,,,,,,,,,,,,,,,,,,,,right,1,0.4129,,,,,,physical,2,7,2 | 7,5,0.05,0.065,congruent,right,0,21,21,17,1,,,,,,,,,,,,,,,,,,,,,,,,,,,,,,,,,,,,,,,,,,,,,,,,,,,,,,,,,,,,,,,,,,,,,,,,,,,,,,,,,,,,,,,,,,,,,,,,,,,,,,,,,,,,,,,,,,,,,,
,8233,ABC,18/10/2002,001,2023-04-08_01h17.26.949,OS3_Mult_verification,2022.2.4,Win32,146.7351431,,,,,,,,,,,,,,,,,,,,,,,,,,,,,,,,,,,right,1,0.5897,,,,,,physical,1,2,1 | 2,1,0.05,0.065,congruent,right,0,22,22,0,1,,,,,,,,,,,,,,,,,,,,,,,,,,,,,,,,,,,,,,,,,,,,,,,,,,,,,,,,,,,,,,,,,,,,,,,,,,,,,,,,,,,,,,,,,,,,,,,,,,,,,,,,,,,,,,,,,,,,,,
,8233,ABC,18/10/2002,001,2023-04-08_01h17.26.949,OS3_Mult_verification,2022.2.4,Win32,146.7351431,,,,,,,,,,,,,,,,,,,,,,,,,,,,,,,,,,,left,1,0.6639,,,,,,physical,1,1,1 | 1,0,0.065,0.05,neutral,left,0,23,23,48,1,,,,,,,,,,,,,,,,,,,,,,,,,,,,,,,,,,,,,,,,,,,,,,,,,,,,,,,,,,,,,,,,,,,,,,,,,,,,,,,,,,,,,,,,,,,,,,,,,,,,,,,,,,,,,,,,,,,,,,
,8233,ABC,18/10/2002,001,2023-04-08_01h17.26.949,OS3_Mult_verification,2022.2.4,Win32,146.7351431,,,,,,,,,,,,,,,,,,,,,,,,,,,,,,,,,,,left,1,0.45,,,,,,physical,8,3,8 | 3,5,0.065,0.05,congruent,left,0,24,24,22,1,,,,,,,,,,,,,,,,,,,,,,,,,,,,,,,,,,,,,,,,,,,,,,,,,,,,,,,,,,,,,,,,,,,,,,,,,,,,,,,,,,,,,,,,,,,,,,,,,,,,,,,,,,,,,,,,,,,,,,
,8233,ABC,18/10/2002,001,2023-04-08_01h17.26.949,OS3_Mult_verification,2022.2.4,Win32,146.7351431,,,,,,,,,,,,,,,,,,,,,,,,,,,,,,,,,,,right,1,0.5075,,,,,,physical,1,3,1 | 3,2,0.05,0.065,congruent,right,0,25,25,8,1,,,,,,,,,,,,,,,,,,,,,,,,,,,,,,,,,,,,,,,,,,,,,,,,,,,,,,,,,,,,,,,,,,,,,,,,,,,,,,,,,,,,,,,,,,,,,,,,,,,,,,,,,,,,,,,,,,,,,,
,8233,ABC,18/10/2002,001,2023-04-08_01h17.26.949,OS3_Mult_verification,2022.2.4,Win32,146.7351431,,,,,,,,,,,,,,,,,,,,,,,,,,,,,,,,,,,right,1,0.6858,,,,,,physical,9,8,9 | 8,1,0.05,0.065,incongruent,right,0,26,26,31,1,,,,,,,,,,,,,,,,,,,,,,,,,,,,,,,,,,,,,,,,,,,,,,,,,,,,,,,,,,,,,,,,,,,,,,,,,,,,,,,,,,,,,,,,,,,,,,,,,,,,,,,,,,,,,,,,,,,,,,
,8233,ABC,18/10/2002,001,2023-04-08_01h17.26.949,OS3_Mult_verification,2022.2.4,Win32,146.7351431,,,,,,,,,,,,,,,,,,,,,,,,,,,,,,,,,,,right,1,0.6525,,,,,,physical,7,6,7 | 6,1,0.05,0.065,incongruent,right,0,27,27,30,1,,,,,,,,,,,,,,,,,,,,,,,,,,,,,,,,,,,,,,,,,,,,,,,,,,,,,,,,,,,,,,,,,,,,,,,,,,,,,,,,,,,,,,,,,,,,,,,,,,,,,,,,,,,,,,,,,,,,,,
,8233,ABC,18/10/2002,001,2023-04-08_01h17.26.949,OS3_Mult_verification,2022.2.4,Win32,146.7351431,,,,,,,,,,,,,,,,,,,,,,,,,,,,,,,,,,,right,1,0.5908,,,,,,physical,1,1,1 | 1,0,0.05,0.065,neutral,right,0,28,28,56,1,,,,,,,,,,,,,,,,,,,,,,,,,,,,,,,,,,,,,,,,,,,,,,,,,,,,,,,,,,,,,,,,,,,,,,,,,,,,,,,,,,,,,,,,,,,,,,,,,,,,,,,,,,,,,,,,,,,,,,
,8233,ABC,18/10/2002,001,2023-04-08_01h17.26.949,OS3_Mult_verification,2022.2.4,Win32,146.7351431,,,,,,,,,,,,,,,,,,,,,,,,,,,,,,,,,,,left,1,0.6304,,,,,,physical,3,8,3 | 8,5,0.065,0.05,incongruent,left,0,29,29,42,1,,,,,,,,,,,,,,,,,,,,,,,,,,,,,,,,,,,,,,,,,,,,,,,,,,,,,,,,,,,,,,,,,,,,,,,,,,,,,,,,,,,,,,,,,,,,,,,,,,,,,,,,,,,,,,,,,,,,,,
,8233,ABC,18/10/2002,001,2023-04-08_01h17.26.949,OS3_Mult_verification,2022.2.4,Win32,146.7351431,,,,,,,,,,,,,,,,,,,,,,,,,,,,,,,,,,,right,1,0.4775,,,,,,physical,2,4,2 | 4,2,0.05,0.065,congruent,right,0,30,30,9,1,,,,,,,,,,,,,,,,,,,,,,,,,,,,,,,,,,,,,,,,,,,,,,,,,,,,,,,,,,,,,,,,,,,,,,,,,,,,,,,,,,,,,,,,,,,,,,,,,,,,,,,,,,,,,,,,,,,,,,
,8233,ABC,18/10/2002,001,2023-04-08_01h17.26.949,OS3_Mult_verification,2022.2.4,Win32,146.7351431,,,,,,,,,,,,,,,,,,,,,,,,,,,,,,,,,,,left,1,0.4609,,,,,,physical,3,3,3 | 3,0,0.065,0.05,neutral,left,0,31,31,66,1,,,,,,,,,,,,,,,,,,,,,,,,,,,,,,,,,,,,,,,,,,,,,,,,,,,,,,,,,,,,,,,,,,,,,,,,,,,,,,,,,,,,,,,,,,,,,,,,,,,,,,,,,,,,,,,,,,,,,,
,8233,ABC,18/10/2002,001,2023-04-08_01h17.26.949,OS3_Mult_verification,2022.2.4,Win32,146.7351431,,,,,,,,,,,,,,,,,,,,,,,,,,,,,,,,,,,left,1,0.5614,,,,,,physical,1,3,1 | 3,2,0.065,0.05,incongruent,left,0,32,32,32,1,,,,,,,,,,,,,,,,,,,,,,,,,,,,,,,,,,,,,,,,,,,,,,,,,,,,,,,,,,,,,,,,,,,,,,,,,,,,,,,,,,,,,,,,,,,,,,,,,,,,,,,,,,,,,,,,,,,,,,
,8233,ABC,18/10/2002,001,2023-04-08_01h17.26.949,OS3_Mult_verification,2022.2.4,Win32,146.7351431,,,,,,,,,,,,,,,,,,,,,,,,,,,,,,,,,,,left,1,0.473,,,,,,physical,8,6,8 | 6,2,0.065,0.05,congruent,left,0,33,33,14,1,,,,,,,,,,,,,,,,,,,,,,,,,,,,,,,,,,,,,,,,,,,,,,,,,,,,,,,,,,,,,,,,,,,,,,,,,,,,,,,,,,,,,,,,,,,,,,,,,,,,,,,,,,,,,,,,,,,,,,
,8233,ABC,18/10/2002,001,2023-04-08_01h17.26.949,OS3_Mult_verification,2022.2.4,Win32,146.7351431,,,,,,,,,,,,,,,,,,,,,,,,,,,,,,,,,,,left,1,0.8516,,,,,,physical,9,8,9 | 8,1,0.065,0.05,congruent,left,0,34,34,7,1,,,,,,,,,,,,,,,,,,,,,,,,,,,,,,,,,,,,,,,,,,,,,,,,,,,,,,,,,,,,,,,,,,,,,,,,,,,,,,,,,,,,,,,,,,,,,,,,,,,,,,,,,,,,,,,,,,,,,,
,8233,ABC,18/10/2002,001,2023-04-08_01h17.26.949,OS3_Mult_verification,2022.2.4,Win32,146.7351431,,,,,,,,,,,,,,,,,,,,,,,,,,,,,,,,,,,right,1,0.5574,,,,,,physical,8,3,8 | 3,5,0.05,0.065,incongruent,right,0,35,35,46,1,,,,,,,,,,,,,,,,,,,,,,,,,,,,,,,,,,,,,,,,,,,,,,,,,,,,,,,,,,,,,,,,,,,,,,,,,,,,,,,,,,,,,,,,,,,,,,,,,,,,,,,,,,,,,,,,,,,,,,
,8233,ABC,18/10/2002,001,2023-04-08_01h17.26.949,OS3_Mult_verification,2022.2.4,Win32,146.7351431,,,,,,,,,,,,,,,,,,,,,,,,,,,,,,,,,,,left,1,0.4388,,,,,,physical,9,7,9 | 7,2,0.065,0.05,congruent,left,0,36,36,15,1,,,,,,,,,,,,,,,,,,,,,,,,,,,,,,,,,,,,,,,,,,,,,,,,,,,,,,,,,,,,,,,,,,,,,,,,,,,,,,,,,,,,,,,,,,,,,,,,,,,,,,,,,,,,,,,,,,,,,,
,8233,ABC,18/10/2002,001,2023-04-08_01h17.26.949,OS3_Mult_verification,2022.2.4,Win32,146.7351431,,,,,,,,,,,,,,,,,,,,,,,,,,,,,,,,,,,right,1,0.4495,,,,,,physical,4,4,4 | 4,0,0.05,0.065,neutral,right,0,37,37,67,1,,,,,,,,,,,,,,,,,,,,,,,,,,,,,,,,,,,,,,,,,,,,,,,,,,,,,,,,,,,,,,,,,,,,,,,,,,,,,,,,,,,,,,,,,,,,,,,,,,,,,,,,,,,,,,,,,,,,,,
,8233,ABC,18/10/2002,001,2023-04-08_01h17.26.949,OS3_Mult_verification,2022.2.4,Win32,146.7351431,,,,,,,,,,,,,,,,,,,,,,,,,,,,,,,,,,,left,1,0.4095,,,,,,physical,9,4,9 | 4,5,0.065,0.05,congruent,left,0,38,38,23,1,,,,,,,,,,,,,,,,,,,,,,,,,,,,,,,,,,,,,,,,,,,,,,,,,,,,,,,,,,,,,,,,,,,,,,,,,,,,,,,,,,,,,,,,,,,,,,,,,,,,,,,,,,,,,,,,,,,,,,
,8233,ABC,18/10/2002,001,2023-04-08_01h17.26.949,OS3_Mult_verification,2022.2.4,Win32,146.7351431,,,,,,,,,,,,,,,,,,,,,,,,,,,,,,,,,,,right,1,0.701,,,,,,physical,2,2,2 | 2,0,0.05,0.065,neutral,right,0,39,39,57,1,,,,,,,,,,,,,,,,,,,,,,,,,,,,,,,,,,,,,,,,,,,,,,,,,,,,,,,,,,,,,,,,,,,,,,,,,,,,,,,,,,,,,,,,,,,,,,,,,,,,,,,,,,,,,,,,,,,,,,
,8233,ABC,18/10/2002,001,2023-04-08_01h17.26.949,OS3_Mult_verification,2022.2.4,Win32,146.7351431,,,,,,,,,,,,,,,,,,,,,,,,,,,,,,,,,,,right,1,0.519,,,,,,physical,8,8,8 | 8,0,0.05,0.065,neutral,right,0,40,40,62,1,,,,,,,,,,,,,,,,,,,,,,,,,,,,,,,,,,,,,,,,,,,,,,,,,,,,,,,,,,,,,,,,,,,,,,,,,,,,,,,,,,,,,,,,,,,,,,,,,,,,,,,,,,,,,,,,,,,,,,
,8233,ABC,18/10/2002,001,2023-04-08_01h17.26.949,OS3_Mult_verification,2022.2.4,Win32,146.7351431,,,,,,,,,,,,,,,,,,,,,,,,,,,,,,,,,,,left,1,0.4276,,,,,,physical,4,4,4 | 4,0,0.065,0.05,neutral,left,0,41,41,53,1,,,,,,,,,,,,,,,,,,,,,,,,,,,,,,,,,,,,,,,,,,,,,,,,,,,,,,,,,,,,,,,,,,,,,,,,,,,,,,,,,,,,,,,,,,,,,,,,,,,,,,,,,,,,,,,,,,,,,,
,8233,ABC,18/10/2002,001,2023-04-08_01h17.26.949,OS3_Mult_verification,2022.2.4,Win32,146.7351431,,,,,,,,,,,,,,,,,,,,,,,,,,,,,,,,,,,right,1,0.5916,,,,,,physical,4,2,4 | 2,2,0.05,0.065,incongruent,right,0,42,42,37,1,,,,,,,,,,,,,,,,,,,,,,,,,,,,,,,,,,,,,,,,,,,,,,,,,,,,,,,,,,,,,,,,,,,,,,,,,,,,,,,,,,,,,,,,,,,,,,,,,,,,,,,,,,,,,,,,,,,,,,
,8233,ABC,18/10/2002,001,2023-04-08_01h17.26.949,OS3_Mult_verification,2022.2.4,Win32,146.7351431,,,,,,,,,,,,,,,,,,,,,,,,,,,,,,,,,,,left,1,0.4857,,,,,,physical,1,2,1 | 2,1,0.065,0.05,incongruent,left,0,43,43,24,1,,,,,,,,,,,,,,,,,,,,,,,,,,,,,,,,,,,,,,,,,,,,,,,,,,,,,,,,,,,,,,,,,,,,,,,,,,,,,,,,,,,,,,,,,,,,,,,,,,,,,,,,,,,,,,,,,,,,,,
,8233,ABC,18/10/2002,001,2023-04-08_01h17.26.949,OS3_Mult_verification,2022.2.4,Win32,146.7351431,,,,,,,,,,,,,,,,,,,,,,,,,,,,,,,,,,,right,1,0.4108,,,,,,physical,9,9,9 | 9,0,0.05,0.065,neutral,right,0,44,44,71,1,,,,,,,,,,,,,,,,,,,,,,,,,,,,,,,,,,,,,,,,,,,,,,,,,,,,,,,,,,,,,,,,,,,,,,,,,,,,,,,,,,,,,,,,,,,,,,,,,,,,,,,,,,,,,,,,,,,,,,
,8233,ABC,18/10/2002,001,2023-04-08_01h17.26.949,OS3_Mult_verification,2022.2.4,Win32,146.7351431,,,,,,,,,,,,,,,,,,,,,,,,,,,,,,,,,,,right,1,0.4794,,,,,,physical,6,6,6 | 6,0,0.05,0.065,neutral,right,0,45,45,58,1,,,,,,,,,,,,,,,,,,,,,,,,,,,,,,,,,,,,,,,,,,,,,,,,,,,,,,,,,,,,,,,,,,,,,,,,,,,,,,,,,,,,,,,,,,,,,,,,,,,,,,,,,,,,,,,,,,,,,,
,8233,ABC,18/10/2002,001,2023-04-08_01h17.26.949,OS3_Mult_verification,2022.2.4,Win32,146.7351431,,,,,,,,,,,,,,,,,,,,,,,,,,,,,,,,,,,right,1,0.593,,,,,,physical,7,2,7 | 2,5,0.05,0.065,incongruent,right,0,46,46,45,1,,,,,,,,,,,,,,,,,,,,,,,,,,,,,,,,,,,,,,,,,,,,,,,,,,,,,,,,,,,,,,,,,,,,,,,,,,,,,,,,,,,,,,,,,,,,,,,,,,,,,,,,,,,,,,,,,,,,,,
,8233,ABC,18/10/2002,001,2023-04-08_01h17.26.949,OS3_Mult_verification,2022.2.4,Win32,146.7351431,,,,,,,,,,,,,,,,,,,,,,,,,,,,,,,,,,,left,1,0.6847,,,,,,physical,3,4,3 | 4,1,0.065,0.05,incongruent,left,0,47,47,25,1,,,,,,,,,,,,,,,,,,,,,,,,,,,,,,,,,,,,,,,,,,,,,,,,,,,,,,,,,,,,,,,,,,,,,,,,,,,,,,,,,,,,,,,,,,,,,,,,,,,,,,,,,,,,,,,,,,,,,,
,8233,ABC,18/10/2002,001,2023-04-08_01h17.26.949,OS3_Mult_verification,2022.2.4,Win32,146.7351431,,,,,,,,,,,,,,,,,,,,,,,,,,,,,,,,,,,right,1,0.6121,,,,,,physical,3,1,3 | 1,2,0.05,0.065,incongruent,right,0,48,48,36,1,,,,,,,,,,,,,,,,,,,,,,,,,,,,,,,,,,,,,,,,,,,,,,,,,,,,,,,,,,,,,,,,,,,,,,,,,,,,,,,,,,,,,,,,,,,,,,,,,,,,,,,,,,,,,,,,,,,,,,
,8233,ABC,18/10/2002,001,2023-04-08_01h17.26.949,OS3_Mult_verification,2022.2.4,Win32,146.7351431,,,,,,,,,,,,,,,,,,,,,,,,,,,,,,,,,,,left,1,0.4788,,,,,,physical,6,6,6 | 6,0,0.065,0.05,neutral,left,0,49,49,50,1,,,,,,,,,,,,,,,,,,,,,,,,,,,,,,,,,,,,,,,,,,,,,,,,,,,,,,,,,,,,,,,,,,,,,,,,,,,,,,,,,,,,,,,,,,,,,,,,,,,,,,,,,,,,,,,,,,,,,,
,8233,ABC,18/10/2002,001,2023-04-08_01h17.26.949,OS3_Mult_verification,2022.2.4,Win32,146.7351431,,,,,,,,,,,,,,,,,,,,,,,,,,,,,,,,,,,right,1,0.5296,,,,,,physical,6,7,6 | 7,1,0.05,0.065,congruent,right,0,50,50,2,1,,,,,,,,,,,,,,,,,,,,,,,,,,,,,,,,,,,,,,,,,,,,,,,,,,,,,,,,,,,,,,,,,,,,,,,,,,,,,,,,,,,,,,,,,,,,,,,,,,,,,,,,,,,,,,,,,,,,,,
,8233,ABC,18/10/2002,001,2023-04-08_01h17.26.949,OS3_Mult_verification,2022.2.4,Win32,146.7351431,,,,,,,,,,,,,,,,,,,,,,,,,,,,,,,,,,,left,1,0.5317,,,,,,physical,8,8,8 | 8,0,0.065,0.05,neutral,left,0,51,51,70,1,,,,,,,,,,,,,,,,,,,,,,,,,,,,,,,,,,,,,,,,,,,,,,,,,,,,,,,,,,,,,,,,,,,,,,,,,,,,,,,,,,,,,,,,,,,,,,,,,,,,,,,,,,,,,,,,,,,,,,
,8233,ABC,18/10/2002,001,2023-04-08_01h17.26.949,OS3_Mult_verification,2022.2.4,Win32,146.7351431,,,,,,,,,,,,,,,,,,,,,,,,,,,,,,,,,,,left,1,1.1882,,,,,,physical,6,8,6 | 8,2,0.065,0.05,incongruent,left,0,52,52,34,1,,,,,,,,,,,,,,,,,,,,,,,,,,,,,,,,,,,,,,,,,,,,,,,,,,,,,,,,,,,,,,,,,,,,,,,,,,,,,,,,,,,,,,,,,,,,,,,,,,,,,,,,,,,,,,,,,,,,,,
,8233,ABC,18/10/2002,001,2023-04-08_01h17.26.949,OS3_Mult_verification,2022.2.4,Win32,146.7351431,,,,,,,,,,,,,,,,,,,,,,,,,,,,,,,,,,,right,1,0.5137,,,,,,physical,9,7,9 | 7,2,0.05,0.065,incongruent,right,0,53,53,39,1,,,,,,,,,,,,,,,,,,,,,,,,,,,,,,,,,,,,,,,,,,,,,,,,,,,,,,,,,,,,,,,,,,,,,,,,,,,,,,,,,,,,,,,,,,,,,,,,,,,,,,,,,,,,,,,,,,,,,,
,8233,ABC,18/10/2002,001,2023-04-08_01h17.26.949,OS3_Mult_verification,2022.2.4,Win32,146.7351431,,,,,,,,,,,,,,,,,,,,,,,,,,,,,,,,,,,right,1,0.4793,,,,,,physical,9,9,9 | 9,0,0.05,0.065,neutral,right,0,54,54,63,1,,,,,,,,,,,,,,,,,,,,,,,,,,,,,,,,,,,,,,,,,,,,,,,,,,,,,,,,,,,,,,,,,,,,,,,,,,,,,,,,,,,,,,,,,,,,,,,,,,,,,,,,,,,,,,,,,,,,,,
,8233,ABC,18/10/2002,001,2023-04-08_01h17.26.949,OS3_Mult_verification,2022.2.4,Win32,146.7351431,,,,,,,,,,,,,,,,,,,,,,,,,,,,,,,,,,,right,1,0.5842,,,,,,physical,4,9,4 | 9,5,0.05,0.065,congruent,right,0,55,55,19,1,,,,,,,,,,,,,,,,,,,,,,,,,,,,,,,,,,,,,,,,,,,,,,,,,,,,,,,,,,,,,,,,,,,,,,,,,,,,,,,,,,,,,,,,,,,,,,,,,,,,,,,,,,,,,,,,,,,,,,
,8233,ABC,18/10/2002,001,2023-04-08_01h17.26.949,OS3_Mult_verification,2022.2.4,Win32,146.7351431,,,,,,,,,,,,,,,,,,,,,,,,,,,,,,,,,,,left,1,0.4646,,,,,,physical,3,1,3 | 1,2,0.065,0.05,congruent,left,0,56,56,12,1,,,,,,,,,,,,,,,,,,,,,,,,,,,,,,,,,,,,,,,,,,,,,,,,,,,,,,,,,,,,,,,,,,,,,,,,,,,,,,,,,,,,,,,,,,,,,,,,,,,,,,,,,,,,,,,,,,,,,,
,8233,ABC,18/10/2002,001,2023-04-08_01h17.26.949,OS3_Mult_verification,2022.2.4,Win32,146.7351431,,,,,,,,,,,,,,,,,,,,,,,,,,,,,,,,,,,left,1,0.5668,,,,,,physical,2,2,2 | 2,0,0.065,0.05,neutral,left,0,57,57,52,1,,,,,,,,,,,,,,,,,,,,,,,,,,,,,,,,,,,,,,,,,,,,,,,,,,,,,,,,,,,,,,,,,,,,,,,,,,,,,,,,,,,,,,,,,,,,,,,,,,,,,,,,,,,,,,,,,,,,,,
,8233,ABC,18/10/2002,001,2023-04-08_01h17.26.949,OS3_Mult_verification,2022.2.4,Win32,146.7351431,,,,,,,,,,,,,,,,,,,,,,,,,,,,,,,,,,,left,1,0.6919,,,,,,physical,1,6,1 | 6,5,0.065,0.05,incongruent,left,0,58,58,40,1,,,,,,,,,,,,,,,,,,,,,,,,,,,,,,,,,,,,,,,,,,,,,,,,,,,,,,,,,,,,,,,,,,,,,,,,,,,,,,,,,,,,,,,,,,,,,,,,,,,,,,,,,,,,,,,,,,,,,,
,8233,ABC,18/10/2002,001,2023-04-08_01h17.26.949,OS3_Mult_verification,2022.2.4,Win32,146.7351431,,,,,,,,,,,,,,,,,,,,,,,,,,,,,,,,,,,right,1,0.5406,,,,,,physical,3,4,3 | 4,1,0.05,0.065,congruent,right,0,59,59,1,1,,,,,,,,,,,,,,,,,,,,,,,,,,,,,,,,,,,,,,,,,,,,,,,,,,,,,,,,,,,,,,,,,,,,,,,,,,,,,,,,,,,,,,,,,,,,,,,,,,,,,,,,,,,,,,,,,,,,,,
,8233,ABC,18/10/2002,001,2023-04-08_01h17.26.949,OS3_Mult_verification,2022.2.4,Win32,146.7351431,,,,,,,,,,,,,,,,,,,,,,,,,,,,,,,,,,,right,1,0.5335,,,,,,physical,6,8,6 | 8,2,0.05,0.065,congruent,right,0,60,60,10,1,,,,,,,,,,,,,,,,,,,,,,,,,,,,,,,,,,,,,,,,,,,,,,,,,,,,,,,,,,,,,,,,,,,,,,,,,,,,,,,,,,,,,,,,,,,,,,,,,,,,,,,,,,,,,,,,,,,,,,
,8233,ABC,18/10/2002,001,2023-04-08_01h17.26.949,OS3_Mult_verification,2022.2.4,Win32,146.7351431,,,,,,,,,,,,,,,,,,,,,,,,,,,,,,,,,,,right,1,0.471,,,,,,physical,7,9,7 | 9,2,0.05,0.065,congruent,right,0,61,61,11,1,,,,,,,,,,,,,,,,,,,,,,,,,,,,,,,,,,,,,,,,,,,,,,,,,,,,,,,,,,,,,,,,,,,,,,,,,,,,,,,,,,,,,,,,,,,,,,,,,,,,,,,,,,,,,,,,,,,,,,
,8233,ABC,18/10/2002,001,2023-04-08_01h17.26.949,OS3_Mult_verification,2022.2.4,Win32,146.7351431,,,,,,,,,,,,,,,,,,,,,,,,,,,,,,,,,,,left,1,0.521,,,,,,physical,3,3,3 | 3,0,0.065,0.05,neutral,left,0,62,62,49,1,,,,,,,,,,,,,,,,,,,,,,,,,,,,,,,,,,,,,,,,,,,,,,,,,,,,,,,,,,,,,,,,,,,,,,,,,,,,,,,,,,,,,,,,,,,,,,,,,,,,,,,,,,,,,,,,,,,,,,
,8233,ABC,18/10/2002,001,2023-04-08_01h17.26.949,OS3_Mult_verification,2022.2.4,Win32,146.7351431,,,,,,,,,,,,,,,,,,,,,,,,,,,,,,,,,,,right,1,0.4616,,,,,,physical,9,4,9 | 4,5,0.05,0.065,incongruent,right,0,63,63,47,1,,,,,,,,,,,,,,,,,,,,,,,,,,,,,,,,,,,,,,,,,,,,,,,,,,,,,,,,,,,,,,,,,,,,,,,,,,,,,,,,,,,,,,,,,,,,,,,,,,,,,,,,,,,,,,,,,,,,,,
,8233,ABC,18/10/2002,001,2023-04-08_01h17.26.949,OS3_Mult_verification,2022.2.4,Win32,146.7351431,,,,,,,,,,,,,,,,,,,,,,,,,,,,,,,,,,,right,1,0.4947,,,,,,physical,3,3,3 | 3,0,0.05,0.065,neutral,right,0,64,64,60,1,,,,,,,,,,,,,,,,,,,,,,,,,,,,,,,,,,,,,,,,,,,,,,,,,,,,,,,,,,,,,,,,,,,,,,,,,,,,,,,,,,,,,,,,,,,,,,,,,,,,,,,,,,,,,,,,,,,,,,
,8233,ABC,18/10/2002,001,2023-04-08_01h17.26.949,OS3_Mult_verification,2022.2.4,Win32,146.7351431,,,,,,,,,,,,,,,,,,,,,,,,,,,,,,,,,,,left,1,0.5488,,,,,,physical,7,7,7 | 7,0,0.065,0.05,neutral,left,0,65,65,54,1,,,,,,,,,,,,,,,,,,,,,,,,,,,,,,,,,,,,,,,,,,,,,,,,,,,,,,,,,,,,,,,,,,,,,,,,,,,,,,,,,,,,,,,,,,,,,,,,,,,,,,,,,,,,,,,,,,,,,,
,8233,ABC,18/10/2002,001,2023-04-08_01h17.26.949,OS3_Mult_verification,2022.2.4,Win32,146.7351431,,,,,,,,,,,,,,,,,,,,,,,,,,,,,,,,,,,right,1,0.6369,,,,,,physical,6,1,6 | 1,5,0.05,0.065,incongruent,right,0,66,66,44,1,,,,,,,,,,,,,,,,,,,,,,,,,,,,,,,,,,,,,,,,,,,,,,,,,,,,,,,,,,,,,,,,,,,,,,,,,,,,,,,,,,,,,,,,,,,,,,,,,,,,,,,,,,,,,,,,,,,,,,
,8233,ABC,18/10/2002,001,2023-04-08_01h17.26.949,OS3_Mult_verification,2022.2.4,Win32,146.7351431,,,,,,,,,,,,,,,,,,,,,,,,,,,,,,,,,,,left,1,0.4921,,,,,,physical,6,1,6 | 1,5,0.065,0.05,congruent,left,0,67,67,20,1,,,,,,,,,,,,,,,,,,,,,,,,,,,,,,,,,,,,,,,,,,,,,,,,,,,,,,,,,,,,,,,,,,,,,,,,,,,,,,,,,,,,,,,,,,,,,,,,,,,,,,,,,,,,,,,,,,,,,,
,8233,ABC,18/10/2002,001,2023-04-08_01h17.26.949,OS3_Mult_verification,2022.2.4,Win32,146.7351431,,,,,,,,,,,,,,,,,,,,,,,,,,,,,,,,,,,left,1,0.6703,,,,,,physical,7,9,7 | 9,2,0.065,0.05,incongruent,left,0,68,68,35,1,,,,,,,,,,,,,,,,,,,,,,,,,,,,,,,,,,,,,,,,,,,,,,,,,,,,,,,,,,,,,,,,,,,,,,,,,,,,,,,,,,,,,,,,,,,,,,,,,,,,,,,,,,,,,,,,,,,,,,
,8233,ABC,18/10/2002,001,2023-04-08_01h17.26.949,OS3_Mult_verification,2022.2.4,Win32,146.7351431,,,,,,,,,,,,,,,,,,,,,,,,,,,,,,,,,,,left,1,0.518,,,,,,physical,9,9,9 | 9,0,0.065,0.05,neutral,left,0,69,69,55,1,,,,,,,,,,,,,,,,,,,,,,,,,,,,,,,,,,,,,,,,,,,,,,,,,,,,,,,,,,,,,,,,,,,,,,,,,,,,,,,,,,,,,,,,,,,,,,,,,,,,,,,,,,,,,,,,,,,,,,
,8233,ABC,18/10/2002,001,2023-04-08_01h17.26.949,OS3_Mult_verification,2022.2.4,Win32,146.7351431,,,,,,,,,,,,,,,,,,,,,,,,,,,,,,,,,,,right,1,0.7134,,,,,,physical,4,3,4 | 3,1,0.05,0.065,incongruent,right,0,70,70,29,1,,,,,,,,,,,,,,,,,,,,,,,,,,,,,,,,,,,,,,,,,,,,,,,,,,,,,,,,,,,,,,,,,,,,,,,,,,,,,,,,,,,,,,,,,,,,,,,,,,,,,,,,,,,,,,,,,,,,,,
,8233,ABC,18/10/2002,001,2023-04-08_01h17.26.949,OS3_Mult_verification,2022.2.4,Win32,146.7351431,,,,,,,,,,,,,,,,,,,,,,,,,,,,,,,,,,,right,1,0.4921,,,,,,physical,7,7,7 | 7,0,0.05,0.065,neutral,right,0,71,71,69,1,,,,,,,,,,,,,,,,,,,,,,,,,,,,,,,,,,,,,,,,,,,,,,,,,,,,,,,,,,,,,,,,,,,,,,,,,,,,,,,,,,,,,,,,,,,,,,,,,,,,,,,,,,,,,,,,,,,,,,
,8233,ABC,18/10/2002,001,2023-04-08_01h17.26.949,OS3_Mult_verification,2022.2.4,Win32,146.7351431,,,,,,,,,,,,,,,,,,,,,,,,,,,,,,,,,,,,,,,,,,,,,,,,,,,,,,,,,0,1,1,1,1,stroop_stim/physical.xlsx,stroop_stim/prac_physical.xlsx,PHYSICALLY larger (larger font size).,images/physicallyLarger.png,,,,,,,,,,,,,,,,,,,,,,,,,,,,,,,,,,,,,,,,,,,,,,,,,,,,,,,,,,,,,,,,,,,,,,,,,,,,,,,,,,,,,,,,,,,,,,,,,,,,,,,,,,,,,
,8233,ABC,18/10/2002,001,2023-04-08_01h17.26.949,OS3_Mult_verification,2022.2.4,Win32,146.7351431,,,,,,,,,,,,,,,,,,,,,,,,,,,,,,,,,,,,,,,,,,,,,,,,,,,,,,,,,,,,,,,,,,0,0,0,0,1,,,,,,,,,,,,,,,,,,,,,,,,,,,,,,,,,,,,,,,,,,,,,,,,,,,,,,,,,,,,,,,,,,,,,,,,,,,,,,,,,,,,,,,,,,,,,,,,,,,,,,,,
,8233,ABC,18/10/2002,001,2023-04-08_01h17.26.949,OS3_Mult_verification,2022.2.4,Win32,146.7351431,,,,,,,,,,,,,,,,,,,,,,,,,,,,,,,,,,,,,,,,,,,,,,,,,,,,,,,,,,,,,,,,,,,,,,,0,0,0,0,1,1,0,0,,,,,,,,,,,,,,,,,,,,,,,,,,,,,,,,,,,,,,,,,,,,,,,,,,,,,,,,,,,,,,,,,,,,,,,,,,,,,,,,,,,,,,,,,,,,,,,,
,8233,ABC,18/10/2002,001,2023-04-08_01h17.26.949,OS3_Mult_verification,2022.2.4,Win32,146.7351431,,,,,,,,,,,,,,,,space,1.7974,,,,,,,,,,,,,,,,,,,,,,,,,,,,,,,,,,,,,,,,,,,,,,,,,,,,,,,,,,,,,,TRUE,2.5204,0.059259273,-0.383333347,1,0,0,0,0,0,2,1,practice trial,,3,3,,,,,,,,,,,,,,,,,,,,,,,,,,,,,,,,,,,,,,,,,,,,,,,,,,,,,,,,,,,,,,,,,,,,,,,,,,,,,,,,
,8233,ABC,18/10/2002,001,2023-04-08_01h17.26.949,OS3_Mult_verification,2022.2.4,Win32,146.7351431,,,,,,,,,,,,,,,,,,,,,,,,,,,,,,,,,,,,,,,,,,,,,,,,,,,,,,,,,,,,,,,,,,,,,,,,,,,,,,,TRUE,1.1332,0.020370413,-0.33148151,1,0,0,0,1,1,0,1,practice trial,,3,3,,,,,,,,,,,,,,,,,,,,,,,,,,,,,,,,,,,,,,,,,,,,,,,,,,,,,,,,,,,,,,,,,,,,,,,,,,,,,,,,
,8233,ABC,18/10/2002,001,2023-04-08_01h17.26.949,OS3_Mult_verification,2022.2.4,Win32,146.7351431,,,,,,,,,,,,,,,,,,,,,,,,,,,,,,,,,,,,,,,,,,,,,,,,,,,,,,,,,,,,,,,,,,,,,,,,,,,,,,,TRUE,1.412,0.125,-0.327777792,1,0,0,0,2,2,1,1,practice trial,,3,3,,,,,,,,,,,,,,,,,,,,,,,,,,,,,,,,,,,,,,,,,,,,,,,,,,,,,,,,,,,,,,,,,,,,,,,,,,,,,,,,
,8233,ABC,18/10/2002,001,2023-04-08_01h17.26.949,OS3_Mult_verification,2022.2.4,Win32,146.7351431,,,,,,,,,,,,,,,,,,,,,,,,,,,,,,,,,,,,,,,,,,,,,,,,,,,,,,,,,,,,,,,,,,,,,,,,,,,,,,,TRUE,1.0572,0.069444444,-0.381481524,1,0,0,,,,,,Trial #1,,2,2,0,0,0,0,1,2,,,,,,,,,,,,,,,,,,,,,,,,,,,,,,,,,,,,,,,,,,,,,,,,,,,,,,,,,,,,,,,,,,,,,,,,,,
,8233,ABC,18/10/2002,001,2023-04-08_01h17.26.949,OS3_Mult_verification,2022.2.4,Win32,146.7351431,,,,,,,,,,,,,,,,,,,,,,,,,,,,,,,,,,,,,,,,,,,,,,,,,,,,,,,,,,,,,,,,,,,,,,,,,,,,,,,TRUE,0.7768,0.053703732,-0.320370356,1,0,0,,,,,,Trial #1,,2,2,0,1,1,1,1,2,,,,,,,,,,,,,,,,,,,,,,,,,,,,,,,,,,,,,,,,,,,,,,,,,,,,,,,,,,,,,,,,,,,,,,,,,,
,8233,ABC,18/10/2002,001,2023-04-08_01h17.26.949,OS3_Mult_verification,2022.2.4,Win32,146.7351431,,,,,,,,,,,,,,,,,,,,,,,,,,,,,,,,,,,,,,,,,,,,,,,,,,,,,,,,,,,,,,,,,,,,,,,,,,,,,,,TRUE,0.699,0.038888931,-0.321296339,1,0,0,,,,,,Trial #1,,2,2,0,2,2,2,1,2,,,,,,,,,,,,,,,,,,,,,,,,,,,,,,,,,,,,,,,,,,,,,,,,,,,,,,,,,,,,,,,,,,,,,,,,,,
,8233,ABC,18/10/2002,001,2023-04-08_01h17.26.949,OS3_Mult_verification,2022.2.4,Win32,146.7351431,,,,,,,,,,,,,,,,,,,,,,,,,,,,,,,,,,,,,,,,,,,,,,,,,,,,,,,,,,,,,,,,,,,,,,,,,,,,,,,TRUE,0.9572,0.051851838,-0.312962991,1,0,0,,,,,,Trial #2,,3,3,0,0,0,0,1,3,,,,,,,,,,,,,,,,,,,,,,,,,,,,,,,,,,,,,,,,,,,,,,,,,,,,,,,,,,,,,,,,,,,,,,,,,,
,8233,ABC,18/10/2002,001,2023-04-08_01h17.26.949,OS3_Mult_verification,2022.2.4,Win32,146.7351431,,,,,,,,,,,,,,,,,,,,,,,,,,,,,,,,,,,,,,,,,,,,,,,,,,,,,,,,,,,,,,,,,,,,,,,,,,,,,,,TRUE,0.9411,0.05740745,-0.336111139,1,0,0,,,,,,Trial #2,,3,3,0,1,1,1,1,3,,,,,,,,,,,,,,,,,,,,,,,,,,,,,,,,,,,,,,,,,,,,,,,,,,,,,,,,,,,,,,,,,,,,,,,,,,
,8233,ABC,18/10/2002,001,2023-04-08_01h17.26.949,OS3_Mult_verification,2022.2.4,Win32,146.7351431,,,,,,,,,,,,,,,,,,,,,,,,,,,,,,,,,,,,,,,,,,,,,,,,,,,,,,,,,,,,,,,,,,,,,,,,,,,,,,,TRUE,1.2154,0.045370384,-0.312037079,1,0,0,,,,,,Trial #2,,3,3,0,2,2,2,1,3,,,,,,,,,,,,,,,,,,,,,,,,,,,,,,,,,,,,,,,,,,,,,,,,,,,,,,,,,,,,,,,,,,,,,,,,,,
,8233,ABC,18/10/2002,001,2023-04-08_01h17.26.949,OS3_Mult_verification,2022.2.4,Win32,146.7351431,,,,,,,,,,,,,,,,,,,,,,,,,,,,,,,,,,,,,,,,,,,,,,,,,,,,,,,,,,,,,,,,,,,,,,,,,,,,,,,TRUE,1.2089,0.050000014,-0.317592621,1,0,0,,,,,,Trial #3,,3,3,0,0,0,0,1,4,,,,,,,,,,,,,,,,,,,,,,,,,,,,,,,,,,,,,,,,,,,,,,,,,,,,,,,,,,,,,,,,,,,,,,,,,,
,8233,ABC,18/10/2002,001,2023-04-08_01h17.26.949,OS3_Mult_verification,2022.2.4,Win32,146.7351431,,,,,,,,,,,,,,,,,,,,,,,,,,,,,,,,,,,,,,,,,,,,,,,,,,,,,,,,,,,,,,,,,,,,,,,,,,,,,,,TRUE,1.6231,0.106481481,-0.328703704,1,0,0,,,,,,Trial #3,,3,3,0,1,1,1,1,4,,,,,,,,,,,,,,,,,,,,,,,,,,,,,,,,,,,,,,,,,,,,,,,,,,,,,,,,,,,,,,,,,,,,,,,,,,
,8233,ABC,18/10/2002,001,2023-04-08_01h17.26.949,OS3_Mult_verification,2022.2.4,Win32,146.7351431,,,,,,,,,,,,,,,,,,,,,,,,,,,,,,,,,,,,,,,,,,,,,,,,,,,,,,,,,,,,,,,,,,,,,,,,,,,,,,,TRUE,2.0232,0.025925954,-0.315740727,1,0,0,,,,,,Trial #3,,3,3,0,2,2,2,1,4,,,,,,,,,,,,,,,,,,,,,,,,,,,,,,,,,,,,,,,,,,,,,,,,,,,,,,,,,,,,,,,,,,,,,,,,,,
,8233,ABC,18/10/2002,001,2023-04-08_01h17.26.949,OS3_Mult_verification,2022.2.4,Win32,146.7351431,,,,,,,,,,,,,,,,,,,,,,,,,,,,,,,,,,,,,,,,,,,,,,,,,,,,,,,,,,,,,,,,,,,,,,,,,,,,,,,TRUE,1.5002,0.099074116,-0.375,1,0,0,,,,,,Trial #4,,4,4,0,0,0,0,1,5,,,,,,,,,,,,,,,,,,,,,,,,,,,,,,,,,,,,,,,,,,,,,,,,,,,,,,,,,,,,,,,,,,,,,,,,,,
