windowSize,participant,group,DOB (DD/MM/YEAR),session,date,expName,psychopyVersion,OS,frameRate,typing_instr_resp.keys,typing_instr_resp.rt,typing_response,typing_rt,typing_score,typingSpeed_input_resp.keys,typingSpeed_input_resp.rt,typing_speed_trials.thisRepN,typing_speed_trials.thisTrialN,typing_speed_trials.thisN,typing_speed_trials.thisIndex,typing_speed_trials.ran,typing_speed_stim,typing_report_resp.keys,typing_report_resp.rt,vpt_trial_resp1.keys,vpt_trial_resp1.rt,typedResponse,fluency_rt,fluency_score,fluencyInputResp.keys,fluencyInputResp.rt,fluencyPracLoop.thisRepN,fluencyPracLoop.thisTrialN,fluencyPracLoop.thisN,fluencyPracLoop.thisIndex,fluencyPracLoop.ran,problem,answers,fluencyLoop.thisRepN,fluencyLoop.thisTrialN,fluencyLoop.thisN,fluencyLoop.thisIndex,fluencyLoop.ran,sampleAudio_resp.keys,sampleAudio_resp.rt,subjResponse,audio_rt,DS_score,inputResp.keys,inputResp.rt,audioPracticeLoop.thisRepN,audioPracticeLoop.thisTrialN,audioPracticeLoop.thisN,audioPracticeLoop.thisIndex,audioPracticeLoop.ran,digitSpan,digits_audioStim,soundsFile,typeDS,audioTrials_Loop.thisRepN,audioTrials_Loop.thisTrialN,audioTrials_Loop.thisN,audioTrials_Loop.thisIndex,audioTrials_Loop.ran,audioBlocks_loop.thisRepN,audioBlocks_loop.thisTrialN,audioBlocks_loop.thisN,audioBlocks_loop.thisIndex,audioBlocks_loop.ran,ConditionFile,digitSpanTask_loop.thisRepN,digitSpanTask_loop.thisTrialN,digitSpanTask_loop.thisN,digitSpanTask_loop.thisIndex,digitSpanTask_loop.ran,dsFile,TASK_C.thisRepN,TASK_C.thisTrialN,TASK_C.thisN,TASK_C.thisIndex,TASK_C.ran,controlTaskOrder.thisRepN,controlTaskOrder.thisTrialN,controlTaskOrder.thisN,controlTaskOrder.thisIndex,controlTaskOrder.ran,nRepsTask1,nRepsTask2,nRepsTask3,vptCorrect,vpt_rt,respMouse.x,respMouse.y,respMouse.leftButton,respMouse.midButton,respMouse.rightButton,vptPracticeLoop.thisRepN,vptPracticeLoop.thisTrialN,vptPracticeLoop.thisN,vptPracticeLoop.thisIndex,vptPracticeLoop.ran,trialType,tiles,rows,cols,vptTrialLoop.thisRepN,vptTrialLoop.thisTrialN,vptTrialLoop.thisN,vptTrialLoop.thisIndex,vptTrialLoop.ran,noOfBlocks,TASK_B.thisRepN,TASK_B.thisTrialN,TASK_B.thisN,TASK_B.thisIndex,TASK_B.ran,stroopResp.keys,stroopResp.corr,stroopResp.rt,stroopPracLoop.thisRepN,stroopPracLoop.thisTrialN,stroopPracLoop.thisN,stroopPracLoop.thisIndex,stroopPracLoop.ran,stroopCond,leftNo,rightNo,displayProblem,numDistance,leftNo_size,rightNo_size,Dims,keyAnswer,stroopLoop.thisRepN,stroopLoop.thisTrialN,stroopLoop.thisN,stroopLoop.thisIndex,stroopLoop.ran,stroopBlocks.thisRepN,stroopBlocks.thisTrialN,stroopBlocks.thisN,stroopBlocks.thisIndex,stroopBlocks.ran,stroop_condition,stroop_pracFile,ActionInst,instrImage,TASK_A.thisRepN,TASK_A.thisTrialN,TASK_A.thisN,TASK_A.thisIndex,TASK_A.ran,veriStim_resp.keys,veriStim_resp.corr,veriStim_resp.rt,verificationPracLoop.thisRepN,verificationPracLoop.thisTrialN,verificationPracLoop.thisN,verificationPracLoop.thisIndex,verificationPracLoop.ran,mult_problem,mult_answer,mult_type,error_distance,interferenceScore,problemType,interferenceLevel,problemSize,img_leftButton,img_rightButton,veriLoop.thisRepN,veriLoop.thisTrialN,veriLoop.thisN,veriLoop.thisIndex,veriLoop.ran,veriBlock.thisRepN,veriBlock.thisTrialN,veriBlock.thisN,veriBlock.thisIndex,veriBlock.ran,verificationFiles,end_resp.keys,end_resp.rt
"[1536,746]",692323212348,CBA,09/09/2002,001,2023-04-03_11h28.53.768,OS3_Mult_verification,2022.2.4,Win32,144.6340758,,,,,,,,,,,,,,,,,,,,,,,,,,,,,,,,,,,,,,,,,,,,,,,,,,,,,,,,,,,,,,,,,,,,,,,,,,,,,,,,,,,,,,,,,,,,,,,,,,,,,,,,,,,,,,,,,,,,,,,,,,,,,,,,,,,,,,,,,,,,,,,,,,,,,,,,,,,,,,,,,,,,,,,,,,,,,,
,692323212348,CBA,09/09/2002,001,2023-04-03_11h28.53.768,OS3_Mult_verification,2022.2.4,Win32,144.6340758,,,,,,,,,,,,,,,,,,,,,,,,,,,,,,,,,,,,,,,,,,,,,,,,,,,,,,,,,,,,,,,,,,,,,,,,,,,,,,,,,,,,,,,,,,,,,,,,,,,,,,,,,,,,,,,,,,,,,,,,,,,,,,,,,,,,,,,,,,,,,,,,,,,,,,,,,,,,,,,,,,,,,,,,,,,,,,
,692323212348,CBA,09/09/2002,001,2023-04-03_11h28.53.768,OS3_Mult_verification,2022.2.4,Win32,144.6340758,space,22.642,,,,,,,,,,,,,,,,,,,,,,,,,,,,,,,,,,,,,,,,,,,,,,,,,,,,,,,,,,,,,,,,,,,,,,,,,,,,,,,,,,,,,,,,,,,,,,,,,,,,,,,,,,,,,,,,,,,,,,,,,,,,,,,,,,,,,,,,,,,,,,,,,,,,,,,,,,,,,,,,,,,,,,,,,,,,
,692323212348,CBA,09/09/2002,001,2023-04-03_11h28.53.768,OS3_Mult_verification,2022.2.4,Win32,144.6340758,,,6,2.3699,1,"[""6"",""return""]","[1.2154999999999916,2.3519999999999897]",0,0,0,1,1,6,,,,,,,,,,,,,,,,,,,,,,,,,,,,,,,,,,,,,,,,,,,,,,,,,,,,,,,,,,,,,,,,,,,,,,,,,,,,,,,,,,,,,,,,,,,,,,,,,,,,,,,,,,,,,,,,,,,,,,,,,,,,,,,,,,,,,,,,,,,,,,,,,,,,,,,,,,,,,,,,,
,692323212348,CBA,09/09/2002,001,2023-04-03_11h28.53.768,OS3_Mult_verification,2022.2.4,Win32,144.6340758,,,54,1.3955,1,"[""5"",""4"",""return""]","[0.95150000000001,1.1528999999999172,1.3765000000000072]",0,1,1,25,1,54,,,,,,,,,,,,,,,,,,,,,,,,,,,,,,,,,,,,,,,,,,,,,,,,,,,,,,,,,,,,,,,,,,,,,,,,,,,,,,,,,,,,,,,,,,,,,,,,,,,,,,,,,,,,,,,,,,,,,,,,,,,,,,,,,,,,,,,,,,,,,,,,,,,,,,,,,,,,,,,,,
,692323212348,CBA,09/09/2002,001,2023-04-03_11h28.53.768,OS3_Mult_verification,2022.2.4,Win32,144.6340758,,,9,0.9303,1,"[""9"",""return""]","[0.7713999999999004,0.9096000000000828]",0,2,2,3,1,9,,,,,,,,,,,,,,,,,,,,,,,,,,,,,,,,,,,,,,,,,,,,,,,,,,,,,,,,,,,,,,,,,,,,,,,,,,,,,,,,,,,,,,,,,,,,,,,,,,,,,,,,,,,,,,,,,,,,,,,,,,,,,,,,,,,,,,,,,,,,,,,,,,,,,,,,,,,,,,,,,
,692323212348,CBA,09/09/2002,001,2023-04-03_11h28.53.768,OS3_Mult_verification,2022.2.4,Win32,144.6340758,,,48,1.4185,1,"[""4"",""8"",""return""]","[0.7989999999999924,1.1807000000001864,1.4024000000003696]",0,3,3,23,1,48,,,,,,,,,,,,,,,,,,,,,,,,,,,,,,,,,,,,,,,,,,,,,,,,,,,,,,,,,,,,,,,,,,,,,,,,,,,,,,,,,,,,,,,,,,,,,,,,,,,,,,,,,,,,,,,,,,,,,,,,,,,,,,,,,,,,,,,,,,,,,,,,,,,,,,,,,,,,,,,,,
,692323212348,CBA,09/09/2002,001,2023-04-03_11h28.53.768,OS3_Mult_verification,2022.2.4,Win32,144.6340758,,,12,0.7843,1,"[""1"",""2"",""return""]","[0.4864999999999924,0.5842000000001804,0.7644999999999982]",0,4,4,5,1,12,,,,,,,,,,,,,,,,,,,,,,,,,,,,,,,,,,,,,,,,,,,,,,,,,,,,,,,,,,,,,,,,,,,,,,,,,,,,,,,,,,,,,,,,,,,,,,,,,,,,,,,,,,,,,,,,,,,,,,,,,,,,,,,,,,,,,,,,,,,,,,,,,,,,,,,,,,,,,,,,,
,692323212348,CBA,09/09/2002,001,2023-04-03_11h28.53.768,OS3_Mult_verification,2022.2.4,Win32,144.6340758,,,14,1.0412,1,"[""1"",""4"",""return""]","[0.506699999999725,0.8681999999997316,1.0213999999999146]",0,5,5,6,1,14,,,,,,,,,,,,,,,,,,,,,,,,,,,,,,,,,,,,,,,,,,,,,,,,,,,,,,,,,,,,,,,,,,,,,,,,,,,,,,,,,,,,,,,,,,,,,,,,,,,,,,,,,,,,,,,,,,,,,,,,,,,,,,,,,,,,,,,,,,,,,,,,,,,,,,,,,,,,,,,,,
,692323212348,CBA,09/09/2002,001,2023-04-03_11h28.53.768,OS3_Mult_verification,2022.2.4,Win32,144.6340758,,,36,1.4091,1,"[""3"",""6"",""return""]","[0.9656000000000944,1.2569999999999908,1.3887000000001848]",0,6,6,19,1,36,,,,,,,,,,,,,,,,,,,,,,,,,,,,,,,,,,,,,,,,,,,,,,,,,,,,,,,,,,,,,,,,,,,,,,,,,,,,,,,,,,,,,,,,,,,,,,,,,,,,,,,,,,,,,,,,,,,,,,,,,,,,,,,,,,,,,,,,,,,,,,,,,,,,,,,,,,,,,,,,,
,692323212348,CBA,09/09/2002,001,2023-04-03_11h28.53.768,OS3_Mult_verification,2022.2.4,Win32,144.6340758,,,32,2.863,1,"[""5"",""backspace"",""2"",""backspace"",""3"",""2"",""return""]","[0.9046000000001015,1.8408999999999054,2.201399999999907,2.584300000000283,2.709300000000283,2.7860000000000014,2.8488000000002813]",0,7,7,17,1,32,,,,,,,,,,,,,,,,,,,,,,,,,,,,,,,,,,,,,,,,,,,,,,,,,,,,,,,,,,,,,,,,,,,,,,,,,,,,,,,,,,,,,,,,,,,,,,,,,,,,,,,,,,,,,,,,,,,,,,,,,,,,,,,,,,,,,,,,,,,,,,,,,,,,,,,,,,,,,,,,,
,692323212348,CBA,09/09/2002,001,2023-04-03_11h28.53.768,OS3_Mult_verification,2022.2.4,Win32,144.6340758,,,40,1.2983,1,"[""4"",""0"",""return""]","[0.8166000000000935,1.139899999999912,1.2777999999998144]",0,8,8,20,1,40,,,,,,,,,,,,,,,,,,,,,,,,,,,,,,,,,,,,,,,,,,,,,,,,,,,,,,,,,,,,,,,,,,,,,,,,,,,,,,,,,,,,,,,,,,,,,,,,,,,,,,,,,,,,,,,,,,,,,,,,,,,,,,,,,,,,,,,,,,,,,,,,,,,,,,,,,,,,,,,,,
,692323212348,CBA,09/09/2002,001,2023-04-03_11h28.53.768,OS3_Mult_verification,2022.2.4,Win32,144.6340758,,,15,1.1802,1,"[""1"",""5"",""return""]","[0.5429999999999922,0.9864999999999924,1.1602999999998076]",0,9,9,7,1,15,,,,,,,,,,,,,,,,,,,,,,,,,,,,,,,,,,,,,,,,,,,,,,,,,,,,,,,,,,,,,,,,,,,,,,,,,,,,,,,,,,,,,,,,,,,,,,,,,,,,,,,,,,,,,,,,,,,,,,,,,,,,,,,,,,,,,,,,,,,,,,,,,,,,,,,,,,,,,,,,,
,692323212348,CBA,09/09/2002,001,2023-04-03_11h28.53.768,OS3_Mult_verification,2022.2.4,Win32,144.6340758,,,63,1.472,1,"[""6"",""3"",""return""]","[0.83920000000019,1.288299999999822,1.4526000000001034]",0,10,10,27,1,63,,,,,,,,,,,,,,,,,,,,,,,,,,,,,,,,,,,,,,,,,,,,,,,,,,,,,,,,,,,,,,,,,,,,,,,,,,,,,,,,,,,,,,,,,,,,,,,,,,,,,,,,,,,,,,,,,,,,,,,,,,,,,,,,,,,,,,,,,,,,,,,,,,,,,,,,,,,,,,,,,
,692323212348,CBA,09/09/2002,001,2023-04-03_11h28.53.768,OS3_Mult_verification,2022.2.4,Win32,144.6340758,,,27,1.1295,1,"[""2"",""7"",""return""]","[0.6251000000001028,0.9934999999999974,1.1107000000001932]",0,11,11,14,1,27,,,,,,,,,,,,,,,,,,,,,,,,,,,,,,,,,,,,,,,,,,,,,,,,,,,,,,,,,,,,,,,,,,,,,,,,,,,,,,,,,,,,,,,,,,,,,,,,,,,,,,,,,,,,,,,,,,,,,,,,,,,,,,,,,,,,,,,,,,,,,,,,,,,,,,,,,,,,,,,,,
,692323212348,CBA,09/09/2002,001,2023-04-03_11h28.53.768,OS3_Mult_verification,2022.2.4,Win32,144.6340758,,,24,1.1175,1,"[""2"",""4"",""return""]","[0.7227999999998076,0.9522000000001896,1.0987999999998124]",0,12,12,12,1,24,,,,,,,,,,,,,,,,,,,,,,,,,,,,,,,,,,,,,,,,,,,,,,,,,,,,,,,,,,,,,,,,,,,,,,,,,,,,,,,,,,,,,,,,,,,,,,,,,,,,,,,,,,,,,,,,,,,,,,,,,,,,,,,,,,,,,,,,,,,,,,,,,,,,,,,,,,,,,,,,,
,692323212348,CBA,09/09/2002,001,2023-04-03_11h28.53.768,OS3_Mult_verification,2022.2.4,Win32,144.6340758,,,30,1.4719,1,"[""3"",""0"",""return""]","[0.8739999999999952,1.3116000000000838,1.4577000000001874]",0,13,13,16,1,30,,,,,,,,,,,,,,,,,,,,,,,,,,,,,,,,,,,,,,,,,,,,,,,,,,,,,,,,,,,,,,,,,,,,,,,,,,,,,,,,,,,,,,,,,,,,,,,,,,,,,,,,,,,,,,,,,,,,,,,,,,,,,,,,,,,,,,,,,,,,,,,,,,,,,,,,,,,,,,,,,
,692323212348,CBA,09/09/2002,001,2023-04-03_11h28.53.768,OS3_Mult_verification,2022.2.4,Win32,144.6340758,,,28,1.2221,1,"[""2"",""8"",""return""]","[0.595800000000267,1.047900000000368,1.2068000000002712]",0,14,14,15,1,28,,,,,,,,,,,,,,,,,,,,,,,,,,,,,,,,,,,,,,,,,,,,,,,,,,,,,,,,,,,,,,,,,,,,,,,,,,,,,,,,,,,,,,,,,,,,,,,,,,,,,,,,,,,,,,,,,,,,,,,,,,,,,,,,,,,,,,,,,,,,,,,,,,,,,,,,,,,,,,,,,
,692323212348,CBA,09/09/2002,001,2023-04-03_11h28.53.768,OS3_Mult_verification,2022.2.4,Win32,144.6340758,,,72,1.5838,1,"[""7"",""2"",""return""]","[0.9496000000001033,1.3255000000000052,1.5687000000001916]",0,15,15,29,1,72,,,,,,,,,,,,,,,,,,,,,,,,,,,,,,,,,,,,,,,,,,,,,,,,,,,,,,,,,,,,,,,,,,,,,,,,,,,,,,,,,,,,,,,,,,,,,,,,,,,,,,,,,,,,,,,,,,,,,,,,,,,,,,,,,,,,,,,,,,,,,,,,,,,,,,,,,,,,,,,,,
,692323212348,CBA,09/09/2002,001,2023-04-03_11h28.53.768,OS3_Mult_verification,2022.2.4,Win32,144.6340758,,,16,1.0765,1,"[""1"",""6"",""return""]","[0.5539000000003682,0.929300000000282,1.0612000000001842]",0,16,16,8,1,16,,,,,,,,,,,,,,,,,,,,,,,,,,,,,,,,,,,,,,,,,,,,,,,,,,,,,,,,,,,,,,,,,,,,,,,,,,,,,,,,,,,,,,,,,,,,,,,,,,,,,,,,,,,,,,,,,,,,,,,,,,,,,,,,,,,,,,,,,,,,,,,,,,,,,,,,,,,,,,,,,
,692323212348,CBA,09/09/2002,001,2023-04-03_11h28.53.768,OS3_Mult_verification,2022.2.4,Win32,144.6340758,,,25,1.1316,1,"[""2"",""5"",""return""]","[0.6856999999997129,0.9423999999999069,1.116799999999813]",0,17,17,13,1,25,,,,,,,,,,,,,,,,,,,,,,,,,,,,,,,,,,,,,,,,,,,,,,,,,,,,,,,,,,,,,,,,,,,,,,,,,,,,,,,,,,,,,,,,,,,,,,,,,,,,,,,,,,,,,,,,,,,,,,,,,,,,,,,,,,,,,,,,,,,,,,,,,,,,,,,,,,,,,,,,,
,692323212348,CBA,09/09/2002,001,2023-04-03_11h28.53.768,OS3_Mult_verification,2022.2.4,Win32,144.6340758,,,21,1.0206,1,"[""2"",""1"",""return""]","[0.583400000000367,0.7767000000001758,1.0062000000001774]",0,18,18,11,1,21,,,,,,,,,,,,,,,,,,,,,,,,,,,,,,,,,,,,,,,,,,,,,,,,,,,,,,,,,,,,,,,,,,,,,,,,,,,,,,,,,,,,,,,,,,,,,,,,,,,,,,,,,,,,,,,,,,,,,,,,,,,,,,,,,,,,,,,,,,,,,,,,,,,,,,,,,,,,,,,,,
,692323212348,CBA,09/09/2002,001,2023-04-03_11h28.53.768,OS3_Mult_verification,2022.2.4,Win32,144.6340758,,,35,1.2428,1,"[""3"",""5"",""return""]","[0.7492000000001866,1.0963000000002836,1.2271000000000925]",0,19,19,18,1,35,,,,,,,,,,,,,,,,,,,,,,,,,,,,,,,,,,,,,,,,,,,,,,,,,,,,,,,,,,,,,,,,,,,,,,,,,,,,,,,,,,,,,,,,,,,,,,,,,,,,,,,,,,,,,,,,,,,,,,,,,,,,,,,,,,,,,,,,,,,,,,,,,,,,,,,,,,,,,,,,,
,692323212348,CBA,09/09/2002,001,2023-04-03_11h28.53.768,OS3_Mult_verification,2022.2.4,Win32,144.6340758,,,10,1.0625,1,"[""1"",""0"",""return""]","[0.4782000000001858,0.8739000000003756,1.048200000000179]",0,20,20,4,1,10,,,,,,,,,,,,,,,,,,,,,,,,,,,,,,,,,,,,,,,,,,,,,,,,,,,,,,,,,,,,,,,,,,,,,,,,,,,,,,,,,,,,,,,,,,,,,,,,,,,,,,,,,,,,,,,,,,,,,,,,,,,,,,,,,,,,,,,,,,,,,,,,,,,,,,,,,,,,,,,,,
,692323212348,CBA,09/09/2002,001,2023-04-03_11h28.53.768,OS3_Mult_verification,2022.2.4,Win32,144.6340758,,,49,1.3045,1,"[""4"",""9"",""return""]","[0.7406000000000859,1.1586000000000922,1.28910000000009]",0,21,21,24,1,49,,,,,,,,,,,,,,,,,,,,,,,,,,,,,,,,,,,,,,,,,,,,,,,,,,,,,,,,,,,,,,,,,,,,,,,,,,,,,,,,,,,,,,,,,,,,,,,,,,,,,,,,,,,,,,,,,,,,,,,,,,,,,,,,,,,,,,,,,,,,,,,,,,,,,,,,,,,,,,,,,
,692323212348,CBA,09/09/2002,001,2023-04-03_11h28.53.768,OS3_Mult_verification,2022.2.4,Win32,144.6340758,,,20,1.2497,1,"[""2"",""0"",""return""]","[0.6514999999999986,1.0465000000000089,1.2351000000001022]",0,22,22,10,1,20,,,,,,,,,,,,,,,,,,,,,,,,,,,,,,,,,,,,,,,,,,,,,,,,,,,,,,,,,,,,,,,,,,,,,,,,,,,,,,,,,,,,,,,,,,,,,,,,,,,,,,,,,,,,,,,,,,,,,,,,,,,,,,,,,,,,,,,,,,,,,,,,,,,,,,,,,,,,,,,,,
,692323212348,CBA,09/09/2002,001,2023-04-03_11h28.53.768,OS3_Mult_verification,2022.2.4,Win32,144.6340758,,,81,1.5344,1,"[""8"",""1"",""return""]","[0.9366999999997176,1.2845000000000084,1.520899999999898]",0,23,23,30,1,81,,,,,,,,,,,,,,,,,,,,,,,,,,,,,,,,,,,,,,,,,,,,,,,,,,,,,,,,,,,,,,,,,,,,,,,,,,,,,,,,,,,,,,,,,,,,,,,,,,,,,,,,,,,,,,,,,,,,,,,,,,,,,,,,,,,,,,,,,,,,,,,,,,,,,,,,,,,,,,,,,
,692323212348,CBA,09/09/2002,001,2023-04-03_11h28.53.768,OS3_Mult_verification,2022.2.4,Win32,144.6340758,,,56,1.3609,1,"[""5"",""6"",""return""]","[0.8737999999998181,1.109499999999997,1.3457999999998265]",0,24,24,26,1,56,,,,,,,,,,,,,,,,,,,,,,,,,,,,,,,,,,,,,,,,,,,,,,,,,,,,,,,,,,,,,,,,,,,,,,,,,,,,,,,,,,,,,,,,,,,,,,,,,,,,,,,,,,,,,,,,,,,,,,,,,,,,,,,,,,,,,,,,,,,,,,,,,,,,,,,,,,,,,,,,,
,692323212348,CBA,09/09/2002,001,2023-04-03_11h28.53.768,OS3_Mult_verification,2022.2.4,Win32,144.6340758,,,42,1.5136,1,"[""4"",""2"",""return""]","[0.8177000000001726,1.2548999999999069,1.4979999999999905]",0,25,25,21,1,42,,,,,,,,,,,,,,,,,,,,,,,,,,,,,,,,,,,,,,,,,,,,,,,,,,,,,,,,,,,,,,,,,,,,,,,,,,,,,,,,,,,,,,,,,,,,,,,,,,,,,,,,,,,,,,,,,,,,,,,,,,,,,,,,,,,,,,,,,,,,,,,,,,,,,,,,,,,,,,,,,
,692323212348,CBA,09/09/2002,001,2023-04-03_11h28.53.768,OS3_Mult_verification,2022.2.4,Win32,144.6340758,,,45,1.3401,1,"[""4"",""5"",""return""]","[0.8607999999998128,1.1041000000000736,1.3252999999997996]",0,26,26,22,1,45,,,,,,,,,,,,,,,,,,,,,,,,,,,,,,,,,,,,,,,,,,,,,,,,,,,,,,,,,,,,,,,,,,,,,,,,,,,,,,,,,,,,,,,,,,,,,,,,,,,,,,,,,,,,,,,,,,,,,,,,,,,,,,,,,,,,,,,,,,,,,,,,,,,,,,,,,,,,,,,,,
,692323212348,CBA,09/09/2002,001,2023-04-03_11h28.53.768,OS3_Mult_verification,2022.2.4,Win32,144.6340758,,,4,1.104,1,"[""4"",""return""]","[0.8536000000001138,1.0893999999999266]",0,27,27,0,1,4,,,,,,,,,,,,,,,,,,,,,,,,,,,,,,,,,,,,,,,,,,,,,,,,,,,,,,,,,,,,,,,,,,,,,,,,,,,,,,,,,,,,,,,,,,,,,,,,,,,,,,,,,,,,,,,,,,,,,,,,,,,,,,,,,,,,,,,,,,,,,,,,,,,,,,,,,,,,,,,,,
,692323212348,CBA,09/09/2002,001,2023-04-03_11h28.53.768,OS3_Mult_verification,2022.2.4,Win32,144.6340758,,,64,1.4787,1,"[""6"",""4"",""return""]","[0.8456000000000898,1.1511000000000848,1.4636000000000848]",0,28,28,28,1,64,,,,,,,,,,,,,,,,,,,,,,,,,,,,,,,,,,,,,,,,,,,,,,,,,,,,,,,,,,,,,,,,,,,,,,,,,,,,,,,,,,,,,,,,,,,,,,,,,,,,,,,,,,,,,,,,,,,,,,,,,,,,,,,,,,,,,,,,,,,,,,,,,,,,,,,,,,,,,,,,,
,692323212348,CBA,09/09/2002,001,2023-04-03_11h28.53.768,OS3_Mult_verification,2022.2.4,Win32,144.6340758,,,8,1.076,1,"[""8"",""return""]","[0.8310000000000173,1.0600999999996361]",0,29,29,2,1,8,,,,,,,,,,,,,,,,,,,,,,,,,,,,,,,,,,,,,,,,,,,,,,,,,,,,,,,,,,,,,,,,,,,,,,,,,,,,,,,,,,,,,,,,,,,,,,,,,,,,,,,,,,,,,,,,,,,,,,,,,,,,,,,,,,,,,,,,,,,,,,,,,,,,,,,,,,,,,,,,,
,692323212348,CBA,09/09/2002,001,2023-04-03_11h28.53.768,OS3_Mult_verification,2022.2.4,Win32,144.6340758,,,18,1.3955,1,"[""1"",""8"",""return""]","[0.5892000000001758,1.1527000000001806,1.3811000000000888]",0,30,30,9,1,18,,,,,,,,,,,,,,,,,,,,,,,,,,,,,,,,,,,,,,,,,,,,,,,,,,,,,,,,,,,,,,,,,,,,,,,,,,,,,,,,,,,,,,,,,,,,,,,,,,,,,,,,,,,,,,,,,,,,,,,,,,,,,,,,,,,,,,,,,,,,,,,,,,,,,,,,,,,,,,,,,
,692323212348,CBA,09/09/2002,001,2023-04-03_11h28.53.768,OS3_Mult_verification,2022.2.4,Win32,144.6340758,,,45,1.2359,1,"[""4"",""5"",""return""]","[0.804900000000373,1.0343000000002576,1.2207000000001642]",1,0,31,22,1,45,,,,,,,,,,,,,,,,,,,,,,,,,,,,,,,,,,,,,,,,,,,,,,,,,,,,,,,,,,,,,,,,,,,,,,,,,,,,,,,,,,,,,,,,,,,,,,,,,,,,,,,,,,,,,,,,,,,,,,,,,,,,,,,,,,,,,,,,,,,,,,,,,,,,,,,,,,,,,,,,,
,692323212348,CBA,09/09/2002,001,2023-04-03_11h28.53.768,OS3_Mult_verification,2022.2.4,Win32,144.6340758,,,35,1.4649,1,"[""3"",""5"",""return""]","[0.7235000000000014,1.2700000000000102,1.4490000000000123]",1,1,32,18,1,35,,,,,,,,,,,,,,,,,,,,,,,,,,,,,,,,,,,,,,,,,,,,,,,,,,,,,,,,,,,,,,,,,,,,,,,,,,,,,,,,,,,,,,,,,,,,,,,,,,,,,,,,,,,,,,,,,,,,,,,,,,,,,,,,,,,,,,,,,,,,,,,,,,,,,,,,,,,,,,,,,
,692323212348,CBA,09/09/2002,001,2023-04-03_11h28.53.768,OS3_Mult_verification,2022.2.4,Win32,144.6340758,,,8,1.0413,1,"[""8"",""return""]","[0.8068999999999278,1.020700000000204]",1,2,33,2,1,8,,,,,,,,,,,,,,,,,,,,,,,,,,,,,,,,,,,,,,,,,,,,,,,,,,,,,,,,,,,,,,,,,,,,,,,,,,,,,,,,,,,,,,,,,,,,,,,,,,,,,,,,,,,,,,,,,,,,,,,,,,,,,,,,,,,,,,,,,,,,,,,,,,,,,,,,,,,,,,,,,
,692323212348,CBA,09/09/2002,001,2023-04-03_11h28.53.768,OS3_Mult_verification,2022.2.4,Win32,144.6340758,,,10,1.34,1,"[""1"",""0"",""return""]","[0.6463999999999146,1.1400999999996202,1.3213999999998975]",1,3,34,4,1,10,,,,,,,,,,,,,,,,,,,,,,,,,,,,,,,,,,,,,,,,,,,,,,,,,,,,,,,,,,,,,,,,,,,,,,,,,,,,,,,,,,,,,,,,,,,,,,,,,,,,,,,,,,,,,,,,,,,,,,,,,,,,,,,,,,,,,,,,,,,,,,,,,,,,,,,,,,,,,,,,,
,692323212348,CBA,09/09/2002,001,2023-04-03_11h28.53.768,OS3_Mult_verification,2022.2.4,Win32,144.6340758,,,24,1.216,1,"[""2"",""4"",""return""]","[0.73599999999999,0.9852999999998246,1.2008999999999048]",1,4,35,12,1,24,,,,,,,,,,,,,,,,,,,,,,,,,,,,,,,,,,,,,,,,,,,,,,,,,,,,,,,,,,,,,,,,,,,,,,,,,,,,,,,,,,,,,,,,,,,,,,,,,,,,,,,,,,,,,,,,,,,,,,,,,,,,,,,,,,,,,,,,,,,,,,,,,,,,,,,,,,,,,,,,,
,692323212348,CBA,09/09/2002,001,2023-04-03_11h28.53.768,OS3_Mult_verification,2022.2.4,Win32,144.6340758,,,25,1.604,1,"[""2"",""5"",""return""]","[0.7768000000002928,1.1727000000001908,1.5888000000002762]",1,5,36,13,1,25,,,,,,,,,,,,,,,,,,,,,,,,,,,,,,,,,,,,,,,,,,,,,,,,,,,,,,,,,,,,,,,,,,,,,,,,,,,,,,,,,,,,,,,,,,,,,,,,,,,,,,,,,,,,,,,,,,,,,,,,,,,,,,,,,,,,,,,,,,,,,,,,,,,,,,,,,,,,,,,,,
,692323212348,CBA,09/09/2002,001,2023-04-03_11h28.53.768,OS3_Mult_verification,2022.2.4,Win32,144.6340758,,,40,1.5969,1,"[""4"",""0"",""return""]","[0.922299999999808,1.3456999999997095,1.582199999999716]",1,6,37,20,1,40,,,,,,,,,,,,,,,,,,,,,,,,,,,,,,,,,,,,,,,,,,,,,,,,,,,,,,,,,,,,,,,,,,,,,,,,,,,,,,,,,,,,,,,,,,,,,,,,,,,,,,,,,,,,,,,,,,,,,,,,,,,,,,,,,,,,,,,,,,,,,,,,,,,,,,,,,,,,,,,,,
,692323212348,CBA,09/09/2002,001,2023-04-03_11h28.53.768,OS3_Mult_verification,2022.2.4,Win32,144.6340758,,,48,1.5124,1,"[""4"",""8"",""return""]","[0.7830000000000155,1.2134000000003766,1.4986000000000956]",1,7,38,23,1,48,,,,,,,,,,,,,,,,,,,,,,,,,,,,,,,,,,,,,,,,,,,,,,,,,,,,,,,,,,,,,,,,,,,,,,,,,,,,,,,,,,,,,,,,,,,,,,,,,,,,,,,,,,,,,,,,,,,,,,,,,,,,,,,,,,,,,,,,,,,,,,,,,,,,,,,,,,,,,,,,,
,692323212348,CBA,09/09/2002,001,2023-04-03_11h28.53.768,OS3_Mult_verification,2022.2.4,Win32,144.6340758,,,42,1.8052,1,"[""4"",""2"",""return""]","[1.312100000000072,1.5611000000000956,1.7903000000002578]",1,8,39,21,1,42,,,,,,,,,,,,,,,,,,,,,,,,,,,,,,,,,,,,,,,,,,,,,,,,,,,,,,,,,,,,,,,,,,,,,,,,,,,,,,,,,,,,,,,,,,,,,,,,,,,,,,,,,,,,,,,,,,,,,,,,,,,,,,,,,,,,,,,,,,,,,,,,,,,,,,,,,,,,,,,,,
,692323212348,CBA,09/09/2002,001,2023-04-03_11h28.53.768,OS3_Mult_verification,2022.2.4,Win32,144.6340758,,,21,1.3398,1,"[""2"",""1"",""return""]","[0.8597000000001742,1.0894000000003814,1.3249999999999886]",1,9,40,11,1,21,,,,,,,,,,,,,,,,,,,,,,,,,,,,,,,,,,,,,,,,,,,,,,,,,,,,,,,,,,,,,,,,,,,,,,,,,,,,,,,,,,,,,,,,,,,,,,,,,,,,,,,,,,,,,,,,,,,,,,,,,,,,,,,,,,,,,,,,,,,,,,,,,,,,,,,,,,,,,,,,,
,692323212348,CBA,09/09/2002,001,2023-04-03_11h28.53.768,OS3_Mult_verification,2022.2.4,Win32,144.6340758,,,15,1.1521,1,"[""1"",""5"",""return""]","[0.5749000000003548,0.9017000000001758,1.1376000000000772]",1,10,41,7,1,15,,,,,,,,,,,,,,,,,,,,,,,,,,,,,,,,,,,,,,,,,,,,,,,,,,,,,,,,,,,,,,,,,,,,,,,,,,,,,,,,,,,,,,,,,,,,,,,,,,,,,,,,,,,,,,,,,,,,,,,,,,,,,,,,,,,,,,,,,,,,,,,,,,,,,,,,,,,,,,,,,
,692323212348,CBA,09/09/2002,001,2023-04-03_11h28.53.768,OS3_Mult_verification,2022.2.4,Win32,144.6340758,,,36,1.3679,1,"[""3"",""6"",""return""]","[0.7847999999998194,1.1102000000001908,1.3536000000001138]",1,11,42,19,1,36,,,,,,,,,,,,,,,,,,,,,,,,,,,,,,,,,,,,,,,,,,,,,,,,,,,,,,,,,,,,,,,,,,,,,,,,,,,,,,,,,,,,,,,,,,,,,,,,,,,,,,,,,,,,,,,,,,,,,,,,,,,,,,,,,,,,,,,,,,,,,,,,,,,,,,,,,,,,,,,,,
,692323212348,CBA,09/09/2002,001,2023-04-03_11h28.53.768,OS3_Mult_verification,2022.2.4,Win32,144.6340758,,,6,1.2358,1,"[""6"",""return""]","[0.97199999999998,1.220499999999987]",1,12,43,1,1,6,,,,,,,,,,,,,,,,,,,,,,,,,,,,,,,,,,,,,,,,,,,,,,,,,,,,,,,,,,,,,,,,,,,,,,,,,,,,,,,,,,,,,,,,,,,,,,,,,,,,,,,,,,,,,,,,,,,,,,,,,,,,,,,,,,,,,,,,,,,,,,,,,,,,,,,,,,,,,,,,,
,692323212348,CBA,09/09/2002,001,2023-04-03_11h28.53.768,OS3_Mult_verification,2022.2.4,Win32,144.6340758,,,4,1.132,1,"[""4"",""return""]","[0.9087999999998146,1.1172999999998297]",1,13,44,0,1,4,,,,,,,,,,,,,,,,,,,,,,,,,,,,,,,,,,,,,,,,,,,,,,,,,,,,,,,,,,,,,,,,,,,,,,,,,,,,,,,,,,,,,,,,,,,,,,,,,,,,,,,,,,,,,,,,,,,,,,,,,,,,,,,,,,,,,,,,,,,,,,,,,,,,,,,,,,,,,,,,,
,692323212348,CBA,09/09/2002,001,2023-04-03_11h28.53.768,OS3_Mult_verification,2022.2.4,Win32,144.6340758,,,56,1.5129,1,"[""5"",""6"",""return""]","[1.0821000000000822,1.282400000000365,1.497900000000385]",1,14,45,26,1,56,,,,,,,,,,,,,,,,,,,,,,,,,,,,,,,,,,,,,,,,,,,,,,,,,,,,,,,,,,,,,,,,,,,,,,,,,,,,,,,,,,,,,,,,,,,,,,,,,,,,,,,,,,,,,,,,,,,,,,,,,,,,,,,,,,,,,,,,,,,,,,,,,,,,,,,,,,,,,,,,,
,692323212348,CBA,09/09/2002,001,2023-04-03_11h28.53.768,OS3_Mult_verification,2022.2.4,Win32,144.6340758,,,18,1.3471,1,"[""1"",""8"",""return""]","[0.5881000000001109,1.0472000000002026,1.3319999999999936]",1,15,46,9,1,18,,,,,,,,,,,,,,,,,,,,,,,,,,,,,,,,,,,,,,,,,,,,,,,,,,,,,,,,,,,,,,,,,,,,,,,,,,,,,,,,,,,,,,,,,,,,,,,,,,,,,,,,,,,,,,,,,,,,,,,,,,,,,,,,,,,,,,,,,,,,,,,,,,,,,,,,,,,,,,,,,
,692323212348,CBA,09/09/2002,001,2023-04-03_11h28.53.768,OS3_Mult_verification,2022.2.4,Win32,144.6340758,,,64,1.3951,1,"[""6"",""4"",""return""]","[0.9085000000000036,1.1995000000000005,1.380500000000012]",1,16,47,28,1,64,,,,,,,,,,,,,,,,,,,,,,,,,,,,,,,,,,,,,,,,,,,,,,,,,,,,,,,,,,,,,,,,,,,,,,,,,,,,,,,,,,,,,,,,,,,,,,,,,,,,,,,,,,,,,,,,,,,,,,,,,,,,,,,,,,,,,,,,,,,,,,,,,,,,,,,,,,,,,,,,,
,692323212348,CBA,09/09/2002,001,2023-04-03_11h28.53.768,OS3_Mult_verification,2022.2.4,Win32,144.6340758,,,30,1.7566,1,"[""3"",""0"",""return""]","[1.1161999999997079,1.5064999999999884,1.7419999999999902]",1,17,48,16,1,30,,,,,,,,,,,,,,,,,,,,,,,,,,,,,,,,,,,,,,,,,,,,,,,,,,,,,,,,,,,,,,,,,,,,,,,,,,,,,,,,,,,,,,,,,,,,,,,,,,,,,,,,,,,,,,,,,,,,,,,,,,,,,,,,,,,,,,,,,,,,,,,,,,,,,,,,,,,,,,,,,
,692323212348,CBA,09/09/2002,001,2023-04-03_11h28.53.768,OS3_Mult_verification,2022.2.4,Win32,144.6340758,,,14,1.104,1,"[""1"",""4"",""return""]","[0.6308999999998832,0.87339999999989,1.0888999999998816]",1,18,49,6,1,14,,,,,,,,,,,,,,,,,,,,,,,,,,,,,,,,,,,,,,,,,,,,,,,,,,,,,,,,,,,,,,,,,,,,,,,,,,,,,,,,,,,,,,,,,,,,,,,,,,,,,,,,,,,,,,,,,,,,,,,,,,,,,,,,,,,,,,,,,,,,,,,,,,,,,,,,,,,,,,,,,
,692323212348,CBA,09/09/2002,001,2023-04-03_11h28.53.768,OS3_Mult_verification,2022.2.4,Win32,144.6340758,,,32,1.0413,1,"[""3"",""2"",""return""]","[0.749400000000378,0.881700000000194,1.0263000000003046]",1,19,50,17,1,32,,,,,,,,,,,,,,,,,,,,,,,,,,,,,,,,,,,,,,,,,,,,,,,,,,,,,,,,,,,,,,,,,,,,,,,,,,,,,,,,,,,,,,,,,,,,,,,,,,,,,,,,,,,,,,,,,,,,,,,,,,,,,,,,,,,,,,,,,,,,,,,,,,,,,,,,,,,,,,,,,
,692323212348,CBA,09/09/2002,001,2023-04-03_11h28.53.768,OS3_Mult_verification,2022.2.4,Win32,144.6340758,,,12,0.9306,1,"[""1"",""2"",""return""]","[0.5674999999999955,0.7065000000000055,0.9148999999999035]",1,20,51,5,1,12,,,,,,,,,,,,,,,,,,,,,,,,,,,,,,,,,,,,,,,,,,,,,,,,,,,,,,,,,,,,,,,,,,,,,,,,,,,,,,,,,,,,,,,,,,,,,,,,,,,,,,,,,,,,,,,,,,,,,,,,,,,,,,,,,,,,,,,,,,,,,,,,,,,,,,,,,,,,,,,,,
,692323212348,CBA,09/09/2002,001,2023-04-03_11h28.53.768,OS3_Mult_verification,2022.2.4,Win32,144.6340758,,,72,1.3262,1,"[""7"",""2"",""return""]","[0.8046000000001072,1.1520000000000152,1.3122999999998228]",1,21,52,29,1,72,,,,,,,,,,,,,,,,,,,,,,,,,,,,,,,,,,,,,,,,,,,,,,,,,,,,,,,,,,,,,,,,,,,,,,,,,,,,,,,,,,,,,,,,,,,,,,,,,,,,,,,,,,,,,,,,,,,,,,,,,,,,,,,,,,,,,,,,,,,,,,,,,,,,,,,,,,,,,,,,,
,692323212348,CBA,09/09/2002,001,2023-04-03_11h28.53.768,OS3_Mult_verification,2022.2.4,Win32,144.6340758,,,54,1.2011,1,"[""5"",""4"",""return""]","[0.8319000000003882,1.0133000000002994,1.187200000000189]",1,22,53,25,1,54,,,,,,,,,,,,,,,,,,,,,,,,,,,,,,,,,,,,,,,,,,,,,,,,,,,,,,,,,,,,,,,,,,,,,,,,,,,,,,,,,,,,,,,,,,,,,,,,,,,,,,,,,,,,,,,,,,,,,,,,,,,,,,,,,,,,,,,,,,,,,,,,,,,,,,,,,,,,,,,,,
,692323212348,CBA,09/09/2002,001,2023-04-03_11h28.53.768,OS3_Mult_verification,2022.2.4,Win32,144.6340758,,,9,1.0208,1,"[""9"",""return""]","[0.8602999999998246,1.0068999999999164]",1,23,54,3,1,9,,,,,,,,,,,,,,,,,,,,,,,,,,,,,,,,,,,,,,,,,,,,,,,,,,,,,,,,,,,,,,,,,,,,,,,,,,,,,,,,,,,,,,,,,,,,,,,,,,,,,,,,,,,,,,,,,,,,,,,,,,,,,,,,,,,,,,,,,,,,,,,,,,,,,,,,,,,,,,,,,
,692323212348,CBA,09/09/2002,001,2023-04-03_11h28.53.768,OS3_Mult_verification,2022.2.4,Win32,144.6340758,,,63,1.8887,1,"[""6"",""3"",""return""]","[1.366200000000191,1.7212999999998146,1.8737000000001842]",1,24,55,27,1,63,,,,,,,,,,,,,,,,,,,,,,,,,,,,,,,,,,,,,,,,,,,,,,,,,,,,,,,,,,,,,,,,,,,,,,,,,,,,,,,,,,,,,,,,,,,,,,,,,,,,,,,,,,,,,,,,,,,,,,,,,,,,,,,,,,,,,,,,,,,,,,,,,,,,,,,,,,,,,,,,,
,692323212348,CBA,09/09/2002,001,2023-04-03_11h28.53.768,OS3_Mult_verification,2022.2.4,Win32,144.6340758,,,2,1.2219,0,"[""2"",""return""]","[0.6935000000000002,1.2073999999999216]",1,25,56,15,1,28,,,,,,,,,,,,,,,,,,,,,,,,,,,,,,,,,,,,,,,,,,,,,,,,,,,,,,,,,,,,,,,,,,,,,,,,,,,,,,,,,,,,,,,,,,,,,,,,,,,,,,,,,,,,,,,,,,,,,,,,,,,,,,,,,,,,,,,,,,,,,,,,,,,,,,,,,,,,,,,,,
,692323212348,CBA,09/09/2002,001,2023-04-03_11h28.53.768,OS3_Mult_verification,2022.2.4,Win32,144.6340758,,,27,2.3331,1,"[""2"",""8"",""backspace"",""7"",""return""]","[0.8592999999998199,1.2271999999997263,1.8379999999999939,1.977799999999803,2.317899999999895]",1,26,57,14,1,27,,,,,,,,,,,,,,,,,,,,,,,,,,,,,,,,,,,,,,,,,,,,,,,,,,,,,,,,,,,,,,,,,,,,,,,,,,,,,,,,,,,,,,,,,,,,,,,,,,,,,,,,,,,,,,,,,,,,,,,,,,,,,,,,,,,,,,,,,,,,,,,,,,,,,,,,,,,,,,,,,
,692323212348,CBA,09/09/2002,001,2023-04-03_11h28.53.768,OS3_Mult_verification,2022.2.4,Win32,144.6340758,,,49,1.472,1,"[""4"",""9"",""return""]","[0.9416000000001077,1.3015000000000043,1.4542999999998187]",1,27,58,24,1,49,,,,,,,,,,,,,,,,,,,,,,,,,,,,,,,,,,,,,,,,,,,,,,,,,,,,,,,,,,,,,,,,,,,,,,,,,,,,,,,,,,,,,,,,,,,,,,,,,,,,,,,,,,,,,,,,,,,,,,,,,,,,,,,,,,,,,,,,,,,,,,,,,,,,,,,,,,,,,,,,,
,692323212348,CBA,09/09/2002,001,2023-04-03_11h28.53.768,OS3_Mult_verification,2022.2.4,Win32,144.6340758,,,20,1.1869,1,"[""2"",""0"",""return""]","[0.5895000000000152,0.9848000000002912,1.172399999999925]",1,28,59,10,1,20,,,,,,,,,,,,,,,,,,,,,,,,,,,,,,,,,,,,,,,,,,,,,,,,,,,,,,,,,,,,,,,,,,,,,,,,,,,,,,,,,,,,,,,,,,,,,,,,,,,,,,,,,,,,,,,,,,,,,,,,,,,,,,,,,,,,,,,,,,,,,,,,,,,,,,,,,,,,,,,,,
,692323212348,CBA,09/09/2002,001,2023-04-03_11h28.53.768,OS3_Mult_verification,2022.2.4,Win32,144.6340758,,,81,1.555,1,"[""8"",""1"",""return""]","[0.9090000000000202,1.3120000000000118,1.5409999999999968]",1,29,60,30,1,81,,,,,,,,,,,,,,,,,,,,,,,,,,,,,,,,,,,,,,,,,,,,,,,,,,,,,,,,,,,,,,,,,,,,,,,,,,,,,,,,,,,,,,,,,,,,,,,,,,,,,,,,,,,,,,,,,,,,,,,,,,,,,,,,,,,,,,,,,,,,,,,,,,,,,,,,,,,,,,,,,
,692323212348,CBA,09/09/2002,001,2023-04-03_11h28.53.768,OS3_Mult_verification,2022.2.4,Win32,144.6340758,,,16,1.2706,1,"[""1"",""6"",""return""]","[0.6312000000001774,1.0961000000000922,1.2554999999999836]",1,30,61,8,1,16,,,,,,,,,,,,,,,,,,,,,,,,,,,,,,,,,,,,,,,,,,,,,,,,,,,,,,,,,,,,,,,,,,,,,,,,,,,,,,,,,,,,,,,,,,,,,,,,,,,,,,,,,,,,,,,,,,,,,,,,,,,,,,,,,,,,,,,,,,,,,,,,,,,,,,,,,,,,,,,,,
,692323212348,CBA,09/09/2002,001,2023-04-03_11h28.53.768,OS3_Mult_verification,2022.2.4,Win32,144.6340758,,,,,,,,,,,,,,space,2.186,,,,,,,,,,,,,,,,,,,,,,,,,,,,,,,,,,,,,,,,,,,,,,,,,,,,,,,,,,,,,,,,,,,,,,,,,,,,,,,,,,,,,,,,,,,,,,,,,,,,,,,,,,,,,,,,,,,,,,,,,,,,,,,,,,,,,,,,,,,,,,,,,,,,,,,,,,,,,,,
,692323212348,CBA,09/09/2002,001,2023-04-03_11h28.53.768,OS3_Mult_verification,2022.2.4,Win32,144.6340758,,,,,,,,,,,,,,,,,,,,,,,,,,,,,,,,,,,,,,,,,,,,,,,,,,,,,,,,,,,,,,,,,,,,,,,,,,,,,,,,,,,,,,,,,,,,,,,,,,,,,,,,,,,,,,,,,,,,,,,,,,,,,,,,,,,,,,,,,,,,,,,,,,,,,,,,,,,,,,,,,,,,,,,,,,,,,,
,692323212348,CBA,09/09/2002,001,2023-04-03_11h28.53.768,OS3_Mult_verification,2022.2.4,Win32,144.6340758,,,,,,,,,,,,,,,,space,4.5687,,,,,,,,,,,,,,,,,,,,,,,,,,,,,,,,,,,,,,,,,,,,,,,,,,,,,,,,,,,,,,,,,,,,,,,,,,,,,,,,,,,,,,,,,,,,,,,,,,,,,,,,,,,,,,,,,,,,,,,,,,,,,,,,,,,,,,,,,,,,,,,,,,,,,,,,,,,,,
,692323212348,CBA,09/09/2002,001,2023-04-03_11h28.53.768,OS3_Mult_verification,2022.2.4,Win32,144.6340758,,,,,,,,,,,,,,,,,,7,2.7644,1,"[""7"",""return""]","[1.6667000000001906,2.492999999999995]",0,0,0,0,1,1 × 7 =,7,,,,,,,,,,,,,,,,,,,,,,,,,,,,,,,,,,,,,,,,,,,,,,,,,,,,,,,,,,,,,,,,,,,,,,,,,,,,,,,,,,,,,,,,,,,,,,,,,,,,,,,,,,,,,,,,,,,,,,,,,,,,,,,,,,,,,,,,,,,,,,,,,
,692323212348,CBA,09/09/2002,001,2023-04-03_11h28.53.768,OS3_Mult_verification,2022.2.4,Win32,144.6340758,,,,,,,,,,,,,,,,,,20,2.1895,1,"[""2"",""0"",""return""]","[1.019399999999905,1.7164999999999964,1.921099999999626]",0,1,1,1,1,2 × 10 =,20,,,,,,,,,,,,,,,,,,,,,,,,,,,,,,,,,,,,,,,,,,,,,,,,,,,,,,,,,,,,,,,,,,,,,,,,,,,,,,,,,,,,,,,,,,,,,,,,,,,,,,,,,,,,,,,,,,,,,,,,,,,,,,,,,,,,,,,,,,,,,,,,,
,692323212348,CBA,09/09/2002,001,2023-04-03_11h28.53.768,OS3_Mult_verification,2022.2.4,Win32,144.6340758,,,,,,,,,,,,,,,,,,22,1.6635,1,"[""2"",""2"",""return""]","[1.0623999999999114,1.222399999999908,1.3883999999999048]",0,2,2,2,1,2 × 11 =,22,,,,,,,,,,,,,,,,,,,,,,,,,,,,,,,,,,,,,,,,,,,,,,,,,,,,,,,,,,,,,,,,,,,,,,,,,,,,,,,,,,,,,,,,,,,,,,,,,,,,,,,,,,,,,,,,,,,,,,,,,,,,,,,,,,,,,,,,,,,,,,,,,
,692323212348,CBA,09/09/2002,001,2023-04-03_11h28.53.768,OS3_Mult_verification,2022.2.4,Win32,144.6340758,,,,,,,,,,,,,,,,,,,,,,,,,,,,,,,,,,,,,,,,,,,,,,,,,,,,,,,,,,,,,,,,,,,,,,,,,,,,,,,,,,,,,,,,,,,,,,,,,,,,,,,,,,,,,,,,,,,,,,,,,,,,,,,,,,,,,,,,,,,,,,,,,,,,,,,,,,,,,,,,,,,,,,,,,,,,,,
,692323212348,CBA,09/09/2002,001,2023-04-03_11h28.53.768,OS3_Mult_verification,2022.2.4,Win32,144.6340758,,,,,,,,,,,,,,,,,,,,,,,,,,,,,,,,,,,,,,,,,,,,,,,,,,,,,,,,,,,,,,,,,,,,,,,,,,,,,,,,,,,,,,,,,,,,,,,,,,,,,,,,,,,,,,,,,,,,,,,,,,,,,,,,,,,,,,,,,,,,,,,,,,,,,,,,,,,,,,,,,,,,,,,,,,,,,,
,692323212348,CBA,09/09/2002,001,2023-04-03_11h28.53.768,OS3_Mult_verification,2022.2.4,Win32,144.6340758,,,,,,,,,,,,,,,,,,6,1.6662,1,"[""6"",""return""]","[1.2636999999997158,1.3951999999997042]",,,,,,2 × 3 =,6,0,0,0,0,1,,,,,,,,,,,,,,,,,,,,,,,,,,,,,,,,,,,,,,,,,,,,,,,,,,,,,,,,,,,,,,,,,,,,,,,,,,,,,,,,,,,,,,,,,,,,,,,,,,,,,,,,,,,,,,,,,,,,,,,,,,,,,,,,,,,,,,,,,,,,
,692323212348,CBA,09/09/2002,001,2023-04-03_11h28.53.768,OS3_Mult_verification,2022.2.4,Win32,144.6340758,,,,,,,,,,,,,,,,,,40,2.013,1,"[""4"",""0"",""return""]","[1.1606999999997072,1.5408999999999082,1.742099999999624]",,,,,,5 × 8 =,40,0,1,1,1,1,,,,,,,,,,,,,,,,,,,,,,,,,,,,,,,,,,,,,,,,,,,,,,,,,,,,,,,,,,,,,,,,,,,,,,,,,,,,,,,,,,,,,,,,,,,,,,,,,,,,,,,,,,,,,,,,,,,,,,,,,,,,,,,,,,,,,,,,,,,,
,692323212348,CBA,09/09/2002,001,2023-04-03_11h28.53.768,OS3_Mult_verification,2022.2.4,Win32,144.6340758,,,,,,,,,,,,,,,,,,12,1.5692,1,"[""1"",""2"",""return""]","[0.9088999999999032,1.1043000000002792,1.2978000000002794]",,,,,,3 × 4 =,12,0,2,2,2,1,,,,,,,,,,,,,,,,,,,,,,,,,,,,,,,,,,,,,,,,,,,,,,,,,,,,,,,,,,,,,,,,,,,,,,,,,,,,,,,,,,,,,,,,,,,,,,,,,,,,,,,,,,,,,,,,,,,,,,,,,,,,,,,,,,,,,,,,,,,,
,692323212348,CBA,09/09/2002,001,2023-04-03_11h28.53.768,OS3_Mult_verification,2022.2.4,Win32,144.6340758,,,,,,,,,,,,,,,,,,15,1.6448,1,"[""1"",""5"",""return""]","[0.811000000000007,1.1861000000000956,1.3738000000002728]",,,,,,5 × 3 =,15,0,3,3,3,1,,,,,,,,,,,,,,,,,,,,,,,,,,,,,,,,,,,,,,,,,,,,,,,,,,,,,,,,,,,,,,,,,,,,,,,,,,,,,,,,,,,,,,,,,,,,,,,,,,,,,,,,,,,,,,,,,,,,,,,,,,,,,,,,,,,,,,,,,,,,
,692323212348,CBA,09/09/2002,001,2023-04-03_11h28.53.768,OS3_Mult_verification,2022.2.4,Win32,144.6340758,,,,,,,,,,,,,,,,,,8,1.5966,1,"[""8"",""return""]","[1.1242000000002008,1.3249000000003832]",,,,,,2 × 4 =,8,0,4,4,4,1,,,,,,,,,,,,,,,,,,,,,,,,,,,,,,,,,,,,,,,,,,,,,,,,,,,,,,,,,,,,,,,,,,,,,,,,,,,,,,,,,,,,,,,,,,,,,,,,,,,,,,,,,,,,,,,,,,,,,,,,,,,,,,,,,,,,,,,,,,,,
,692323212348,CBA,09/09/2002,001,2023-04-03_11h28.53.768,OS3_Mult_verification,2022.2.4,Win32,144.6340758,,,,,,,,,,,,,,,,,,4,1.4022,1,"[""4"",""return""]","[0.9505000000000052,1.1306000000001006]",,,,,,2 × 2 =,4,0,5,5,5,1,,,,,,,,,,,,,,,,,,,,,,,,,,,,,,,,,,,,,,,,,,,,,,,,,,,,,,,,,,,,,,,,,,,,,,,,,,,,,,,,,,,,,,,,,,,,,,,,,,,,,,,,,,,,,,,,,,,,,,,,,,,,,,,,,,,,,,,,,,,,
,692323212348,CBA,09/09/2002,001,2023-04-03_11h28.53.768,OS3_Mult_verification,2022.2.4,Win32,144.6340758,,,,,,,,,,,,,,,,,,20,1.84,1,"[""2"",""0"",""return""]","[0.9301000000000954,1.3877000000001658,1.5684000000003664]",,,,,,4 × 5 =,20,0,6,6,6,1,,,,,,,,,,,,,,,,,,,,,,,,,,,,,,,,,,,,,,,,,,,,,,,,,,,,,,,,,,,,,,,,,,,,,,,,,,,,,,,,,,,,,,,,,,,,,,,,,,,,,,,,,,,,,,,,,,,,,,,,,,,,,,,,,,,,,,,,,,,,
,692323212348,CBA,09/09/2002,001,2023-04-03_11h28.53.768,OS3_Mult_verification,2022.2.4,Win32,144.6340758,,,,,,,,,,,,,,,,,,9,1.4642,1,"[""9"",""return""]","[0.9843999999999085,1.1926999999997463]",,,,,,3 × 3 =,9,0,7,7,7,1,,,,,,,,,,,,,,,,,,,,,,,,,,,,,,,,,,,,,,,,,,,,,,,,,,,,,,,,,,,,,,,,,,,,,,,,,,,,,,,,,,,,,,,,,,,,,,,,,,,,,,,,,,,,,,,,,,,,,,,,,,,,,,,,,,,,,,,,,,,,
,692323212348,CBA,09/09/2002,001,2023-04-03_11h28.53.768,OS3_Mult_verification,2022.2.4,Win32,144.6340758,,,,,,,,,,,,,,,,,,10,1.6159,1,"[""1"",""0"",""return""]","[0.7336000000000809,1.142499999999984,1.3502000000001715]",,,,,,5 × 2 =,10,0,8,8,8,1,,,,,,,,,,,,,,,,,,,,,,,,,,,,,,,,,,,,,,,,,,,,,,,,,,,,,,,,,,,,,,,,,,,,,,,,,,,,,,,,,,,,,,,,,,,,,,,,,,,,,,,,,,,,,,,,,,,,,,,,,,,,,,,,,,,,,,,,,,,,
,692323212348,CBA,09/09/2002,001,2023-04-03_11h28.53.768,OS3_Mult_verification,2022.2.4,Win32,144.6340758,,,,,,,,,,,,,,,,,,16,1.8829,1,"[""1"",""6"",""return""]","[0.8774000000003639,1.4376000000000886,1.611100000000107]",,,,,,4 × 4 =,16,0,9,9,9,1,,,,,,,,,,,,,,,,,,,,,,,,,,,,,,,,,,,,,,,,,,,,,,,,,,,,,,,,,,,,,,,,,,,,,,,,,,,,,,,,,,,,,,,,,,,,,,,,,,,,,,,,,,,,,,,,,,,,,,,,,,,,,,,,,,,,,,,,,,,,
,692323212348,CBA,09/09/2002,001,2023-04-03_11h28.53.768,OS3_Mult_verification,2022.2.4,Win32,144.6340758,,,,,,,,,,,,,,,,,,24,1.5591,1,"[""2"",""4"",""return""]","[0.8404999999999916,1.1144999999999925,1.2798999999998841]",,,,,,8 × 3 =,24,0,10,10,10,1,,,,,,,,,,,,,,,,,,,,,,,,,,,,,,,,,,,,,,,,,,,,,,,,,,,,,,,,,,,,,,,,,,,,,,,,,,,,,,,,,,,,,,,,,,,,,,,,,,,,,,,,,,,,,,,,,,,,,,,,,,,,,,,,,,,,,,,,,,,,
,692323212348,CBA,09/09/2002,001,2023-04-03_11h28.53.768,OS3_Mult_verification,2022.2.4,Win32,144.6340758,,,,,,,,,,,,,,,,,,30,1.7103,1,"[""3"",""0"",""return""]","[0.8472000000001856,1.2397999999998035,1.4375]",,,,,,6 × 5 =,30,0,11,11,11,1,,,,,,,,,,,,,,,,,,,,,,,,,,,,,,,,,,,,,,,,,,,,,,,,,,,,,,,,,,,,,,,,,,,,,,,,,,,,,,,,,,,,,,,,,,,,,,,,,,,,,,,,,,,,,,,,,,,,,,,,,,,,,,,,,,,,,,,,,,,,
,692323212348,CBA,09/09/2002,001,2023-04-03_11h28.53.768,OS3_Mult_verification,2022.2.4,Win32,144.6340758,,,,,,,,,,,,,,,,,,14,1.4687,1,"[""1"",""4"",""return""]","[0.6892999999998324,0.9788999999999248,1.1901999999997201]",,,,,,7 × 2 =,14,0,12,12,12,1,,,,,,,,,,,,,,,,,,,,,,,,,,,,,,,,,,,,,,,,,,,,,,,,,,,,,,,,,,,,,,,,,,,,,,,,,,,,,,,,,,,,,,,,,,,,,,,,,,,,,,,,,,,,,,,,,,,,,,,,,,,,,,,,,,,,,,,,,,,,
,692323212348,CBA,09/09/2002,001,2023-04-03_11h28.53.768,OS3_Mult_verification,2022.2.4,Win32,144.6340758,,,,,,,,,,,,,,,,,,27,1.9649,1,"[""2"",""7"",""return""]","[1.097699999999719,1.4802999999998008,1.691699999999713]",,,,,,3 × 9 =,27,0,13,13,13,1,,,,,,,,,,,,,,,,,,,,,,,,,,,,,,,,,,,,,,,,,,,,,,,,,,,,,,,,,,,,,,,,,,,,,,,,,,,,,,,,,,,,,,,,,,,,,,,,,,,,,,,,,,,,,,,,,,,,,,,,,,,,,,,,,,,,,,,,,,,,
,692323212348,CBA,09/09/2002,001,2023-04-03_11h28.53.768,OS3_Mult_verification,2022.2.4,Win32,144.6340758,,,,,,,,,,,,,,,,,,16,1.7631,1,"[""1"",""6"",""return""]","[0.9187000000001717,1.3394999999999868,1.4923999999998898]",,,,,,2 × 8 =,16,0,14,14,14,1,,,,,,,,,,,,,,,,,,,,,,,,,,,,,,,,,,,,,,,,,,,,,,,,,,,,,,,,,,,,,,,,,,,,,,,,,,,,,,,,,,,,,,,,,,,,,,,,,,,,,,,,,,,,,,,,,,,,,,,,,,,,,,,,,,,,,,,,,,,,
,692323212348,CBA,09/09/2002,001,2023-04-03_11h28.53.768,OS3_Mult_verification,2022.2.4,Win32,144.6340758,,,,,,,,,,,,,,,,,,24,1.8626,1,"[""2"",""4"",""return""]","[1.065700000000163,1.3071000000000765,1.5919999999999845]",,,,,,4 × 6 =,24,0,15,15,15,1,,,,,,,,,,,,,,,,,,,,,,,,,,,,,,,,,,,,,,,,,,,,,,,,,,,,,,,,,,,,,,,,,,,,,,,,,,,,,,,,,,,,,,,,,,,,,,,,,,,,,,,,,,,,,,,,,,,,,,,,,,,,,,,,,,,,,,,,,,,,
,692323212348,CBA,09/09/2002,001,2023-04-03_11h28.53.768,OS3_Mult_verification,2022.2.4,Win32,144.6340758,,,,,,,,,,,,,,,,,,21,1.5273,1,"[""2"",""1"",""return""]","[0.8743999999999232,1.0682000000001892,1.2558000000002778]",,,,,,7 × 3 =,21,0,16,16,16,1,,,,,,,,,,,,,,,,,,,,,,,,,,,,,,,,,,,,,,,,,,,,,,,,,,,,,,,,,,,,,,,,,,,,,,,,,,,,,,,,,,,,,,,,,,,,,,,,,,,,,,,,,,,,,,,,,,,,,,,,,,,,,,,,,,,,,,,,,,,,
,692323212348,CBA,09/09/2002,001,2023-04-03_11h28.53.768,OS3_Mult_verification,2022.2.4,Win32,144.6340758,,,,,,,,,,,,,,,,,,27,1.7007,1,"[""2"",""7"",""return""]","[0.8464999999999918,1.2839999999999918,1.4297999999998012]",,,,,,9 × 3 =,27,0,17,17,17,1,,,,,,,,,,,,,,,,,,,,,,,,,,,,,,,,,,,,,,,,,,,,,,,,,,,,,,,,,,,,,,,,,,,,,,,,,,,,,,,,,,,,,,,,,,,,,,,,,,,,,,,,,,,,,,,,,,,,,,,,,,,,,,,,,,,,,,,,,,,,
,692323212348,CBA,09/09/2002,001,2023-04-03_11h28.53.768,OS3_Mult_verification,2022.2.4,Win32,144.6340758,,,,,,,,,,,,,,,,,,28,2.256,1,"[""2"",""8"",""return""]","[1.4087000000001808,1.846700000000169,1.98599999999999]",,,,,,4 × 7 =,28,0,18,18,18,1,,,,,,,,,,,,,,,,,,,,,,,,,,,,,,,,,,,,,,,,,,,,,,,,,,,,,,,,,,,,,,,,,,,,,,,,,,,,,,,,,,,,,,,,,,,,,,,,,,,,,,,,,,,,,,,,,,,,,,,,,,,,,,,,,,,,,,,,,,,,
,692323212348,CBA,09/09/2002,001,2023-04-03_11h28.53.768,OS3_Mult_verification,2022.2.4,Win32,144.6340758,,,,,,,,,,,,,,,,,,18,2.072,1,"[""1"",""8"",""return""]","[1.1848000000002799,1.5949000000003934,1.7954000000003703]",,,,,,2 × 9 =,18,0,19,19,19,1,,,,,,,,,,,,,,,,,,,,,,,,,,,,,,,,,,,,,,,,,,,,,,,,,,,,,,,,,,,,,,,,,,,,,,,,,,,,,,,,,,,,,,,,,,,,,,,,,,,,,,,,,,,,,,,,,,,,,,,,,,,,,,,,,,,,,,,,,,,,
,692323212348,CBA,09/09/2002,001,2023-04-03_11h28.53.768,OS3_Mult_verification,2022.2.4,Win32,144.6340758,,,,,,,,,,,,,,,,,,72,2.2028,1,"[""7"",""2"",""return""]","[1.3629000000003657,1.7821000000001277,1.9309000000004062]",,,,,,9 × 8 =,72,0,20,20,20,1,,,,,,,,,,,,,,,,,,,,,,,,,,,,,,,,,,,,,,,,,,,,,,,,,,,,,,,,,,,,,,,,,,,,,,,,,,,,,,,,,,,,,,,,,,,,,,,,,,,,,,,,,,,,,,,,,,,,,,,,,,,,,,,,,,,,,,,,,,,,
,692323212348,CBA,09/09/2002,001,2023-04-03_11h28.53.768,OS3_Mult_verification,2022.2.4,Win32,144.6340758,,,,,,,,,,,,,,,,,,42,1.9157,1,"[""4"",""2"",""return""]","[1.2510000000000332,1.4457999999997924,1.6471999999997138]",,,,,,7 × 6 =,42,0,21,21,21,1,,,,,,,,,,,,,,,,,,,,,,,,,,,,,,,,,,,,,,,,,,,,,,,,,,,,,,,,,,,,,,,,,,,,,,,,,,,,,,,,,,,,,,,,,,,,,,,,,,,,,,,,,,,,,,,,,,,,,,,,,,,,,,,,,,,,,,,,,,,,
,692323212348,CBA,09/09/2002,001,2023-04-03_11h28.53.768,OS3_Mult_verification,2022.2.4,Win32,144.6340758,,,,,,,,,,,,,,,,,,54,2.0688,1,"[""5"",""4"",""return""]","[1.450100000000134,1.60289999999992,1.7972000000002026]",,,,,,6 × 9 =,54,0,22,22,22,1,,,,,,,,,,,,,,,,,,,,,,,,,,,,,,,,,,,,,,,,,,,,,,,,,,,,,,,,,,,,,,,,,,,,,,,,,,,,,,,,,,,,,,,,,,,,,,,,,,,,,,,,,,,,,,,,,,,,,,,,,,,,,,,,,,,,,,,,,,,,
,692323212348,CBA,09/09/2002,001,2023-04-03_11h28.53.768,OS3_Mult_verification,2022.2.4,Win32,144.6340758,,,,,,,,,,,,,,,,,,45,2.1244,1,"[""4"",""5"",""return""]","[1.2202000000001476,1.6298999999999069,1.852100000000064]",,,,,,9 × 5 =,45,0,23,23,23,1,,,,,,,,,,,,,,,,,,,,,,,,,,,,,,,,,,,,,,,,,,,,,,,,,,,,,,,,,,,,,,,,,,,,,,,,,,,,,,,,,,,,,,,,,,,,,,,,,,,,,,,,,,,,,,,,,,,,,,,,,,,,,,,,,,,,,,,,,,,,
,692323212348,CBA,09/09/2002,001,2023-04-03_11h28.53.768,OS3_Mult_verification,2022.2.4,Win32,144.6340758,,,,,,,,,,,,,,,,,,56,5.3044,1,"[""8"",""backspace"",""5"",""6"",""return""]","[1.4364999999999668,2.6171000000001072,4.69360000000006,4.860900000000356,5.033200000000193]",,,,,,8 × 7 =,56,0,24,24,24,1,,,,,,,,,,,,,,,,,,,,,,,,,,,,,,,,,,,,,,,,,,,,,,,,,,,,,,,,,,,,,,,,,,,,,,,,,,,,,,,,,,,,,,,,,,,,,,,,,,,,,,,,,,,,,,,,,,,,,,,,,,,,,,,,,,,,,,,,,,,,
,692323212348,CBA,09/09/2002,001,2023-04-03_11h28.53.768,OS3_Mult_verification,2022.2.4,Win32,144.6340758,,,,,,,,,,,,,,,,,,36,2.1352,1,"[""3"",""6"",""return""]","[1.2382999999998106,1.7293999999999414,1.861200000000224]",,,,,,6 × 6 =,36,0,25,25,25,1,,,,,,,,,,,,,,,,,,,,,,,,,,,,,,,,,,,,,,,,,,,,,,,,,,,,,,,,,,,,,,,,,,,,,,,,,,,,,,,,,,,,,,,,,,,,,,,,,,,,,,,,,,,,,,,,,,,,,,,,,,,,,,,,,,,,,,,,,,,,
,692323212348,CBA,09/09/2002,001,2023-04-03_11h28.53.768,OS3_Mult_verification,2022.2.4,Win32,144.6340758,,,,,,,,,,,,,,,,,,35,1.6779,1,"[""3"",""5"",""return""]","[1.0294999999999845,1.2781000000001086,1.4056000000001063]",,,,,,5 × 7 =,35,0,26,26,26,1,,,,,,,,,,,,,,,,,,,,,,,,,,,,,,,,,,,,,,,,,,,,,,,,,,,,,,,,,,,,,,,,,,,,,,,,,,,,,,,,,,,,,,,,,,,,,,,,,,,,,,,,,,,,,,,,,,,,,,,,,,,,,,,,,,,,,,,,,,,,
,692323212348,CBA,09/09/2002,001,2023-04-03_11h28.53.768,OS3_Mult_verification,2022.2.4,Win32,144.6340758,,,,,,,,,,,,,,,,,,36,2.388,1,"[""3"",""6"",""return""]","[1.611299999999801,1.9397000000001867,2.115600000000086]",,,,,,4 × 9 =,36,0,27,27,27,1,,,,,,,,,,,,,,,,,,,,,,,,,,,,,,,,,,,,,,,,,,,,,,,,,,,,,,,,,,,,,,,,,,,,,,,,,,,,,,,,,,,,,,,,,,,,,,,,,,,,,,,,,,,,,,,,,,,,,,,,,,,,,,,,,,,,,,,,,,,,
,692323212348,CBA,09/09/2002,001,2023-04-03_11h28.53.768,OS3_Mult_verification,2022.2.4,Win32,144.6340758,,,,,,,,,,,,,,,,,,48,2.2296,1,"[""4"",""8"",""return""]","[1.406799999999805,1.7775999999996088,1.9583999999998696]",,,,,,8 × 6 =,48,0,28,28,28,1,,,,,,,,,,,,,,,,,,,,,,,,,,,,,,,,,,,,,,,,,,,,,,,,,,,,,,,,,,,,,,,,,,,,,,,,,,,,,,,,,,,,,,,,,,,,,,,,,,,,,,,,,,,,,,,,,,,,,,,,,,,,,,,,,,,,,,,,,,,,
,692323212348,CBA,09/09/2002,001,2023-04-03_11h28.53.768,OS3_Mult_verification,2022.2.4,Win32,144.6340758,,,,,,,,,,,,,,,,,,63,2.2628,1,"[""6"",""3"",""return""]","[1.0979000000003225,1.8198000000002708,1.993800000000249]",,,,,,9 × 7 =,63,0,29,29,29,1,,,,,,,,,,,,,,,,,,,,,,,,,,,,,,,,,,,,,,,,,,,,,,,,,,,,,,,,,,,,,,,,,,,,,,,,,,,,,,,,,,,,,,,,,,,,,,,,,,,,,,,,,,,,,,,,,,,,,,,,,,,,,,,,,,,,,,,,,,,,
,692323212348,CBA,09/09/2002,001,2023-04-03_11h28.53.768,OS3_Mult_verification,2022.2.4,Win32,144.6340758,,,,,,,,,,,,,,,,,,12,1.2956,1,"[""1"",""2"",""return""]","[0.7425000000000068,0.8888000000002876,1.027700000000209]",,,,,,4 × 3 =,12,0,30,30,30,1,,,,,,,,,,,,,,,,,,,,,,,,,,,,,,,,,,,,,,,,,,,,,,,,,,,,,,,,,,,,,,,,,,,,,,,,,,,,,,,,,,,,,,,,,,,,,,,,,,,,,,,,,,,,,,,,,,,,,,,,,,,,,,,,,,,,,,,,,,,,
,692323212348,CBA,09/09/2002,001,2023-04-03_11h28.53.768,OS3_Mult_verification,2022.2.4,Win32,144.6340758,,,,,,,,,,,,,,,,,,25,2.1451,1,"[""2"",""5"",""return""]","[1.132000000000005,1.675899999999956,1.8745000000000118]",,,,,,5 × 5 =,25,0,31,31,31,1,,,,,,,,,,,,,,,,,,,,,,,,,,,,,,,,,,,,,,,,,,,,,,,,,,,,,,,,,,,,,,,,,,,,,,,,,,,,,,,,,,,,,,,,,,,,,,,,,,,,,,,,,,,,,,,,,,,,,,,,,,,,,,,,,,,,,,,,,,,,
,692323212348,CBA,09/09/2002,001,2023-04-03_11h28.53.768,OS3_Mult_verification,2022.2.4,Win32,144.6340758,,,,,,,,,,,,,,,,,,6,1.7061,1,"[""6"",""return""]","[1.2433999999998946,1.435300000000268]",,,,,,3 × 2 =,6,0,32,32,32,1,,,,,,,,,,,,,,,,,,,,,,,,,,,,,,,,,,,,,,,,,,,,,,,,,,,,,,,,,,,,,,,,,,,,,,,,,,,,,,,,,,,,,,,,,,,,,,,,,,,,,,,,,,,,,,,,,,,,,,,,,,,,,,,,,,,,,,,,,,,,
,692323212348,CBA,09/09/2002,001,2023-04-03_11h28.53.768,OS3_Mult_verification,2022.2.4,Win32,144.6340758,,,,,,,,,,,,,,,,,,20,1.8121,1,"[""2"",""0"",""return""]","[0.8682999999998628,1.3341000000000918,1.5417999999998528]",,,,,,5 × 4 =,20,0,33,33,33,1,,,,,,,,,,,,,,,,,,,,,,,,,,,,,,,,,,,,,,,,,,,,,,,,,,,,,,,,,,,,,,,,,,,,,,,,,,,,,,,,,,,,,,,,,,,,,,,,,,,,,,,,,,,,,,,,,,,,,,,,,,,,,,,,,,,,,,,,,,,,
,692323212348,CBA,09/09/2002,001,2023-04-03_11h28.53.768,OS3_Mult_verification,2022.2.4,Win32,144.6340758,,,,,,,,,,,,,,,,,,8,1.4179,1,"[""8"",""return""]","[1.0028999999998973,1.146299999999826]",,,,,,4 × 2 =,8,0,34,34,34,1,,,,,,,,,,,,,,,,,,,,,,,,,,,,,,,,,,,,,,,,,,,,,,,,,,,,,,,,,,,,,,,,,,,,,,,,,,,,,,,,,,,,,,,,,,,,,,,,,,,,,,,,,,,,,,,,,,,,,,,,,,,,,,,,,,,,,,,,,,,,
,692323212348,CBA,09/09/2002,001,2023-04-03_11h28.53.768,OS3_Mult_verification,2022.2.4,Win32,144.6340758,,,,,,,,,,,,,,,,,,12,1.5044,1,"[""1"",""2"",""return""]","[0.8722999999998251,1.0478999999999132,1.2364999999999782]",,,,,,2 × 6 =,12,0,35,35,35,1,,,,,,,,,,,,,,,,,,,,,,,,,,,,,,,,,,,,,,,,,,,,,,,,,,,,,,,,,,,,,,,,,,,,,,,,,,,,,,,,,,,,,,,,,,,,,,,,,,,,,,,,,,,,,,,,,,,,,,,,,,,,,,,,,,,,,,,,,,,,
,692323212348,CBA,09/09/2002,001,2023-04-03_11h28.53.768,OS3_Mult_verification,2022.2.4,Win32,144.6340758,,,,,,,,,,,,,,,,,,15,1.5057,1,"[""1"",""5"",""return""]","[0.7641000000000986,1.1043999999999414,1.2360000000000468]",,,,,,3 × 5 =,15,0,36,36,36,1,,,,,,,,,,,,,,,,,,,,,,,,,,,,,,,,,,,,,,,,,,,,,,,,,,,,,,,,,,,,,,,,,,,,,,,,,,,,,,,,,,,,,,,,,,,,,,,,,,,,,,,,,,,,,,,,,,,,,,,,,,,,,,,,,,,,,,,,,,,,
,692323212348,CBA,09/09/2002,001,2023-04-03_11h28.53.768,OS3_Mult_verification,2022.2.4,Win32,144.6340758,,,,,,,,,,,,,,,,,,18,1.5317,1,"[""1"",""8"",""return""]","[0.7018999999999096,1.1391000000000986,1.2588000000002921]",,,,,,6 × 3 =,18,0,37,37,37,1,,,,,,,,,,,,,,,,,,,,,,,,,,,,,,,,,,,,,,,,,,,,,,,,,,,,,,,,,,,,,,,,,,,,,,,,,,,,,,,,,,,,,,,,,,,,,,,,,,,,,,,,,,,,,,,,,,,,,,,,,,,,,,,,,,,,,,,,,,,,
,692323212348,CBA,09/09/2002,001,2023-04-03_11h28.53.768,OS3_Mult_verification,2022.2.4,Win32,144.6340758,,,,,,,,,,,,,,,,,,10,1.4971,1,"[""1"",""0"",""return""]","[0.6835999999996147,1.0713999999998691,1.223899999999901]",,,,,,2 × 5 =,10,0,38,38,38,1,,,,,,,,,,,,,,,,,,,,,,,,,,,,,,,,,,,,,,,,,,,,,,,,,,,,,,,,,,,,,,,,,,,,,,,,,,,,,,,,,,,,,,,,,,,,,,,,,,,,,,,,,,,,,,,,,,,,,,,,,,,,,,,,,,,,,,,,,,,,
,692323212348,CBA,09/09/2002,001,2023-04-03_11h28.53.768,OS3_Mult_verification,2022.2.4,Win32,144.6340758,,,,,,,,,,,,,,,,,,32,2.2423,1,"[""3"",""2"",""return""]","[1.6342999999997687,1.8346999999997138,1.9688999999999055]",,,,,,4 × 8 =,32,0,39,39,39,1,,,,,,,,,,,,,,,,,,,,,,,,,,,,,,,,,,,,,,,,,,,,,,,,,,,,,,,,,,,,,,,,,,,,,,,,,,,,,,,,,,,,,,,,,,,,,,,,,,,,,,,,,,,,,,,,,,,,,,,,,,,,,,,,,,,,,,,,,,,,
,692323212348,CBA,09/09/2002,001,2023-04-03_11h28.53.768,OS3_Mult_verification,2022.2.4,Win32,144.6340758,,,,,,,,,,,,,,,,,,24,2.0827,1,"[""2"",""4"",""return""]","[1.4504999999999768,1.6727999999998246,1.8120999999996457]",,,,,,3 × 8 =,24,0,40,40,40,1,,,,,,,,,,,,,,,,,,,,,,,,,,,,,,,,,,,,,,,,,,,,,,,,,,,,,,,,,,,,,,,,,,,,,,,,,,,,,,,,,,,,,,,,,,,,,,,,,,,,,,,,,,,,,,,,,,,,,,,,,,,,,,,,,,,,,,,,,,,,
,692323212348,CBA,09/09/2002,001,2023-04-03_11h28.53.768,OS3_Mult_verification,2022.2.4,Win32,144.6340758,,,,,,,,,,,,,,,,,,30,1.6869,1,"[""3"",""0"",""return""]","[0.8446000000000708,1.2553000000002612,1.4144999999999754]",,,,,,5 × 6 =,30,0,41,41,41,1,,,,,,,,,,,,,,,,,,,,,,,,,,,,,,,,,,,,,,,,,,,,,,,,,,,,,,,,,,,,,,,,,,,,,,,,,,,,,,,,,,,,,,,,,,,,,,,,,,,,,,,,,,,,,,,,,,,,,,,,,,,,,,,,,,,,,,,,,,,,
,692323212348,CBA,09/09/2002,001,2023-04-03_11h28.53.768,OS3_Mult_verification,2022.2.4,Win32,144.6340758,,,,,,,,,,,,,,,,,,1,1.4923,0,"[""1"",""return""]","[0.7412999999997965,1.2214999999999918]",,,,,,2 × 7 =,14,0,42,42,42,1,,,,,,,,,,,,,,,,,,,,,,,,,,,,,,,,,,,,,,,,,,,,,,,,,,,,,,,,,,,,,,,,,,,,,,,,,,,,,,,,,,,,,,,,,,,,,,,,,,,,,,,,,,,,,,,,,,,,,,,,,,,,,,,,,,,,,,,,,,,,
,692323212348,CBA,09/09/2002,001,2023-04-03_11h28.53.768,OS3_Mult_verification,2022.2.4,Win32,144.6340758,,,,,,,,,,,,,,,,,,24,2.0202,1,"[""2"",""4"",""return""]","[1.0827000000002158,1.4712999999998146,1.7498999999999114]",,,,,,6 × 4 =,24,0,43,43,43,1,,,,,,,,,,,,,,,,,,,,,,,,,,,,,,,,,,,,,,,,,,,,,,,,,,,,,,,,,,,,,,,,,,,,,,,,,,,,,,,,,,,,,,,,,,,,,,,,,,,,,,,,,,,,,,,,,,,,,,,,,,,,,,,,,,,,,,,,,,,,
,692323212348,CBA,09/09/2002,001,2023-04-03_11h28.53.768,OS3_Mult_verification,2022.2.4,Win32,144.6340758,,,,,,,,,,,,,,,,,,21,1.4647,1,"[""2"",""1"",""return""]","[0.9232999999998128,1.0203999999998814,1.1931000000000722]",,,,,,3 × 7 =,21,0,44,44,44,1,,,,,,,,,,,,,,,,,,,,,,,,,,,,,,,,,,,,,,,,,,,,,,,,,,,,,,,,,,,,,,,,,,,,,,,,,,,,,,,,,,,,,,,,,,,,,,,,,,,,,,,,,,,,,,,,,,,,,,,,,,,,,,,,,,,,,,,,,,,,
,692323212348,CBA,09/09/2002,001,2023-04-03_11h28.53.768,OS3_Mult_verification,2022.2.4,Win32,144.6340758,,,,,,,,,,,,,,,,,,81,1.8119,1,"[""8"",""1"",""return""]","[0.991399999999885,1.28289999999987,1.5467999999997915]",,,,,,9 × 9 =,81,0,45,45,45,1,,,,,,,,,,,,,,,,,,,,,,,,,,,,,,,,,,,,,,,,,,,,,,,,,,,,,,,,,,,,,,,,,,,,,,,,,,,,,,,,,,,,,,,,,,,,,,,,,,,,,,,,,,,,,,,,,,,,,,,,,,,,,,,,,,,,,,,,,,,,
,692323212348,CBA,09/09/2002,001,2023-04-03_11h28.53.768,OS3_Mult_verification,2022.2.4,Win32,144.6340758,,,,,,,,,,,,,,,,,,16,1.6869,1,"[""1"",""6"",""return""]","[0.8121999999997342,1.24189999999993,1.4152999999998315]",,,,,,8 × 2 =,16,0,46,46,46,1,,,,,,,,,,,,,,,,,,,,,,,,,,,,,,,,,,,,,,,,,,,,,,,,,,,,,,,,,,,,,,,,,,,,,,,,,,,,,,,,,,,,,,,,,,,,,,,,,,,,,,,,,,,,,,,,,,,,,,,,,,,,,,,,,,,,,,,,,,,,
,692323212348,CBA,09/09/2002,001,2023-04-03_11h28.53.768,OS3_Mult_verification,2022.2.4,Win32,144.6340758,,,,,,,,,,,,,,,,,,4,2.1453,0,"[""4""]",[1.485199999999736],,,,,,6 × 8 =,48,0,47,47,47,1,,,,,,,,,,,,,,,,,,,,,,,,,,,,,,,,,,,,,,,,,,,,,,,,,,,,,,,,,,,,,,,,,,,,,,,,,,,,,,,,,,,,,,,,,,,,,,,,,,,,,,,,,,,,,,,,,,,,,,,,,,,,,,,,,,,,,,,,,,,,
,692323212348,CBA,09/09/2002,001,2023-04-03_11h28.53.768,OS3_Mult_verification,2022.2.4,Win32,144.6340758,,,,,,,,,,,,,,,,space,2.1964,,,,,,,,,,,,,,,,,,space,6.9341,911,1.3832,1,"[""9"",""1"",""1"",""return""]","[0.4961999999997033,0.6831999999997151,0.8482999999997674,1.360499999999945]",0,0,0,2,1,3,911,Audio/911.mp3,practice,,,,,,,,,,,,,,,,,,,,,,,,,,,,,,,,,,,,,,,,,,,,,,,,,,,,,,,,,,,,,,,,,,,,,,,,,,,,,,,,,,,,,,,,,,,,,,,,,,,,,,,,,,,,,,,,,,,,,,,,,,,,
,692323212348,CBA,09/09/2002,001,2023-04-03_11h28.53.768,OS3_Mult_verification,2022.2.4,Win32,144.6340758,,,,,,,,,,,,,,,,,,,,,,,,,,,,,,,,,,,,,123,0.8719,1,"[""1"",""2"",""3"",""return""]","[0.3338000000002239,0.44480000000027076,0.5582000000001699,0.8519999999999754]",0,1,1,0,1,3,123,Audio/123.mp3,practice,,,,,,,,,,,,,,,,,,,,,,,,,,,,,,,,,,,,,,,,,,,,,,,,,,,,,,,,,,,,,,,,,,,,,,,,,,,,,,,,,,,,,,,,,,,,,,,,,,,,,,,,,,,,,,,,,,,,,,,,,,,,
,692323212348,CBA,09/09/2002,001,2023-04-03_11h28.53.768,OS3_Mult_verification,2022.2.4,Win32,144.6340758,,,,,,,,,,,,,,,,,,,,,,,,,,,,,,,,,,,,,321,0.8576,1,"[""3"",""2"",""1"",""return""]","[0.353999999999985,0.40250000000003183,0.5068999999999164,0.8343999999999028]",0,2,2,1,1,3,321,Audio/321.mp3,practice,,,,,,,,,,,,,,,,,,,,,,,,,,,,,,,,,,,,,,,,,,,,,,,,,,,,,,,,,,,,,,,,,,,,,,,,,,,,,,,,,,,,,,,,,,,,,,,,,,,,,,,,,,,,,,,,,,,,,,,,,,,,
,692323212348,CBA,09/09/2002,001,2023-04-03_11h28.53.768,OS3_Mult_verification,2022.2.4,Win32,144.6340758,,,,,,,,,,,,,,,,,,,,,,,,,,,,,,,,,,,,,97,2.1827,1,"[""9"",""7"",""return""]","[1.4633999999999219,1.8745000000000118,2.166999999999973]",,,,,,2,97,Audio/97.mp3,WAIS,0,0,0,0,1,,,,,,,,,,,,,,,,,,,,,,,,,,,,,,,,,,,,,,,,,,,,,,,,,,,,,,,,,,,,,,,,,,,,,,,,,,,,,,,,,,,,,,,,,,,,,,,,,,,,,,,,,,,,,,,,,,,,,,,
,692323212348,CBA,09/09/2002,001,2023-04-03_11h28.53.768,OS3_Mult_verification,2022.2.4,Win32,144.6340758,,,,,,,,,,,,,,,,,,,,,,,,,,,,,,,,,,,,,63,1.0459,1,"[""6"",""3"",""return""]","[0.41409999999967795,0.5766999999997324,1.0280999999996538]",,,,,,2,63,Audio/63.mp3,WAIS,0,1,1,1,1,,,,,,,,,,,,,,,,,,,,,,,,,,,,,,,,,,,,,,,,,,,,,,,,,,,,,,,,,,,,,,,,,,,,,,,,,,,,,,,,,,,,,,,,,,,,,,,,,,,,,,,,,,,,,,,,,,,,,,,
,692323212348,CBA,09/09/2002,001,2023-04-03_11h28.53.768,OS3_Mult_verification,2022.2.4,Win32,144.6340758,,,,,,,,,,,,,,,,,,,,,,,,,,,,,,,,,,,,,,,,,,,,,,,,,,,,,,,,0,0,0,0,1,digitSpan_stim/twoWAIS.xlsx,,,,,,,,,,,,,,,,,,,,,,,,,,,,,,,,,,,,,,,,,,,,,,,,,,,,,,,,,,,,,,,,,,,,,,,,,,,,,,,,,,,,,,,,,,,,,,,,,,,,,,,,,,,,,,,,,
,692323212348,CBA,09/09/2002,001,2023-04-03_11h28.53.768,OS3_Mult_verification,2022.2.4,Win32,144.6340758,,,,,,,,,,,,,,,,,,,,,,,,,,,,,,,,,,,,,582,0.9161,1,"[""5"",""8"",""2"",""return""]","[0.3544000000003962,0.5101000000000795,0.6738000000002557,0.9026000000000636]",,,,,,3,582,Audio/582.mp3,WAIS,0,0,0,0,1,,,,,,,,,,,,,,,,,,,,,,,,,,,,,,,,,,,,,,,,,,,,,,,,,,,,,,,,,,,,,,,,,,,,,,,,,,,,,,,,,,,,,,,,,,,,,,,,,,,,,,,,,,,,,,,,,,,,,,,
,692323212348,CBA,09/09/2002,001,2023-04-03_11h28.53.768,OS3_Mult_verification,2022.2.4,Win32,144.6340758,,,,,,,,,,,,,,,,,,,,,,,,,,,,,,,,,,,,,694,1.7772,1,"[""6"",""9"",""2"",""backspace"",""4"",""return""]","[0.30320000000017444,0.5528000000002748,0.8077000000001817,1.3998000000002548,1.6113000000002557,1.7641000000000986]",,,,,,3,694,Audio/694.mp3,WAIS,0,1,1,1,1,,,,,,,,,,,,,,,,,,,,,,,,,,,,,,,,,,,,,,,,,,,,,,,,,,,,,,,,,,,,,,,,,,,,,,,,,,,,,,,,,,,,,,,,,,,,,,,,,,,,,,,,,,,,,,,,,,,,,,,
,692323212348,CBA,09/09/2002,001,2023-04-03_11h28.53.768,OS3_Mult_verification,2022.2.4,Win32,144.6340758,,,,,,,,,,,,,,,,,,,,,,,,,,,,,,,,,,,,,,,,,,,,,,,,,,,,,,,,0,1,1,1,1,digitSpan_stim/threeWAIS.xlsx,,,,,,,,,,,,,,,,,,,,,,,,,,,,,,,,,,,,,,,,,,,,,,,,,,,,,,,,,,,,,,,,,,,,,,,,,,,,,,,,,,,,,,,,,,,,,,,,,,,,,,,,,,,,,,,,,
,692323212348,CBA,09/09/2002,001,2023-04-03_11h28.53.768,OS3_Mult_verification,2022.2.4,Win32,144.6340758,,,,,,,,,,,,,,,,,,,,,,,,,,,,,,,,,,,,,7286,1.7584,1,"[""7"",""2"",""8"",""6"",""return""]","[0.6700000000000159,0.8773999999999091,1.1661000000000854,1.4511000000001104,1.7450000000000045]",,,,,,4,7286,Audio/7286.mp3,WAIS,0,0,0,0,1,,,,,,,,,,,,,,,,,,,,,,,,,,,,,,,,,,,,,,,,,,,,,,,,,,,,,,,,,,,,,,,,,,,,,,,,,,,,,,,,,,,,,,,,,,,,,,,,,,,,,,,,,,,,,,,,,,,,,,,
,692323212348,CBA,09/09/2002,001,2023-04-03_11h28.53.768,OS3_Mult_verification,2022.2.4,Win32,144.6340758,,,,,,,,,,,,,,,,,,,,,,,,,,,,,,,,,,,,,6439,1.7632,1,"[""6"",""4"",""3"",""9"",""return""]","[0.5392000000002213,0.821100000000115,1.0348000000003026,1.4449000000003593,1.7451000000000931]",,,,,,4,6439,Audio/6439.mp3,WAIS,0,1,1,1,1,,,,,,,,,,,,,,,,,,,,,,,,,,,,,,,,,,,,,,,,,,,,,,,,,,,,,,,,,,,,,,,,,,,,,,,,,,,,,,,,,,,,,,,,,,,,,,,,,,,,,,,,,,,,,,,,,,,,,,,
,692323212348,CBA,09/09/2002,001,2023-04-03_11h28.53.768,OS3_Mult_verification,2022.2.4,Win32,144.6340758,,,,,,,,,,,,,,,,,,,,,,,,,,,,,,,,,,,,,,,,,,,,,,,,,,,,,,,,0,2,2,2,1,digitSpan_stim/fourWAIS.xlsx,,,,,,,,,,,,,,,,,,,,,,,,,,,,,,,,,,,,,,,,,,,,,,,,,,,,,,,,,,,,,,,,,,,,,,,,,,,,,,,,,,,,,,,,,,,,,,,,,,,,,,,,,,,,,,,,,
,692323212348,CBA,09/09/2002,001,2023-04-03_11h28.53.768,OS3_Mult_verification,2022.2.4,Win32,144.6340758,,,,,,,,,,,,,,,,,,,,,,,,,,,,,,,,,,,,,42731,2.3039,1,"[""4"",""2"",""7"",""3"",""1"",""return""]","[0.46729999999979555,0.7440000000000282,1.175399999999911,1.8002000000001885,1.9787999999998078,2.285799999999824]",,,,,,5,42731,Audio/42731.mp3,WAIS,0,0,0,0,1,,,,,,,,,,,,,,,,,,,,,,,,,,,,,,,,,,,,,,,,,,,,,,,,,,,,,,,,,,,,,,,,,,,,,,,,,,,,,,,,,,,,,,,,,,,,,,,,,,,,,,,,,,,,,,,,,,,,,,,
,692323212348,CBA,09/09/2002,001,2023-04-03_11h28.53.768,OS3_Mult_verification,2022.2.4,Win32,144.6340758,,,,,,,,,,,,,,,,,,,,,,,,,,,,,,,,,,,,,75836,2.8464,1,"[""7"",""5"",""8"",""3"",""6"",""return""]","[0.7743999999999005,1.0788999999999191,1.6045999999996639,2.1848999999999137,2.506799999999828,2.830500000000029]",,,,,,5,75836,Audio/75836.mp3,WAIS,0,1,1,1,1,,,,,,,,,,,,,,,,,,,,,,,,,,,,,,,,,,,,,,,,,,,,,,,,,,,,,,,,,,,,,,,,,,,,,,,,,,,,,,,,,,,,,,,,,,,,,,,,,,,,,,,,,,,,,,,,,,,,,,,
,692323212348,CBA,09/09/2002,001,2023-04-03_11h28.53.768,OS3_Mult_verification,2022.2.4,Win32,144.6340758,,,,,,,,,,,,,,,,,,,,,,,,,,,,,,,,,,,,,,,,,,,,,,,,,,,,,,,,0,3,3,3,1,digitSpan_stim/fiveWAIS.xlsx,,,,,,,,,,,,,,,,,,,,,,,,,,,,,,,,,,,,,,,,,,,,,,,,,,,,,,,,,,,,,,,,,,,,,,,,,,,,,,,,,,,,,,,,,,,,,,,,,,,,,,,,,,,,,,,,,
,692323212348,CBA,09/09/2002,001,2023-04-03_11h28.53.768,OS3_Mult_verification,2022.2.4,Win32,144.6340758,,,,,,,,,,,,,,,,,,,,,,,,,,,,,,,,,,,,,392487,3.5197,1,"[""3"",""9"",""2"",""4"",""8"",""7"",""return""]","[1.0348999999999364,1.4658000000002858,2.1601000000001136,2.5481000000000904,2.895700000000204,3.118200000000172,3.5061000000001172]",,,,,,6,392487,Audio/392487.mp3,WAIS,0,0,0,0,1,,,,,,,,,,,,,,,,,,,,,,,,,,,,,,,,,,,,,,,,,,,,,,,,,,,,,,,,,,,,,,,,,,,,,,,,,,,,,,,,,,,,,,,,,,,,,,,,,,,,,,,,,,,,,,,,,,,,,,,
,692323212348,CBA,09/09/2002,001,2023-04-03_11h28.53.768,OS3_Mult_verification,2022.2.4,Win32,144.6340758,,,,,,,,,,,,,,,,,,,,,,,,,,,,,,,,,,,,,619473,4.4128,1,"[""6"",""1"",""9"",""4"",""7"",""3"",""return""]","[1.1014999999999873,2.222799999999836,2.598000000000013,2.9992999999998347,3.5178999999998837,3.7649999999999864,4.392299999999807]",,,,,,6,619473,Audio/619473.mp3,WAIS,0,1,1,1,1,,,,,,,,,,,,,,,,,,,,,,,,,,,,,,,,,,,,,,,,,,,,,,,,,,,,,,,,,,,,,,,,,,,,,,,,,,,,,,,,,,,,,,,,,,,,,,,,,,,,,,,,,,,,,,,,,,,,,,,
,692323212348,CBA,09/09/2002,001,2023-04-03_11h28.53.768,OS3_Mult_verification,2022.2.4,Win32,144.6340758,,,,,,,,,,,,,,,,,,,,,,,,,,,,,,,,,,,,,,,,,,,,,,,,,,,,,,,,0,4,4,4,1,digitSpan_stim/sixWAIS.xlsx,,,,,,,,,,,,,,,,,,,,,,,,,,,,,,,,,,,,,,,,,,,,,,,,,,,,,,,,,,,,,,,,,,,,,,,,,,,,,,,,,,,,,,,,,,,,,,,,,,,,,,,,,,,,,,,,,
,692323212348,CBA,09/09/2002,001,2023-04-03_11h28.53.768,OS3_Mult_verification,2022.2.4,Win32,144.6340758,,,,,,,,,,,,,,,,,,,,,,,,,,,,,,,,,,,,,6917428,4.0181,1,"[""6"",""9"",""1"",""7"",""4"",""2"",""8"",""return""]","[0.8218000000002803,1.347500000000025,1.6598000000003026,2.1609000000003675,2.548700000000167,2.942600000000084,3.5691000000001054,3.9974000000003684]",,,,,,7,6917428,Audio/6917428.mp3,WAIS,0,0,0,0,1,,,,,,,,,,,,,,,,,,,,,,,,,,,,,,,,,,,,,,,,,,,,,,,,,,,,,,,,,,,,,,,,,,,,,,,,,,,,,,,,,,,,,,,,,,,,,,,,,,,,,,,,,,,,,,,,,,,,,,,
,692323212348,CBA,09/09/2002,001,2023-04-03_11h28.53.768,OS3_Mult_verification,2022.2.4,Win32,144.6340758,,,,,,,,,,,,,,,,,,,,,,,,,,,,,,,,,,,,,4179386,3.8594,1,"[""4"",""1"",""7"",""9"",""3"",""8"",""6"",""return""]","[1.0774999999999864,1.4241000000000668,1.9441999999996824,2.3549999999999613,2.8072999999997705,3.172799999999768,3.4712999999998146,3.846199999999669]",,,,,,7,4179386,Audio/4179386.mp3,WAIS,0,1,1,1,1,,,,,,,,,,,,,,,,,,,,,,,,,,,,,,,,,,,,,,,,,,,,,,,,,,,,,,,,,,,,,,,,,,,,,,,,,,,,,,,,,,,,,,,,,,,,,,,,,,,,,,,,,,,,,,,,,,,,,,,
,692323212348,CBA,09/09/2002,001,2023-04-03_11h28.53.768,OS3_Mult_verification,2022.2.4,Win32,144.6340758,,,,,,,,,,,,,,,,,,,,,,,,,,,,,,,,,,,,,,,,,,,,,,,,,,,,,,,,0,5,5,5,1,digitSpan_stim/sevenWAIS.xlsx,,,,,,,,,,,,,,,,,,,,,,,,,,,,,,,,,,,,,,,,,,,,,,,,,,,,,,,,,,,,,,,,,,,,,,,,,,,,,,,,,,,,,,,,,,,,,,,,,,,,,,,,,,,,,,,,,
,692323212348,CBA,09/09/2002,001,2023-04-03_11h28.53.768,OS3_Mult_verification,2022.2.4,Win32,144.6340758,,,,,,,,,,,,,,,,,,,,,,,,,,,,,,,,,,,,,38296174,6.339,1,"[""3"",""8"",""2"",""9"",""6"",""1"",""7"",""4"",""return""]","[0.48649999999997817,0.8959999999999582,1.1535000000000082,1.5357999999997674,2.083799999999769,5.298700000000167,5.68039999999985,6.027799999999843,6.325899999999933]",,,,,,8,38296174,Audio/38296174.mp3,WAIS,0,0,0,0,1,,,,,,,,,,,,,,,,,,,,,,,,,,,,,,,,,,,,,,,,,,,,,,,,,,,,,,,,,,,,,,,,,,,,,,,,,,,,,,,,,,,,,,,,,,,,,,,,,,,,,,,,,,,,,,,,,,,,,,,
,692323212348,CBA,09/09/2002,001,2023-04-03_11h28.53.768,OS3_Mult_verification,2022.2.4,Win32,144.6340758,,,,,,,,,,,,,,,,,,,,,,,,,,,,,,,,,,,,,58132467,7.2959,0,"[""5"",""8"",""1"",""3"",""2"",""4"",""6"",""7"",""return""]","[1.1397999999998092,2.0497999999997774,2.508399999999938,4.918000000000006,5.366700000000151,5.61099999999999,6.733600000000138,6.943499999999972,7.277000000000044]",,,,,,8,58132647,Audio/58132647.mp3,WAIS,0,1,1,1,1,,,,,,,,,,,,,,,,,,,,,,,,,,,,,,,,,,,,,,,,,,,,,,,,,,,,,,,,,,,,,,,,,,,,,,,,,,,,,,,,,,,,,,,,,,,,,,,,,,,,,,,,,,,,,,,,,,,,,,,
,692323212348,CBA,09/09/2002,001,2023-04-03_11h28.53.768,OS3_Mult_verification,2022.2.4,Win32,144.6340758,,,,,,,,,,,,,,,,,,,,,,,,,,,,,,,,,,,,,,,,,,,,,,,,,,,,,,,,0,6,6,6,1,digitSpan_stim/eightWAIS.xlsx,,,,,,,,,,,,,,,,,,,,,,,,,,,,,,,,,,,,,,,,,,,,,,,,,,,,,,,,,,,,,,,,,,,,,,,,,,,,,,,,,,,,,,,,,,,,,,,,,,,,,,,,,,,,,,,,,
,692323212348,CBA,09/09/2002,001,2023-04-03_11h28.53.768,OS3_Mult_verification,2022.2.4,Win32,144.6340758,,,,,,,,,,,,,,,,,,,,,,,,,,,,,,,,,,,,,275863194,6.0083,1,"[""2"",""7"",""5"",""8"",""6"",""3"",""1"",""9"",""4"",""return""]","[0.4977999999998701,0.8067999999998392,1.0721999999997252,1.66050000000007,2.5316999999997734,2.8683999999999514,3.314899999999966,4.860699999999724,5.2630999999996675,5.991699999999696]",,,,,,9,275863194,Audio/275863194.mp3,WAIS,0,0,0,0,1,,,,,,,,,,,,,,,,,,,,,,,,,,,,,,,,,,,,,,,,,,,,,,,,,,,,,,,,,,,,,,,,,,,,,,,,,,,,,,,,,,,,,,,,,,,,,,,,,,,,,,,,,,,,,,,,,,,,,,,
,692323212348,CBA,09/09/2002,001,2023-04-03_11h28.53.768,OS3_Mult_verification,2022.2.4,Win32,144.6340758,,,,,,,,,,,,,,,,,,,,,,,,,,,,,,,,,,,,,71394268,5.4362,0,"[""7"",""1"",""3"",""9"",""4"",""2"",""6"",""8"",""return""]","[0.4923999999998614,0.9861999999997124,2.67349999999999,3.037299999999732,4.041599999999562,4.340199999999641,4.638499999999908,5.01439999999991,5.423199999999724]",,,,,,9,713942568,Audio/713942568.mp3,WAIS,0,1,1,1,1,,,,,,,,,,,,,,,,,,,,,,,,,,,,,,,,,,,,,,,,,,,,,,,,,,,,,,,,,,,,,,,,,,,,,,,,,,,,,,,,,,,,,,,,,,,,,,,,,,,,,,,,,,,,,,,,,,,,,,,
,692323212348,CBA,09/09/2002,001,2023-04-03_11h28.53.768,OS3_Mult_verification,2022.2.4,Win32,144.6340758,,,,,,,,,,,,,,,,,,,,,,,,,,,,,,,,,,,,,,,,,,,,,,,,,,,,,,,,0,7,7,7,1,digitSpan_stim/nineWAIS.xlsx,,,,,,,,,,,,,,,,,,,,,,,,,,,,,,,,,,,,,,,,,,,,,,,,,,,,,,,,,,,,,,,,,,,,,,,,,,,,,,,,,,,,,,,,,,,,,,,,,,,,,,,,,,,,,,,,,
,692323212348,CBA,09/09/2002,001,2023-04-03_11h28.53.768,OS3_Mult_verification,2022.2.4,Win32,144.6340758,,,,,,,,,,,,,,,,,,,,,,,,,,,,,,,,,,,,,,,,,,,,,,,WAIS,,,,,,,,,,,,,,,0,0,0,1,1,digitSpan_stim/WAIS.xlsx,,,,,,,,,,,,,,,,,,,,,,,,,,,,,,,,,,,,,,,,,,,,,,,,,,,,,,,,,,,,,,,,,,,,,,,,,,,,,,,,,,,,,,,,,,,,,,,,,,,,,,,,,,,
,692323212348,CBA,09/09/2002,001,2023-04-03_11h28.53.768,OS3_Mult_verification,2022.2.4,Win32,144.6340758,,,,,,,,,,,,,,,,,,,,,,,,,,,,,,,,,,,,,46,1.0044,1,"[""4"",""6"",""return""]","[0.38279999999974734,0.7233999999998559,0.9867999999997892]",,,,,,2,46,Audio/46.mp3,EGNER,0,0,0,0,1,,,,,,,,,,,,,,,,,,,,,,,,,,,,,,,,,,,,,,,,,,,,,,,,,,,,,,,,,,,,,,,,,,,,,,,,,,,,,,,,,,,,,,,,,,,,,,,,,,,,,,,,,,,,,,,,,,,,,,,
,692323212348,CBA,09/09/2002,001,2023-04-03_11h28.53.768,OS3_Mult_verification,2022.2.4,Win32,144.6340758,,,,,,,,,,,,,,,,,,,,,,,,,,,,,,,,,,,,,82,0.8956,1,"[""8"",""2"",""return""]","[0.32650000000001,0.6254999999999882,0.8819999999999482]",,,,,,2,82,Audio/82.mp3,EGNER,0,1,1,1,1,,,,,,,,,,,,,,,,,,,,,,,,,,,,,,,,,,,,,,,,,,,,,,,,,,,,,,,,,,,,,,,,,,,,,,,,,,,,,,,,,,,,,,,,,,,,,,,,,,,,,,,,,,,,,,,,,,,,,,,
,692323212348,CBA,09/09/2002,001,2023-04-03_11h28.53.768,OS3_Mult_verification,2022.2.4,Win32,144.6340758,,,,,,,,,,,,,,,,,,,,,,,,,,,,,,,,,,,,,,,,,,,,,,,,,,,,,,,,0,0,0,0,1,digitSpan_stim/twoAudio.xlsx,,,,,,,,,,,,,,,,,,,,,,,,,,,,,,,,,,,,,,,,,,,,,,,,,,,,,,,,,,,,,,,,,,,,,,,,,,,,,,,,,,,,,,,,,,,,,,,,,,,,,,,,,,,,,,,,,
,692323212348,CBA,09/09/2002,001,2023-04-03_11h28.53.768,OS3_Mult_verification,2022.2.4,Win32,144.6340758,,,,,,,,,,,,,,,,,,,,,,,,,,,,,,,,,,,,,157,1.3191,1,"[""1"",""5"",""7"",""return""]","[0.3818999999998596,0.7291999999996506,1.0493999999998778,1.3053999999998496]",,,,,,3,157,Audio/157.mp3,EGNER,0,0,0,0,1,,,,,,,,,,,,,,,,,,,,,,,,,,,,,,,,,,,,,,,,,,,,,,,,,,,,,,,,,,,,,,,,,,,,,,,,,,,,,,,,,,,,,,,,,,,,,,,,,,,,,,,,,,,,,,,,,,,,,,,
,692323212348,CBA,09/09/2002,001,2023-04-03_11h28.53.768,OS3_Mult_verification,2022.2.4,Win32,144.6340758,,,,,,,,,,,,,,,,,,,,,,,,,,,,,,,,,,,,,397,1.3826,1,"[""3"",""9"",""7"",""return""]","[0.6141999999997552,0.7473999999999705,1.0225000000000364,1.363399999999956]",,,,,,3,397,Audio/397.mp3,EGNER,0,1,1,1,1,,,,,,,,,,,,,,,,,,,,,,,,,,,,,,,,,,,,,,,,,,,,,,,,,,,,,,,,,,,,,,,,,,,,,,,,,,,,,,,,,,,,,,,,,,,,,,,,,,,,,,,,,,,,,,,,,,,,,,,
,692323212348,CBA,09/09/2002,001,2023-04-03_11h28.53.768,OS3_Mult_verification,2022.2.4,Win32,144.6340758,,,,,,,,,,,,,,,,,,,,,,,,,,,,,,,,,,,,,,,,,,,,,,,,,,,,,,,,0,1,1,1,1,digitSpan_stim/threeAudio.xlsx,,,,,,,,,,,,,,,,,,,,,,,,,,,,,,,,,,,,,,,,,,,,,,,,,,,,,,,,,,,,,,,,,,,,,,,,,,,,,,,,,,,,,,,,,,,,,,,,,,,,,,,,,,,,,,,,,
,692323212348,CBA,09/09/2002,001,2023-04-03_11h28.53.768,OS3_Mult_verification,2022.2.4,Win32,144.6340758,,,,,,,,,,,,,,,,,,,,,,,,,,,,,,,,,,,,,6352,2.3962,1,"[""6"",""3"",""5"",""2"",""return""]","[0.47950000000003,0.6665999999996757,0.8745000000000118,2.1118999999998778,2.383299999999849]",,,,,,4,6352,Audio/6352.mp3,EGNER,0,0,0,0,1,,,,,,,,,,,,,,,,,,,,,,,,,,,,,,,,,,,,,,,,,,,,,,,,,,,,,,,,,,,,,,,,,,,,,,,,,,,,,,,,,,,,,,,,,,,,,,,,,,,,,,,,,,,,,,,,,,,,,,,
,692323212348,CBA,09/09/2002,001,2023-04-03_11h28.53.768,OS3_Mult_verification,2022.2.4,Win32,144.6340758,,,,,,,,,,,,,,,,,,,,,,,,,,,,,,,,,,,,,9184,2.1778,1,"[""9"",""1"",""8"",""4"",""return""]","[0.4657000000001972,0.9142000000001644,1.3629999999999427,1.8753000000002658,2.159700000000157]",,,,,,4,9184,Audio/9184.mp3,EGNER,0,1,1,1,1,,,,,,,,,,,,,,,,,,,,,,,,,,,,,,,,,,,,,,,,,,,,,,,,,,,,,,,,,,,,,,,,,,,,,,,,,,,,,,,,,,,,,,,,,,,,,,,,,,,,,,,,,,,,,,,,,,,,,,,
,692323212348,CBA,09/09/2002,001,2023-04-03_11h28.53.768,OS3_Mult_verification,2022.2.4,Win32,144.6340758,,,,,,,,,,,,,,,,,,,,,,,,,,,,,,,,,,,,,,,,,,,,,,,,,,,,,,,,0,2,2,2,1,digitSpan_stim/fourAudio.xlsx,,,,,,,,,,,,,,,,,,,,,,,,,,,,,,,,,,,,,,,,,,,,,,,,,,,,,,,,,,,,,,,,,,,,,,,,,,,,,,,,,,,,,,,,,,,,,,,,,,,,,,,,,,,,,,,,,
,692323212348,CBA,09/09/2002,001,2023-04-03_11h28.53.768,OS3_Mult_verification,2022.2.4,Win32,144.6340758,,,,,,,,,,,,,,,,,,,,,,,,,,,,,,,,,,,,,59281,2.3763,1,"[""5"",""9"",""2"",""8"",""1"",""return""]","[0.4069000000002916,0.6599999999999682,0.8579999999999472,1.4307000000001153,1.6882000000001653,2.354700000000207]",,,,,,5,59281,Audio/59281.mp3,EGNER,0,0,0,0,1,,,,,,,,,,,,,,,,,,,,,,,,,,,,,,,,,,,,,,,,,,,,,,,,,,,,,,,,,,,,,,,,,,,,,,,,,,,,,,,,,,,,,,,,,,,,,,,,,,,,,,,,,,,,,,,,,,,,,,,
,692323212348,CBA,09/09/2002,001,2023-04-03_11h28.53.768,OS3_Mult_verification,2022.2.4,Win32,144.6340758,,,,,,,,,,,,,,,,,,,,,,,,,,,,,,,,,,,,,64738,4.0824,1,"[""6"",""4"",""7"",""3"",""8"",""return""]","[1.7163999999999078,1.9945999999995365,2.7995999999996,3.0696999999996706,3.4309999999999263,4.06939999999986]",,,,,,5,64738,Audio/64738.mp3,EGNER,0,1,1,1,1,,,,,,,,,,,,,,,,,,,,,,,,,,,,,,,,,,,,,,,,,,,,,,,,,,,,,,,,,,,,,,,,,,,,,,,,,,,,,,,,,,,,,,,,,,,,,,,,,,,,,,,,,,,,,,,,,,,,,,,
,692323212348,CBA,09/09/2002,001,2023-04-03_11h28.53.768,OS3_Mult_verification,2022.2.4,Win32,144.6340758,,,,,,,,,,,,,,,,,,,,,,,,,,,,,,,,,,,,,,,,,,,,,,,,,,,,,,,,0,3,3,3,1,digitSpan_stim/fiveAudio.xlsx,,,,,,,,,,,,,,,,,,,,,,,,,,,,,,,,,,,,,,,,,,,,,,,,,,,,,,,,,,,,,,,,,,,,,,,,,,,,,,,,,,,,,,,,,,,,,,,,,,,,,,,,,,,,,,,,,
,692323212348,CBA,09/09/2002,001,2023-04-03_11h28.53.768,OS3_Mult_verification,2022.2.4,Win32,144.6340758,,,,,,,,,,,,,,,,,,,,,,,,,,,,,,,,,,,,,396172,5.5866,1,"[""3"",""9"",""6"",""1"",""7"",""2"",""return""]","[2.107699999999795,2.576299999999833,3.0629000000000133,3.9311999999997624,4.603799999999865,4.95150000000001,5.566199999999753]",,,,,,6,396172,Audio/396172.mp3,EGNER,0,0,0,0,1,,,,,,,,,,,,,,,,,,,,,,,,,,,,,,,,,,,,,,,,,,,,,,,,,,,,,,,,,,,,,,,,,,,,,,,,,,,,,,,,,,,,,,,,,,,,,,,,,,,,,,,,,,,,,,,,,,,,,,,
,692323212348,CBA,09/09/2002,001,2023-04-03_11h28.53.768,OS3_Mult_verification,2022.2.4,Win32,144.6340758,,,,,,,,,,,,,,,,,,,,,,,,,,,,,,,,,,,,,594631,6.9715,1,"[""5"",""9"",""3"",""backspace"",""4"",""6"",""3"",""1"",""return""]","[2.0426000000001068,2.493799999999851,3.0623999999999114,3.66700000000003,4.083500000000072,5.951000000000022,6.317900000000009,6.5407999999998765,6.9577999999999065]",,,,,,6,594631,Audio/594631.mp3,EGNER,0,1,1,1,1,,,,,,,,,,,,,,,,,,,,,,,,,,,,,,,,,,,,,,,,,,,,,,,,,,,,,,,,,,,,,,,,,,,,,,,,,,,,,,,,,,,,,,,,,,,,,,,,,,,,,,,,,,,,,,,,,,,,,,,
,692323212348,CBA,09/09/2002,001,2023-04-03_11h28.53.768,OS3_Mult_verification,2022.2.4,Win32,144.6340758,,,,,,,,,,,,,,,,,,,,,,,,,,,,,,,,,,,,,,,,,,,,,,,,,,,,,,,,0,4,4,4,1,digitSpan_stim/sixAudio.xlsx,,,,,,,,,,,,,,,,,,,,,,,,,,,,,,,,,,,,,,,,,,,,,,,,,,,,,,,,,,,,,,,,,,,,,,,,,,,,,,,,,,,,,,,,,,,,,,,,,,,,,,,,,,,,,,,,,
,692323212348,CBA,09/09/2002,001,2023-04-03_11h28.53.768,OS3_Mult_verification,2022.2.4,Win32,144.6340758,,,,,,,,,,,,,,,,,,,,,,,,,,,,,,,,,,,,,8241973,5.9068,1,"[""8"",""2"",""4"",""1"",""9"",""7"",""3"",""return""]","[1.9943999999999278,2.4257999999998674,2.842699999999809,3.8141999999998006,4.758500000000026,5.057399999999916,5.474299999999857,5.891399999999976]",,,,,,7,8241973,Audio/8241973.mp3,EGNER,0,0,0,0,1,,,,,,,,,,,,,,,,,,,,,,,,,,,,,,,,,,,,,,,,,,,,,,,,,,,,,,,,,,,,,,,,,,,,,,,,,,,,,,,,,,,,,,,,,,,,,,,,,,,,,,,,,,,,,,,,,,,,,,,
,692323212348,CBA,09/09/2002,001,2023-04-03_11h28.53.768,OS3_Mult_verification,2022.2.4,Win32,144.6340758,,,,,,,,,,,,,,,,,,,,,,,,,,,,,,,,,,,,,2814367,5.7771,1,"[""2"",""8"",""1"",""4"",""3"",""6"",""7"",""return""]","[1.4595000000000482,2.087899999999877,3.2027999999997974,3.8807999999997946,4.159999999999968,4.735699999999724,5.076199999999744,5.763500000000022]",,,,,,7,2814367,Audio/2814367.mp3,EGNER,0,1,1,1,1,,,,,,,,,,,,,,,,,,,,,,,,,,,,,,,,,,,,,,,,,,,,,,,,,,,,,,,,,,,,,,,,,,,,,,,,,,,,,,,,,,,,,,,,,,,,,,,,,,,,,,,,,,,,,,,,,,,,,,,
,692323212348,CBA,09/09/2002,001,2023-04-03_11h28.53.768,OS3_Mult_verification,2022.2.4,Win32,144.6340758,,,,,,,,,,,,,,,,,,,,,,,,,,,,,,,,,,,,,,,,,,,,,,,,,,,,,,,,0,5,5,5,1,digitSpan_stim/sevenAudio.xlsx,,,,,,,,,,,,,,,,,,,,,,,,,,,,,,,,,,,,,,,,,,,,,,,,,,,,,,,,,,,,,,,,,,,,,,,,,,,,,,,,,,,,,,,,,,,,,,,,,,,,,,,,,,,,,,,,,
,692323212348,CBA,09/09/2002,001,2023-04-03_11h28.53.768,OS3_Mult_verification,2022.2.4,Win32,144.6340758,,,,,,,,,,,,,,,,,,,,,,,,,,,,,,,,,,,,,53827164,7.5775,1,"[""5"",""3"",""8"",""2"",""7"",""1"",""6"",""4"",""return""]","[1.2883999999999105,1.646600000000035,2.3125,4.325399999999831,4.977499999999964,6.2299999999999045,6.811200000000099,7.149000000000001,7.5562000000001035]",,,,,,8,53827164,Audio/53827164.mp3,EGNER,0,0,0,0,1,,,,,,,,,,,,,,,,,,,,,,,,,,,,,,,,,,,,,,,,,,,,,,,,,,,,,,,,,,,,,,,,,,,,,,,,,,,,,,,,,,,,,,,,,,,,,,,,,,,,,,,,,,,,,,,,,,,,,,,
,692323212348,CBA,09/09/2002,001,2023-04-03_11h28.53.768,OS3_Mult_verification,2022.2.4,Win32,144.6340758,,,,,,,,,,,,,,,,,,,,,,,,,,,,,,,,,,,,,75241739,8.0222,1,"[""7"",""5"",""2"",""4"",""1"",""7"",""3"",""9"",""return""]","[1.515399999999886,2.3476000000000568,3.3536000000000286,4.633399999999938,6.000699999999711,6.83989999999983,7.1957999999997355,7.646799999999757,8.007699999999659]",,,,,,8,75241739,Audio/75241739.mp3,EGNER,0,1,1,1,1,,,,,,,,,,,,,,,,,,,,,,,,,,,,,,,,,,,,,,,,,,,,,,,,,,,,,,,,,,,,,,,,,,,,,,,,,,,,,,,,,,,,,,,,,,,,,,,,,,,,,,,,,,,,,,,,,,,,,,,
,692323212348,CBA,09/09/2002,001,2023-04-03_11h28.53.768,OS3_Mult_verification,2022.2.4,Win32,144.6340758,,,,,,,,,,,,,,,,,,,,,,,,,,,,,,,,,,,,,,,,,,,,,,,,,,,,,,,,0,6,6,6,1,digitSpan_stim/eightAudio.xlsx,,,,,,,,,,,,,,,,,,,,,,,,,,,,,,,,,,,,,,,,,,,,,,,,,,,,,,,,,,,,,,,,,,,,,,,,,,,,,,,,,,,,,,,,,,,,,,,,,,,,,,,,,,,,,,,,,
,692323212348,CBA,09/09/2002,001,2023-04-03_11h28.53.768,OS3_Mult_verification,2022.2.4,Win32,144.6340758,,,,,,,,,,,,,,,,,,,,,,,,,,,,,,,,,,,,,682594316,8.4664,1,"[""6"",""8"",""2"",""5"",""9"",""4"",""3"",""1"",""6"",""return""]","[3.722700000000259,4.007200000000239,4.388799999999833,4.881799999999885,5.458100000000172,6.041200000000231,6.882600000000139,7.47160000000008,8.063700000000267,8.447700000000168]",,,,,,9,682594316,Audio/682594316.mp3,EGNER,0,0,0,0,1,,,,,,,,,,,,,,,,,,,,,,,,,,,,,,,,,,,,,,,,,,,,,,,,,,,,,,,,,,,,,,,,,,,,,,,,,,,,,,,,,,,,,,,,,,,,,,,,,,,,,,,,,,,,,,,,,,,,,,,
,692323212348,CBA,09/09/2002,001,2023-04-03_11h28.53.768,OS3_Mult_verification,2022.2.4,Win32,144.6340758,,,,,,,,,,,,,,,,,,,,,,,,,,,,,,,,,,,,,142963758,8.4107,1,"[""1"",""4"",""2"",""9"",""6"",""3"",""7"",""5"",""8"",""return""]","[3.944200000000137,4.409600000000069,4.70150000000001,5.230300000000284,5.666500000000042,6.038800000000265,6.707899999999881,7.034200000000169,7.742200000000139,8.395600000000059]",,,,,,9,142963758,Audio/142963758.mp3,EGNER,0,1,1,1,1,,,,,,,,,,,,,,,,,,,,,,,,,,,,,,,,,,,,,,,,,,,,,,,,,,,,,,,,,,,,,,,,,,,,,,,,,,,,,,,,,,,,,,,,,,,,,,,,,,,,,,,,,,,,,,,,,,,,,,,
,692323212348,CBA,09/09/2002,001,2023-04-03_11h28.53.768,OS3_Mult_verification,2022.2.4,Win32,144.6340758,,,,,,,,,,,,,,,,,,,,,,,,,,,,,,,,,,,,,,,,,,,,,,,,,,,,,,,,0,7,7,7,1,digitSpan_stim/nineAudio.xlsx,,,,,,,,,,,,,,,,,,,,,,,,,,,,,,,,,,,,,,,,,,,,,,,,,,,,,,,,,,,,,,,,,,,,,,,,,,,,,,,,,,,,,,,,,,,,,,,,,,,,,,,,,,,,,,,,,
,692323212348,CBA,09/09/2002,001,2023-04-03_11h28.53.768,OS3_Mult_verification,2022.2.4,Win32,144.6340758,,,,,,,,,,,,,,,,,,,,,,,,,,,,,,,,,,,,,,,,,,,,,,,Egner,,,,,,,,,,,,,,,0,1,1,0,1,digitSpan_stim/Egner.xlsx,,,,,,,,,,,,,,,,,,,,,,,,,,,,,,,,,,,,,,,,,,,,,,,,,,,,,,,,,,,,,,,,,,,,,,,,,,,,,,,,,,,,,,,,,,,,,,,,,,,,,,,,,,,
,692323212348,CBA,09/09/2002,001,2023-04-03_11h28.53.768,OS3_Mult_verification,2022.2.4,Win32,144.6340758,,,,,,,,,,,,,,,,,,,,,,,,,,,,,,,,,,,,,,,,,,,,,,,,,,,,,,,,,,,,,,,,,,,,0,0,0,0,1,,,,,,,,,,,,,,,,,,,,,,,,,,,,,,,,,,,,,,,,,,,,,,,,,,,,,,,,,,,,,,,,,,,,,,,,,,,,,,,,,,,,,,,,,,,,,,,,,,,,,,
,692323212348,CBA,09/09/2002,001,2023-04-03_11h28.53.768,OS3_Mult_verification,2022.2.4,Win32,144.6340758,,,,,,,,,,,,,,,,,,,,,,,,,,,,,,,,,,,,,,,,,,,,,,,,,,,,,,,,,,,,,,,,,,,,,,,,,0,0,0,0,1,0,0,1,,,,,,,,,,,,,,,,,,,,,,,,,,,,,,,,,,,,,,,,,,,,,,,,,,,,,,,,,,,,,,,,,,,,,,,,,,,,,,,,,,,,,,,,,,,,,,
,692323212348,CBA,09/09/2002,001,2023-04-03_11h28.53.768,OS3_Mult_verification,2022.2.4,Win32,144.6340758,,,,,,,,,,,,,,,,space,1.4371,,,,,,,,,,,,,,,,,,,,,,,,,,,,,,,,,,,,,,,,,,,,,,,,,,,,,,,,,,,,,,,,FALSE,5.4399,-0.018518519,-0.344444487,1,0,0,0,0,0,1,1,practice trial,,3,3,,,,,,,,,,,,,,,,,,,,,,,,,,,,,,,,,,,,,,,,,,,,,,,,,,,,,,,,,,,,,,,,,,,,,,,,,,,,,,
,692323212348,CBA,09/09/2002,001,2023-04-03_11h28.53.768,OS3_Mult_verification,2022.2.4,Win32,144.6340758,,,,,,,,,,,,,,,,,,,,,,,,,,,,,,,,,,,,,,,,,,,,,,,,,,,,,,,,,,,,,,,,,,,,,,,,,,,,,,,,,TRUE,1.7496,0.037037037,-0.365740741,1,0,0,0,1,1,2,1,practice trial,,3,3,,,,,,,,,,,,,,,,,,,,,,,,,,,,,,,,,,,,,,,,,,,,,,,,,,,,,,,,,,,,,,,,,,,,,,,,,,,,,,
,692323212348,CBA,09/09/2002,001,2023-04-03_11h28.53.768,OS3_Mult_verification,2022.2.4,Win32,144.6340758,,,,,,,,,,,,,,,,,,,,,,,,,,,,,,,,,,,,,,,,,,,,,,,,,,,,,,,,,,,,,,,,,,,,,,,,,,,,,,,,,TRUE,1.7216,0.036111125,-0.347222222,1,0,0,0,2,2,0,1,practice trial,,3,3,,,,,,,,,,,,,,,,,,,,,,,,,,,,,,,,,,,,,,,,,,,,,,,,,,,,,,,,,,,,,,,,,,,,,,,,,,,,,,
,692323212348,CBA,09/09/2002,001,2023-04-03_11h28.53.768,OS3_Mult_verification,2022.2.4,Win32,144.6340758,,,,,,,,,,,,,,,,,,,,,,,,,,,,,,,,,,,,,,,,,,,,,,,,,,,,,,,,,,,,,,,,,,,,,,,,,,,,,,,,,TRUE,1.1731,-0.013888889,-0.334259245,1,0,0,,,,,,Trial #1,,2,2,0,0,0,0,1,2,,,,,,,,,,,,,,,,,,,,,,,,,,,,,,,,,,,,,,,,,,,,,,,,,,,,,,,,,,,,,,,,,,,,,,,,
,692323212348,CBA,09/09/2002,001,2023-04-03_11h28.53.768,OS3_Mult_verification,2022.2.4,Win32,144.6340758,,,,,,,,,,,,,,,,,,,,,,,,,,,,,,,,,,,,,,,,,,,,,,,,,,,,,,,,,,,,,,,,,,,,,,,,,,,,,,,,,TRUE,1.056,0.00462963,-0.338888875,1,0,0,,,,,,Trial #1,,2,2,0,1,1,1,1,2,,,,,,,,,,,,,,,,,,,,,,,,,,,,,,,,,,,,,,,,,,,,,,,,,,,,,,,,,,,,,,,,,,,,,,,,
,692323212348,CBA,09/09/2002,001,2023-04-03_11h28.53.768,OS3_Mult_verification,2022.2.4,Win32,144.6340758,,,,,,,,,,,,,,,,,,,,,,,,,,,,,,,,,,,,,,,,,,,,,,,,,,,,,,,,,,,,,,,,,,,,,,,,,,,,,,,,,TRUE,0.9237,-0.033333319,-0.312037079,1,0,0,,,,,,Trial #1,,2,2,0,2,2,2,1,2,,,,,,,,,,,,,,,,,,,,,,,,,,,,,,,,,,,,,,,,,,,,,,,,,,,,,,,,,,,,,,,,,,,,,,,,
,692323212348,CBA,09/09/2002,001,2023-04-03_11h28.53.768,OS3_Mult_verification,2022.2.4,Win32,144.6340758,,,,,,,,,,,,,,,,,,,,,,,,,,,,,,,,,,,,,,,,,,,,,,,,,,,,,,,,,,,,,,,,,,,,,,,,,,,,,,,,,TRUE,1.3092,0,-0.336111139,1,0,0,,,,,,Trial #2,,3,3,0,0,0,0,1,3,,,,,,,,,,,,,,,,,,,,,,,,,,,,,,,,,,,,,,,,,,,,,,,,,,,,,,,,,,,,,,,,,,,,,,,,
,692323212348,CBA,09/09/2002,001,2023-04-03_11h28.53.768,OS3_Mult_verification,2022.2.4,Win32,144.6340758,,,,,,,,,,,,,,,,,,,,,,,,,,,,,,,,,,,,,,,,,,,,,,,,,,,,,,,,,,,,,,,,,,,,,,,,,,,,,,,,,TRUE,1.4563,0.003703718,-0.327777792,1,0,0,,,,,,Trial #2,,3,3,0,1,1,1,1,3,,,,,,,,,,,,,,,,,,,,,,,,,,,,,,,,,,,,,,,,,,,,,,,,,,,,,,,,,,,,,,,,,,,,,,,,
,692323212348,CBA,09/09/2002,001,2023-04-03_11h28.53.768,OS3_Mult_verification,2022.2.4,Win32,144.6340758,,,,,,,,,,,,,,,,,,,,,,,,,,,,,,,,,,,,,,,,,,,,,,,,,,,,,,,,,,,,,,,,,,,,,,,,,,,,,,,,,TRUE,1.8696,-0.005555541,-0.364814829,1,0,0,,,,,,Trial #2,,3,3,0,2,2,2,1,3,,,,,,,,,,,,,,,,,,,,,,,,,,,,,,,,,,,,,,,,,,,,,,,,,,,,,,,,,,,,,,,,,,,,,,,,
,692323212348,CBA,09/09/2002,001,2023-04-03_11h28.53.768,OS3_Mult_verification,2022.2.4,Win32,144.6340758,,,,,,,,,,,,,,,,,,,,,,,,,,,,,,,,,,,,,,,,,,,,,,,,,,,,,,,,,,,,,,,,,,,,,,,,,,,,,,,,,TRUE,1.7808,0.034259302,-0.35092594,1,0,0,,,,,,Trial #3,,3,3,0,0,0,0,1,4,,,,,,,,,,,,,,,,,,,,,,,,,,,,,,,,,,,,,,,,,,,,,,,,,,,,,,,,,,,,,,,,,,,,,,,,
,692323212348,CBA,09/09/2002,001,2023-04-03_11h28.53.768,OS3_Mult_verification,2022.2.4,Win32,144.6340758,,,,,,,,,,,,,,,,,,,,,,,,,,,,,,,,,,,,,,,,,,,,,,,,,,,,,,,,,,,,,,,,,,,,,,,,,,,,,,,,,TRUE,1.8406,-0.04351849,-0.337962963,1,0,0,,,,,,Trial #3,,3,3,0,1,1,1,1,4,,,,,,,,,,,,,,,,,,,,,,,,,,,,,,,,,,,,,,,,,,,,,,,,,,,,,,,,,,,,,,,,,,,,,,,,
,692323212348,CBA,09/09/2002,001,2023-04-03_11h28.53.768,OS3_Mult_verification,2022.2.4,Win32,144.6340758,,,,,,,,,,,,,,,,,,,,,,,,,,,,,,,,,,,,,,,,,,,,,,,,,,,,,,,,,,,,,,,,,,,,,,,,,,,,,,,,,TRUE,1.3317,0.008333347,-0.382407436,1,0,0,,,,,,Trial #3,,3,3,0,2,2,2,1,4,,,,,,,,,,,,,,,,,,,,,,,,,,,,,,,,,,,,,,,,,,,,,,,,,,,,,,,,,,,,,,,,,,,,,,,,
,692323212348,CBA,09/09/2002,001,2023-04-03_11h28.53.768,OS3_Mult_verification,2022.2.4,Win32,144.6340758,,,,,,,,,,,,,,,,,,,,,,,,,,,,,,,,,,,,,,,,,,,,,,,,,,,,,,,,,,,,,,,,,,,,,,,,,,,,,,,,,TRUE,2.6993,0.00462963,-0.364814829,1,0,0,,,,,,Trial #4,,4,4,0,0,0,0,1,5,,,,,,,,,,,,,,,,,,,,,,,,,,,,,,,,,,,,,,,,,,,,,,,,,,,,,,,,,,,,,,,,,,,,,,,,
,692323212348,CBA,09/09/2002,001,2023-04-03_11h28.53.768,OS3_Mult_verification,2022.2.4,Win32,144.6340758,,,,,,,,,,,,,,,,,,,,,,,,,,,,,,,,,,,,,,,,,,,,,,,,,,,,,,,,,,,,,,,,,,,,,,,,,,,,,,,,,TRUE,1.8518,0.025000042,-0.333333333,1,0,0,,,,,,Trial #4,,4,4,0,1,1,1,1,5,,,,,,,,,,,,,,,,,,,,,,,,,,,,,,,,,,,,,,,,,,,,,,,,,,,,,,,,,,,,,,,,,,,,,,,,
,692323212348,CBA,09/09/2002,001,2023-04-03_11h28.53.768,OS3_Mult_verification,2022.2.4,Win32,144.6340758,,,,,,,,,,,,,,,,,,,,,,,,,,,,,,,,,,,,,,,,,,,,,,,,,,,,,,,,,,,,,,,,,,,,,,,,,,,,,,,,,TRUE,1.6445,0.016666695,-0.312037079,1,0,0,,,,,,Trial #4,,4,4,0,2,2,2,1,5,,,,,,,,,,,,,,,,,,,,,,,,,,,,,,,,,,,,,,,,,,,,,,,,,,,,,,,,,,,,,,,,,,,,,,,,
,692323212348,CBA,09/09/2002,001,2023-04-03_11h28.53.768,OS3_Mult_verification,2022.2.4,Win32,144.6340758,,,,,,,,,,,,,,,,,,,,,,,,,,,,,,,,,,,,,,,,,,,,,,,,,,,,,,,,,,,,,,,,,,,,,,,,,,,,,,,,,TRUE,2.4006,0.011111153,-0.312962991,1,0,0,,,,,,Trial #5,,4,4,0,0,0,0,1,6,,,,,,,,,,,,,,,,,,,,,,,,,,,,,,,,,,,,,,,,,,,,,,,,,,,,,,,,,,,,,,,,,,,,,,,,
,692323212348,CBA,09/09/2002,001,2023-04-03_11h28.53.768,OS3_Mult_verification,2022.2.4,Win32,144.6340758,,,,,,,,,,,,,,,,,,,,,,,,,,,,,,,,,,,,,,,,,,,,,,,,,,,,,,,,,,,,,,,,,,,,,,,,,,,,,,,,,TRUE,1.9378,-0.009259259,-0.312962991,1,0,0,,,,,,Trial #5,,4,4,0,1,1,1,1,6,,,,,,,,,,,,,,,,,,,,,,,,,,,,,,,,,,,,,,,,,,,,,,,,,,,,,,,,,,,,,,,,,,,,,,,,
,692323212348,CBA,09/09/2002,001,2023-04-03_11h28.53.768,OS3_Mult_verification,2022.2.4,Win32,144.6340758,,,,,,,,,,,,,,,,,,,,,,,,,,,,,,,,,,,,,,,,,,,,,,,,,,,,,,,,,,,,,,,,,,,,,,,,,,,,,,,,,TRUE,2.3714,0.040740755,-0.32222225,1,0,0,,,,,,Trial #5,,4,4,0,2,2,2,1,6,,,,,,,,,,,,,,,,,,,,,,,,,,,,,,,,,,,,,,,,,,,,,,,,,,,,,,,,,,,,,,,,,,,,,,,,
,692323212348,CBA,09/09/2002,001,2023-04-03_11h28.53.768,OS3_Mult_verification,2022.2.4,Win32,144.6340758,,,,,,,,,,,,,,,,,,,,,,,,,,,,,,,,,,,,,,,,,,,,,,,,,,,,,,,,,,,,,,,,,,,,,,,,,,,,,,,,,TRUE,2.8839,0.067592621,-0.329629616,1,0,0,,,,,,Trial #6,,4,4,0,0,0,0,1,7,,,,,,,,,,,,,,,,,,,,,,,,,,,,,,,,,,,,,,,,,,,,,,,,,,,,,,,,,,,,,,,,,,,,,,,,
,692323212348,CBA,09/09/2002,001,2023-04-03_11h28.53.768,OS3_Mult_verification,2022.2.4,Win32,144.6340758,,,,,,,,,,,,,,,,,,,,,,,,,,,,,,,,,,,,,,,,,,,,,,,,,,,,,,,,,,,,,,,,,,,,,,,,,,,,,,,,,TRUE,3.0923,0.049074102,-0.359259288,1,0,0,,,,,,Trial #6,,4,4,0,1,1,1,1,7,,,,,,,,,,,,,,,,,,,,,,,,,,,,,,,,,,,,,,,,,,,,,,,,,,,,,,,,,,,,,,,,,,,,,,,,
,692323212348,CBA,09/09/2002,001,2023-04-03_11h28.53.768,OS3_Mult_verification,2022.2.4,Win32,144.6340758,,,,,,,,,,,,,,,,,,,,,,,,,,,,,,,,,,,,,,,,,,,,,,,,,,,,,,,,,,,,,,,,,,,,,,,,,,,,,,,,,TRUE,2.2092,0.000925912,-0.312962991,1,0,0,,,,,,Trial #6,,4,4,0,2,2,2,1,7,,,,,,,,,,,,,,,,,,,,,,,,,,,,,,,,,,,,,,,,,,,,,,,,,,,,,,,,,,,,,,,,,,,,,,,,
,692323212348,CBA,09/09/2002,001,2023-04-03_11h28.53.768,OS3_Mult_verification,2022.2.4,Win32,144.6340758,,,,,,,,,,,,,,,,,,,,,,,,,,,,,,,,,,,,,,,,,,,,,,,,,,,,,,,,,,,,,,,,,,,,,,,,,,,,,,,,,TRUE,2.6807,0.048148191,-0.375925912,1,0,0,,,,,,Trial #7,,4,4,0,0,0,0,1,8,,,,,,,,,,,,,,,,,,,,,,,,,,,,,,,,,,,,,,,,,,,,,,,,,,,,,,,,,,,,,,,,,,,,,,,,
,692323212348,CBA,09/09/2002,001,2023-04-03_11h28.53.768,OS3_Mult_verification,2022.2.4,Win32,144.6340758,,,,,,,,,,,,,,,,,,,,,,,,,,,,,,,,,,,,,,,,,,,,,,,,,,,,,,,,,,,,,,,,,,,,,,,,,,,,,,,,,TRUE,2.5008,0.122222265,-0.353703746,1,0,0,,,,,,Trial #7,,4,4,0,1,1,1,1,8,,,,,,,,,,,,,,,,,,,,,,,,,,,,,,,,,,,,,,,,,,,,,,,,,,,,,,,,,,,,,,,,,,,,,,,,
,692323212348,CBA,09/09/2002,001,2023-04-03_11h28.53.768,OS3_Mult_verification,2022.2.4,Win32,144.6340758,,,,,,,,,,,,,,,,,,,,,,,,,,,,,,,,,,,,,,,,,,,,,,,,,,,,,,,,,,,,,,,,,,,,,,,,,,,,,,,,,TRUE,5.9641,0.048148191,-0.350000028,1,0,0,,,,,,Trial #7,,4,4,0,2,2,2,1,8,,,,,,,,,,,,,,,,,,,,,,,,,,,,,,,,,,,,,,,,,,,,,,,,,,,,,,,,,,,,,,,,,,,,,,,,
,692323212348,CBA,09/09/2002,001,2023-04-03_11h28.53.768,OS3_Mult_verification,2022.2.4,Win32,144.6340758,,,,,,,,,,,,,,,,,,,,,,,,,,,,,,,,,,,,,,,,,,,,,,,,,,,,,,,,,,,,,,,,,,,,,,,,,,,,,,,,,TRUE,3.302,0.054629644,-0.323148162,1,0,0,,,,,,Trial #8,,5,5,0,0,0,0,1,9,,,,,,,,,,,,,,,,,,,,,,,,,,,,,,,,,,,,,,,,,,,,,,,,,,,,,,,,,,,,,,,,,,,,,,,,
,692323212348,CBA,09/09/2002,001,2023-04-03_11h28.53.768,OS3_Mult_verification,2022.2.4,Win32,144.6340758,,,,,,,,,,,,,,,,,,,,,,,,,,,,,,,,,,,,,,,,,,,,,,,,,,,,,,,,,,,,,,,,,,,,,,,,,,,,,,,,,FALSE,3.7169,0.062037079,-0.327777792,1,0,0,,,,,,Trial #8,,5,5,0,1,1,1,1,9,,,,,,,,,,,,,,,,,,,,,,,,,,,,,,,,,,,,,,,,,,,,,,,,,,,,,,,,,,,,,,,,,,,,,,,,
,692323212348,CBA,09/09/2002,001,2023-04-03_11h28.53.768,OS3_Mult_verification,2022.2.4,Win32,144.6340758,,,,,,,,,,,,,,,,,,,,,,,,,,,,,,,,,,,,,,,,,,,,,,,,,,,,,,,,,,,,,,,,,,,,,,,,,,,,,,,,,TRUE,4.4712,0.058333362,-0.362963005,1,0,0,,,,,,Trial #8,,5,5,0,2,2,2,1,9,,,,,,,,,,,,,,,,,,,,,,,,,,,,,,,,,,,,,,,,,,,,,,,,,,,,,,,,,,,,,,,,,,,,,,,,
,692323212348,CBA,09/09/2002,001,2023-04-03_11h28.53.768,OS3_Mult_verification,2022.2.4,Win32,144.6340758,,,,,,,,,,,,,,,,,,,,,,,,,,,,,,,,,,,,,,,,,,,,,,,,,,,,,,,,,,,,,,,,,,,,,,,,,,,,,,,,,FALSE,4.8555,0.029629672,-0.372222265,1,0,0,,,,,,Trial #9,,5,5,0,0,0,0,1,10,,,,,,,,,,,,,,,,,,,,,,,,,,,,,,,,,,,,,,,,,,,,,,,,,,,,,,,,,,,,,,,,,,,,,,,,
,692323212348,CBA,09/09/2002,001,2023-04-03_11h28.53.768,OS3_Mult_verification,2022.2.4,Win32,144.6340758,,,,,,,,,,,,,,,,,,,,,,,,,,,,,,,,,,,,,,,,,,,,,,,,,,,,,,,,,,,,,,,,,,,,,,,,,,,,,,,,,TRUE,3.8521,0.060185185,-0.363888917,1,0,0,,,,,,Trial #9,,5,5,0,1,1,1,1,10,,,,,,,,,,,,,,,,,,,,,,,,,,,,,,,,,,,,,,,,,,,,,,,,,,,,,,,,,,,,,,,,,,,,,,,,
,692323212348,CBA,09/09/2002,001,2023-04-03_11h28.53.768,OS3_Mult_verification,2022.2.4,Win32,144.6340758,,,,,,,,,,,,,,,,,,,,,,,,,,,,,,,,,,,,,,,,,,,,,,,,,,,,,,,,,,,,,,,,,,,,,,,,,,,,,,,,,TRUE,3.7974,-0.04351849,-0.371296282,1,0,0,,,,,,Trial #9,,5,5,0,2,2,2,1,10,,,,,,,,,,,,,,,,,,,,,,,,,,,,,,,,,,,,,,,,,,,,,,,,,,,,,,,,,,,,,,,,,,,,,,,,
,692323212348,CBA,09/09/2002,001,2023-04-03_11h28.53.768,OS3_Mult_verification,2022.2.4,Win32,144.6340758,,,,,,,,,,,,,,,,,,,,,,,,,,,,,,,,,,,,,,,,,,,,,,,,,,,,,,,,,,,,,,,,,,,,,,,,,,,,,,,,,TRUE,6.7299,-0.024999972,-0.35092594,1,0,0,,,,,,Trial #10,,5,5,0,0,0,0,1,11,,,,,,,,,,,,,,,,,,,,,,,,,,,,,,,,,,,,,,,,,,,,,,,,,,,,,,,,,,,,,,,,,,,,,,,,
,692323212348,CBA,09/09/2002,001,2023-04-03_11h28.53.768,OS3_Mult_verification,2022.2.4,Win32,144.6340758,,,,,,,,,,,,,,,,,,,,,,,,,,,,,,,,,,,,,,,,,,,,,,,,,,,,,,,,,,,,,,,,,,,,,,,,,,,,,,,,,TRUE,3.7338,-0.041666667,-0.376851894,1,0,0,,,,,,Trial #10,,5,5,0,1,1,1,1,11,,,,,,,,,,,,,,,,,,,,,,,,,,,,,,,,,,,,,,,,,,,,,,,,,,,,,,,,,,,,,,,,,,,,,,,,
,692323212348,CBA,09/09/2002,001,2023-04-03_11h28.53.768,OS3_Mult_verification,2022.2.4,Win32,144.6340758,,,,,,,,,,,,,,,,,,,,,,,,,,,,,,,,,,,,,,,,,,,,,,,,,,,,,,,,,,,,,,,,,,,,,,,,,,,,,,,,,FALSE,5.737,-0.017592607,-0.335185228,1,0,0,,,,,,Trial #10,,5,5,0,2,2,2,1,11,,,,,,,,,,,,,,,,,,,,,,,,,,,,,,,,,,,,,,,,,,,,,,,,,,,,,,,,,,,,,,,,,,,,,,,,
,692323212348,CBA,09/09/2002,001,2023-04-03_11h28.53.768,OS3_Mult_verification,2022.2.4,Win32,144.6340758,,,,,,,,,,,,,,,,,,,,,,,,,,,,,,,,,,,,,,,,,,,,,,,,,,,,,,,,,,,,,,,,,,,,,,,,,,,,,,,,,FALSE,6.9173,0.046296296,-0.373148176,1,0,0,,,,,,Trial #11,,5,5,0,0,0,0,1,12,,,,,,,,,,,,,,,,,,,,,,,,,,,,,,,,,,,,,,,,,,,,,,,,,,,,,,,,,,,,,,,,,,,,,,,,
,692323212348,CBA,09/09/2002,001,2023-04-03_11h28.53.768,OS3_Mult_verification,2022.2.4,Win32,144.6340758,,,,,,,,,,,,,,,,,,,,,,,,,,,,,,,,,,,,,,,,,,,,,,,,,,,,,,,,,,,,,,,,,,,,,,,,,,,,,,,,,TRUE,3.9094,-0.062962921,-0.320370356,1,0,0,,,,,,Trial #11,,5,5,0,1,1,1,1,12,,,,,,,,,,,,,,,,,,,,,,,,,,,,,,,,,,,,,,,,,,,,,,,,,,,,,,,,,,,,,,,,,,,,,,,,
,692323212348,CBA,09/09/2002,001,2023-04-03_11h28.53.768,OS3_Mult_verification,2022.2.4,Win32,144.6340758,,,,,,,,,,,,,,,,,,,,,,,,,,,,,,,,,,,,,,,,,,,,,,,,,,,,,,,,,,,,,,,,,,,,,,,,,,,,,,,,,FALSE,13.015,0.078703704,-0.319444444,1,0,0,,,,,,Trial #11,,5,5,0,2,2,2,1,12,,,,,,,,,,,,,,,,,,,,,,,,,,,,,,,,,,,,,,,,,,,,,,,,,,,,,,,,,,,,,,,,,,,,,,,,
,692323212348,CBA,09/09/2002,001,2023-04-03_11h28.53.768,OS3_Mult_verification,2022.2.4,Win32,144.6340758,,,,,,,,,,,,,,,,,,,,,,,,,,,,,,,,,,,,,,,,,,,,,,,,,,,,,,,,,,,,,,,,,,,,,,,,,,,,,,,,,,,,,,,,,,,,,,,,,,,,,,,0,0,0,0,1,,,,,,,,,,,,,,,,,,,,,,,,,,,,,,,,,,,,,,,,,,,,,,,,,,,,,,,,,,,,,,,,,,,
,692323212348,CBA,09/09/2002,001,2023-04-03_11h28.53.768,OS3_Mult_verification,2022.2.4,Win32,144.6340758,,,,,,,,,,,,,,,,,,,,,,,,,,,,,,,,,,,,,,,,,,,,,,,,,,,,,,,,,,,,,,,,,,,,,,,,,0,1,1,1,1,0,1,0,,,,,,,,,,,,,,,,,,,,,,,,,,,,,,,,,,,,,,,,,,,,,,,,,,,,,,,,,,,,,,,,,,,,,,,,,,,,,,,,,,,,,,,,,,,,,,
,692323212348,CBA,09/09/2002,001,2023-04-03_11h28.53.768,OS3_Mult_verification,2022.2.4,Win32,144.6340758,,,,,,,,,,,,,,,,space,1.146,,,,,,,,,,,,,,,,,,,,,,,,,,,,,,,,,,,,,,,,,,,,,,,,,,,,,,,,,,,,,,,,,,,,,,,,,,,,,,,,,,,,,,,,,,,right,1,0.6736,0,0,0,1,1,practice,4,3,4 | 3,1,0.05,0.065,incongruent,right,,,,,,,,,,,,,,,,,,,,,,,,,,,,,,,,,,,,,,,,,,,,,,,,,,
,692323212348,CBA,09/09/2002,001,2023-04-03_11h28.53.768,OS3_Mult_verification,2022.2.4,Win32,144.6340758,,,,,,,,,,,,,,,,,,,,,,,,,,,,,,,,,,,,,,,,,,,,,,,,,,,,,,,,,,,,,,,,,,,,,,,,,,,,,,,,,,,,,,,,,,,,,,,,,,,,,,,,,,,,right,1,0.4279,0,1,1,2,1,practice,9,9,9 | 9,0,0.05,0.065,neutral,right,,,,,,,,,,,,,,,,,,,,,,,,,,,,,,,,,,,,,,,,,,,,,,,,,,
,692323212348,CBA,09/09/2002,001,2023-04-03_11h28.53.768,OS3_Mult_verification,2022.2.4,Win32,144.6340758,,,,,,,,,,,,,,,,,,,,,,,,,,,,,,,,,,,,,,,,,,,,,,,,,,,,,,,,,,,,,,,,,,,,,,,,,,,,,,,,,,,,,,,,,,,,,,,,,,,,,,,,,,,,left,1,0.45,0,2,2,0,1,practice,9,8,9 | 8,1,0.065,0.05,congruent,left,,,,,,,,,,,,,,,,,,,,,,,,,,,,,,,,,,,,,,,,,,,,,,,,,,
,692323212348,CBA,09/09/2002,001,2023-04-03_11h28.53.768,OS3_Mult_verification,2022.2.4,Win32,144.6340758,,,,,,,,,,,,,,,,,,,,,,,,,,,,,,,,,,,,,,,,,,,,,,,,,,,,,,,,,,,,,,,,,,,,,,,,,,,,,,,,,,,,,,,,,,,,,,,,,,,,,,,,,,,,left,1,0.5631,,,,,,physical,3,8,3 | 8,5,0.065,0.05,incongruent,left,0,0,0,42,1,,,,,,,,,,,,,,,,,,,,,,,,,,,,,,,,,,,,,,,,,,,,,
,692323212348,CBA,09/09/2002,001,2023-04-03_11h28.53.768,OS3_Mult_verification,2022.2.4,Win32,144.6340758,,,,,,,,,,,,,,,,,,,,,,,,,,,,,,,,,,,,,,,,,,,,,,,,,,,,,,,,,,,,,,,,,,,,,,,,,,,,,,,,,,,,,,,,,,,,,,,,,,,,,,,,,,,,right,1,0.4631,,,,,,physical,1,6,1 | 6,5,0.05,0.065,congruent,right,0,1,1,16,1,,,,,,,,,,,,,,,,,,,,,,,,,,,,,,,,,,,,,,,,,,,,,
,692323212348,CBA,09/09/2002,001,2023-04-03_11h28.53.768,OS3_Mult_verification,2022.2.4,Win32,144.6340758,,,,,,,,,,,,,,,,,,,,,,,,,,,,,,,,,,,,,,,,,,,,,,,,,,,,,,,,,,,,,,,,,,,,,,,,,,,,,,,,,,,,,,,,,,,,,,,,,,,,,,,,,,,,left,1,0.5508,,,,,,physical,1,6,1 | 6,5,0.065,0.05,incongruent,left,0,2,2,40,1,,,,,,,,,,,,,,,,,,,,,,,,,,,,,,,,,,,,,,,,,,,,,
,692323212348,CBA,09/09/2002,001,2023-04-03_11h28.53.768,OS3_Mult_verification,2022.2.4,Win32,144.6340758,,,,,,,,,,,,,,,,,,,,,,,,,,,,,,,,,,,,,,,,,,,,,,,,,,,,,,,,,,,,,,,,,,,,,,,,,,,,,,,,,,,,,,,,,,,,,,,,,,,,,,,,,,,,left,1,0.4376,,,,,,physical,3,3,3 | 3,0,0.065,0.05,neutral,left,0,3,3,66,1,,,,,,,,,,,,,,,,,,,,,,,,,,,,,,,,,,,,,,,,,,,,,
,692323212348,CBA,09/09/2002,001,2023-04-03_11h28.53.768,OS3_Mult_verification,2022.2.4,Win32,144.6340758,,,,,,,,,,,,,,,,,,,,,,,,,,,,,,,,,,,,,,,,,,,,,,,,,,,,,,,,,,,,,,,,,,,,,,,,,,,,,,,,,,,,,,,,,,,,,,,,,,,,,,,,,,,,left,1,0.5353,,,,,,physical,1,2,1 | 2,1,0.065,0.05,incongruent,left,0,4,4,24,1,,,,,,,,,,,,,,,,,,,,,,,,,,,,,,,,,,,,,,,,,,,,,
,692323212348,CBA,09/09/2002,001,2023-04-03_11h28.53.768,OS3_Mult_verification,2022.2.4,Win32,144.6340758,,,,,,,,,,,,,,,,,,,,,,,,,,,,,,,,,,,,,,,,,,,,,,,,,,,,,,,,,,,,,,,,,,,,,,,,,,,,,,,,,,,,,,,,,,,,,,,,,,,,,,,,,,,,right,1,0.4449,,,,,,physical,4,3,4 | 3,1,0.05,0.065,incongruent,right,0,5,5,29,1,,,,,,,,,,,,,,,,,,,,,,,,,,,,,,,,,,,,,,,,,,,,,
,692323212348,CBA,09/09/2002,001,2023-04-03_11h28.53.768,OS3_Mult_verification,2022.2.4,Win32,144.6340758,,,,,,,,,,,,,,,,,,,,,,,,,,,,,,,,,,,,,,,,,,,,,,,,,,,,,,,,,,,,,,,,,,,,,,,,,,,,,,,,,,,,,,,,,,,,,,,,,,,,,,,,,,,,right,1,0.4782,,,,,,physical,2,4,2 | 4,2,0.05,0.065,congruent,right,0,6,6,9,1,,,,,,,,,,,,,,,,,,,,,,,,,,,,,,,,,,,,,,,,,,,,,
,692323212348,CBA,09/09/2002,001,2023-04-03_11h28.53.768,OS3_Mult_verification,2022.2.4,Win32,144.6340758,,,,,,,,,,,,,,,,,,,,,,,,,,,,,,,,,,,,,,,,,,,,,,,,,,,,,,,,,,,,,,,,,,,,,,,,,,,,,,,,,,,,,,,,,,,,,,,,,,,,,,,,,,,,left,1,0.47,,,,,,physical,8,8,8 | 8,0,0.065,0.05,neutral,left,0,7,7,51,1,,,,,,,,,,,,,,,,,,,,,,,,,,,,,,,,,,,,,,,,,,,,,
,692323212348,CBA,09/09/2002,001,2023-04-03_11h28.53.768,OS3_Mult_verification,2022.2.4,Win32,144.6340758,,,,,,,,,,,,,,,,,,,,,,,,,,,,,,,,,,,,,,,,,,,,,,,,,,,,,,,,,,,,,,,,,,,,,,,,,,,,,,,,,,,,,,,,,,,,,,,,,,,,,,,,,,,,right,1,0.4355,,,,,,physical,1,2,1 | 2,1,0.05,0.065,congruent,right,0,8,8,0,1,,,,,,,,,,,,,,,,,,,,,,,,,,,,,,,,,,,,,,,,,,,,,
,692323212348,CBA,09/09/2002,001,2023-04-03_11h28.53.768,OS3_Mult_verification,2022.2.4,Win32,144.6340758,,,,,,,,,,,,,,,,,,,,,,,,,,,,,,,,,,,,,,,,,,,,,,,,,,,,,,,,,,,,,,,,,,,,,,,,,,,,,,,,,,,,,,,,,,,,,,,,,,,,,,,,,,,,right,1,0.4486,,,,,,physical,2,7,2 | 7,5,0.05,0.065,congruent,right,0,9,9,17,1,,,,,,,,,,,,,,,,,,,,,,,,,,,,,,,,,,,,,,,,,,,,,
,692323212348,CBA,09/09/2002,001,2023-04-03_11h28.53.768,OS3_Mult_verification,2022.2.4,Win32,144.6340758,,,,,,,,,,,,,,,,,,,,,,,,,,,,,,,,,,,,,,,,,,,,,,,,,,,,,,,,,,,,,,,,,,,,,,,,,,,,,,,,,,,,,,,,,,,,,,,,,,,,,,,,,,,,right,1,0.519,,,,,,physical,7,2,7 | 2,5,0.05,0.065,incongruent,right,0,10,10,45,1,,,,,,,,,,,,,,,,,,,,,,,,,,,,,,,,,,,,,,,,,,,,,
,692323212348,CBA,09/09/2002,001,2023-04-03_11h28.53.768,OS3_Mult_verification,2022.2.4,Win32,144.6340758,,,,,,,,,,,,,,,,,,,,,,,,,,,,,,,,,,,,,,,,,,,,,,,,,,,,,,,,,,,,,,,,,,,,,,,,,,,,,,,,,,,,,,,,,,,,,,,,,,,,,,,,,,,,right,1,0.5179,,,,,,physical,6,8,6 | 8,2,0.05,0.065,congruent,right,0,11,11,10,1,,,,,,,,,,,,,,,,,,,,,,,,,,,,,,,,,,,,,,,,,,,,,
,692323212348,CBA,09/09/2002,001,2023-04-03_11h28.53.768,OS3_Mult_verification,2022.2.4,Win32,144.6340758,,,,,,,,,,,,,,,,,,,,,,,,,,,,,,,,,,,,,,,,,,,,,,,,,,,,,,,,,,,,,,,,,,,,,,,,,,,,,,,,,,,,,,,,,,,,,,,,,,,,,,,,,,,,right,1,0.4699,,,,,,physical,9,9,9 | 9,0,0.05,0.065,neutral,right,0,12,12,63,1,,,,,,,,,,,,,,,,,,,,,,,,,,,,,,,,,,,,,,,,,,,,,
,692323212348,CBA,09/09/2002,001,2023-04-03_11h28.53.768,OS3_Mult_verification,2022.2.4,Win32,144.6340758,,,,,,,,,,,,,,,,,,,,,,,,,,,,,,,,,,,,,,,,,,,,,,,,,,,,,,,,,,,,,,,,,,,,,,,,,,,,,,,,,,,,,,,,,,,,,,,,,,,,,,,,,,,,right,1,0.9019,,,,,,physical,9,4,9 | 4,5,0.05,0.065,incongruent,right,0,13,13,47,1,,,,,,,,,,,,,,,,,,,,,,,,,,,,,,,,,,,,,,,,,,,,,
,692323212348,CBA,09/09/2002,001,2023-04-03_11h28.53.768,OS3_Mult_verification,2022.2.4,Win32,144.6340758,,,,,,,,,,,,,,,,,,,,,,,,,,,,,,,,,,,,,,,,,,,,,,,,,,,,,,,,,,,,,,,,,,,,,,,,,,,,,,,,,,,,,,,,,,,,,,,,,,,,,,,,,,,,right,1,0.5393,,,,,,physical,4,4,4 | 4,0,0.05,0.065,neutral,right,0,14,14,61,1,,,,,,,,,,,,,,,,,,,,,,,,,,,,,,,,,,,,,,,,,,,,,
,692323212348,CBA,09/09/2002,001,2023-04-03_11h28.53.768,OS3_Mult_verification,2022.2.4,Win32,144.6340758,,,,,,,,,,,,,,,,,,,,,,,,,,,,,,,,,,,,,,,,,,,,,,,,,,,,,,,,,,,,,,,,,,,,,,,,,,,,,,,,,,,,,,,,,,,,,,,,,,,,,,,,,,,,right,1,0.4419,,,,,,physical,7,7,7 | 7,0,0.05,0.065,neutral,right,0,15,15,69,1,,,,,,,,,,,,,,,,,,,,,,,,,,,,,,,,,,,,,,,,,,,,,
,692323212348,CBA,09/09/2002,001,2023-04-03_11h28.53.768,OS3_Mult_verification,2022.2.4,Win32,144.6340758,,,,,,,,,,,,,,,,,,,,,,,,,,,,,,,,,,,,,,,,,,,,,,,,,,,,,,,,,,,,,,,,,,,,,,,,,,,,,,,,,,,,,,,,,,,,,,,,,,,,,,,,,,,,left,0,0.4566,,,,,,physical,6,1,6 | 1,5,0.05,0.065,incongruent,right,0,16,16,44,1,,,,,,,,,,,,,,,,,,,,,,,,,,,,,,,,,,,,,,,,,,,,,
,692323212348,CBA,09/09/2002,001,2023-04-03_11h28.53.768,OS3_Mult_verification,2022.2.4,Win32,144.6340758,,,,,,,,,,,,,,,,,,,,,,,,,,,,,,,,,,,,,,,,,,,,,,,,,,,,,,,,,,,,,,,,,,,,,,,,,,,,,,,,,,,,,,,,,,,,,,,,,,,,,,,,,,,,right,1,1.4833,,,,,,physical,7,6,7 | 6,1,0.05,0.065,incongruent,right,0,17,17,30,1,,,,,,,,,,,,,,,,,,,,,,,,,,,,,,,,,,,,,,,,,,,,,
,692323212348,CBA,09/09/2002,001,2023-04-03_11h28.53.768,OS3_Mult_verification,2022.2.4,Win32,144.6340758,,,,,,,,,,,,,,,,,,,,,,,,,,,,,,,,,,,,,,,,,,,,,,,,,,,,,,,,,,,,,,,,,,,,,,,,,,,,,,,,,,,,,,,,,,,,,,,,,,,,,,,,,,,,right,1,0.4628,,,,,,physical,8,8,8 | 8,0,0.05,0.065,neutral,right,0,18,18,62,1,,,,,,,,,,,,,,,,,,,,,,,,,,,,,,,,,,,,,,,,,,,,,
,692323212348,CBA,09/09/2002,001,2023-04-03_11h28.53.768,OS3_Mult_verification,2022.2.4,Win32,144.6340758,,,,,,,,,,,,,,,,,,,,,,,,,,,,,,,,,,,,,,,,,,,,,,,,,,,,,,,,,,,,,,,,,,,,,,,,,,,,,,,,,,,,,,,,,,,,,,,,,,,,,,,,,,,,right,1,0.6026,,,,,,physical,9,8,9 | 8,1,0.05,0.065,incongruent,right,0,19,19,31,1,,,,,,,,,,,,,,,,,,,,,,,,,,,,,,,,,,,,,,,,,,,,,
,692323212348,CBA,09/09/2002,001,2023-04-03_11h28.53.768,OS3_Mult_verification,2022.2.4,Win32,144.6340758,,,,,,,,,,,,,,,,,,,,,,,,,,,,,,,,,,,,,,,,,,,,,,,,,,,,,,,,,,,,,,,,,,,,,,,,,,,,,,,,,,,,,,,,,,,,,,,,,,,,,,,,,,,,left,1,0.4985,,,,,,physical,1,1,1 | 1,0,0.065,0.05,neutral,left,0,20,20,64,1,,,,,,,,,,,,,,,,,,,,,,,,,,,,,,,,,,,,,,,,,,,,,
,692323212348,CBA,09/09/2002,001,2023-04-03_11h28.53.768,OS3_Mult_verification,2022.2.4,Win32,144.6340758,,,,,,,,,,,,,,,,,,,,,,,,,,,,,,,,,,,,,,,,,,,,,,,,,,,,,,,,,,,,,,,,,,,,,,,,,,,,,,,,,,,,,,,,,,,,,,,,,,,,,,,,,,,,left,1,0.5192,,,,,,physical,9,8,9 | 8,1,0.065,0.05,congruent,left,0,21,21,7,1,,,,,,,,,,,,,,,,,,,,,,,,,,,,,,,,,,,,,,,,,,,,,
,692323212348,CBA,09/09/2002,001,2023-04-03_11h28.53.768,OS3_Mult_verification,2022.2.4,Win32,144.6340758,,,,,,,,,,,,,,,,,,,,,,,,,,,,,,,,,,,,,,,,,,,,,,,,,,,,,,,,,,,,,,,,,,,,,,,,,,,,,,,,,,,,,,,,,,,,,,,,,,,,,,,,,,,,left,1,0.5935,,,,,,physical,7,9,7 | 9,2,0.065,0.05,incongruent,left,0,22,22,35,1,,,,,,,,,,,,,,,,,,,,,,,,,,,,,,,,,,,,,,,,,,,,,
,692323212348,CBA,09/09/2002,001,2023-04-03_11h28.53.768,OS3_Mult_verification,2022.2.4,Win32,144.6340758,,,,,,,,,,,,,,,,,,,,,,,,,,,,,,,,,,,,,,,,,,,,,,,,,,,,,,,,,,,,,,,,,,,,,,,,,,,,,,,,,,,,,,,,,,,,,,,,,,,,,,,,,,,,left,1,0.5041,,,,,,physical,1,3,1 | 3,2,0.065,0.05,incongruent,left,0,23,23,32,1,,,,,,,,,,,,,,,,,,,,,,,,,,,,,,,,,,,,,,,,,,,,,
,692323212348,CBA,09/09/2002,001,2023-04-03_11h28.53.768,OS3_Mult_verification,2022.2.4,Win32,144.6340758,,,,,,,,,,,,,,,,,,,,,,,,,,,,,,,,,,,,,,,,,,,,,,,,,,,,,,,,,,,,,,,,,,,,,,,,,,,,,,,,,,,,,,,,,,,,,,,,,,,,,,,,,,,,left,1,0.4763,,,,,,physical,2,4,2 | 4,2,0.065,0.05,incongruent,left,0,24,24,33,1,,,,,,,,,,,,,,,,,,,,,,,,,,,,,,,,,,,,,,,,,,,,,
,692323212348,CBA,09/09/2002,001,2023-04-03_11h28.53.768,OS3_Mult_verification,2022.2.4,Win32,144.6340758,,,,,,,,,,,,,,,,,,,,,,,,,,,,,,,,,,,,,,,,,,,,,,,,,,,,,,,,,,,,,,,,,,,,,,,,,,,,,,,,,,,,,,,,,,,,,,,,,,,,,,,,,,,,left,1,0.4631,,,,,,physical,1,1,1 | 1,0,0.065,0.05,neutral,left,0,25,25,48,1,,,,,,,,,,,,,,,,,,,,,,,,,,,,,,,,,,,,,,,,,,,,,
,692323212348,CBA,09/09/2002,001,2023-04-03_11h28.53.768,OS3_Mult_verification,2022.2.4,Win32,144.6340758,,,,,,,,,,,,,,,,,,,,,,,,,,,,,,,,,,,,,,,,,,,,,,,,,,,,,,,,,,,,,,,,,,,,,,,,,,,,,,,,,,,,,,,,,,,,,,,,,,,,,,,,,,,,left,1,0.4497,,,,,,physical,2,7,2 | 7,5,0.065,0.05,incongruent,left,0,26,26,41,1,,,,,,,,,,,,,,,,,,,,,,,,,,,,,,,,,,,,,,,,,,,,,
,692323212348,CBA,09/09/2002,001,2023-04-03_11h28.53.768,OS3_Mult_verification,2022.2.4,Win32,144.6340758,,,,,,,,,,,,,,,,,,,,,,,,,,,,,,,,,,,,,,,,,,,,,,,,,,,,,,,,,,,,,,,,,,,,,,,,,,,,,,,,,,,,,,,,,,,,,,,,,,,,,,,,,,,,right,1,0.5801,,,,,,physical,4,4,4 | 4,0,0.05,0.065,neutral,right,0,27,27,67,1,,,,,,,,,,,,,,,,,,,,,,,,,,,,,,,,,,,,,,,,,,,,,
,692323212348,CBA,09/09/2002,001,2023-04-03_11h28.53.768,OS3_Mult_verification,2022.2.4,Win32,144.6340758,,,,,,,,,,,,,,,,,,,,,,,,,,,,,,,,,,,,,,,,,,,,,,,,,,,,,,,,,,,,,,,,,,,,,,,,,,,,,,,,,,,,,,,,,,,,,,,,,,,,,,,,,,,,left,1,0.4702,,,,,,physical,2,1,2 | 1,1,0.065,0.05,congruent,left,0,28,28,4,1,,,,,,,,,,,,,,,,,,,,,,,,,,,,,,,,,,,,,,,,,,,,,
,692323212348,CBA,09/09/2002,001,2023-04-03_11h28.53.768,OS3_Mult_verification,2022.2.4,Win32,144.6340758,,,,,,,,,,,,,,,,,,,,,,,,,,,,,,,,,,,,,,,,,,,,,,,,,,,,,,,,,,,,,,,,,,,,,,,,,,,,,,,,,,,,,,,,,,,,,,,,,,,,,,,,,,,,left,1,0.4566,,,,,,physical,9,4,9 | 4,5,0.065,0.05,congruent,left,0,29,29,23,1,,,,,,,,,,,,,,,,,,,,,,,,,,,,,,,,,,,,,,,,,,,,,
,692323212348,CBA,09/09/2002,001,2023-04-03_11h28.53.768,OS3_Mult_verification,2022.2.4,Win32,144.6340758,,,,,,,,,,,,,,,,,,,,,,,,,,,,,,,,,,,,,,,,,,,,,,,,,,,,,,,,,,,,,,,,,,,,,,,,,,,,,,,,,,,,,,,,,,,,,,,,,,,,,,,,,,,,left,1,0.4413,,,,,,physical,3,3,3 | 3,0,0.065,0.05,neutral,left,0,30,30,49,1,,,,,,,,,,,,,,,,,,,,,,,,,,,,,,,,,,,,,,,,,,,,,
,692323212348,CBA,09/09/2002,001,2023-04-03_11h28.53.768,OS3_Mult_verification,2022.2.4,Win32,144.6340758,,,,,,,,,,,,,,,,,,,,,,,,,,,,,,,,,,,,,,,,,,,,,,,,,,,,,,,,,,,,,,,,,,,,,,,,,,,,,,,,,,,,,,,,,,,,,,,,,,,,,,,,,,,,right,1,0.407,,,,,,physical,7,7,7 | 7,0,0.05,0.065,neutral,right,0,31,31,59,1,,,,,,,,,,,,,,,,,,,,,,,,,,,,,,,,,,,,,,,,,,,,,
,692323212348,CBA,09/09/2002,001,2023-04-03_11h28.53.768,OS3_Mult_verification,2022.2.4,Win32,144.6340758,,,,,,,,,,,,,,,,,,,,,,,,,,,,,,,,,,,,,,,,,,,,,,,,,,,,,,,,,,,,,,,,,,,,,,,,,,,,,,,,,,,,,,,,,,,,,,,,,,,,,,,,,,,,left,1,0.4354,,,,,,physical,7,7,7 | 7,0,0.065,0.05,neutral,left,0,32,32,54,1,,,,,,,,,,,,,,,,,,,,,,,,,,,,,,,,,,,,,,,,,,,,,
,692323212348,CBA,09/09/2002,001,2023-04-03_11h28.53.768,OS3_Mult_verification,2022.2.4,Win32,144.6340758,,,,,,,,,,,,,,,,,,,,,,,,,,,,,,,,,,,,,,,,,,,,,,,,,,,,,,,,,,,,,,,,,,,,,,,,,,,,,,,,,,,,,,,,,,,,,,,,,,,,,,,,,,,,left,1,0.4904,,,,,,physical,4,3,4 | 3,1,0.065,0.05,congruent,left,0,33,33,5,1,,,,,,,,,,,,,,,,,,,,,,,,,,,,,,,,,,,,,,,,,,,,,
,692323212348,CBA,09/09/2002,001,2023-04-03_11h28.53.768,OS3_Mult_verification,2022.2.4,Win32,144.6340758,,,,,,,,,,,,,,,,,,,,,,,,,,,,,,,,,,,,,,,,,,,,,,,,,,,,,,,,,,,,,,,,,,,,,,,,,,,,,,,,,,,,,,,,,,,,,,,,,,,,,,,,,,,,left,1,0.4695,,,,,,physical,6,6,6 | 6,0,0.065,0.05,neutral,left,0,34,34,50,1,,,,,,,,,,,,,,,,,,,,,,,,,,,,,,,,,,,,,,,,,,,,,
,692323212348,CBA,09/09/2002,001,2023-04-03_11h28.53.768,OS3_Mult_verification,2022.2.4,Win32,144.6340758,,,,,,,,,,,,,,,,,,,,,,,,,,,,,,,,,,,,,,,,,,,,,,,,,,,,,,,,,,,,,,,,,,,,,,,,,,,,,,,,,,,,,,,,,,,,,,,,,,,,,,,,,,,,right,1,0.497,,,,,,physical,1,3,1 | 3,2,0.05,0.065,congruent,right,0,35,35,8,1,,,,,,,,,,,,,,,,,,,,,,,,,,,,,,,,,,,,,,,,,,,,,
,692323212348,CBA,09/09/2002,001,2023-04-03_11h28.53.768,OS3_Mult_verification,2022.2.4,Win32,144.6340758,,,,,,,,,,,,,,,,,,,,,,,,,,,,,,,,,,,,,,,,,,,,,,,,,,,,,,,,,,,,,,,,,,,,,,,,,,,,,,,,,,,,,,,,,,,,,,,,,,,,,,,,,,,,left,1,0.4638,,,,,,physical,9,7,9 | 7,2,0.065,0.05,congruent,left,0,36,36,15,1,,,,,,,,,,,,,,,,,,,,,,,,,,,,,,,,,,,,,,,,,,,,,
,692323212348,CBA,09/09/2002,001,2023-04-03_11h28.53.768,OS3_Mult_verification,2022.2.4,Win32,144.6340758,,,,,,,,,,,,,,,,,,,,,,,,,,,,,,,,,,,,,,,,,,,,,,,,,,,,,,,,,,,,,,,,,,,,,,,,,,,,,,,,,,,,,,,,,,,,,,,,,,,,,,,,,,,,left,1,0.4422,,,,,,physical,3,1,3 | 1,2,0.065,0.05,congruent,left,0,37,37,12,1,,,,,,,,,,,,,,,,,,,,,,,,,,,,,,,,,,,,,,,,,,,,,
,692323212348,CBA,09/09/2002,001,2023-04-03_11h28.53.768,OS3_Mult_verification,2022.2.4,Win32,144.6340758,,,,,,,,,,,,,,,,,,,,,,,,,,,,,,,,,,,,,,,,,,,,,,,,,,,,,,,,,,,,,,,,,,,,,,,,,,,,,,,,,,,,,,,,,,,,,,,,,,,,,,,,,,,,left,1,0.4363,,,,,,physical,3,4,3 | 4,1,0.065,0.05,incongruent,left,0,38,38,25,1,,,,,,,,,,,,,,,,,,,,,,,,,,,,,,,,,,,,,,,,,,,,,
,692323212348,CBA,09/09/2002,001,2023-04-03_11h28.53.768,OS3_Mult_verification,2022.2.4,Win32,144.6340758,,,,,,,,,,,,,,,,,,,,,,,,,,,,,,,,,,,,,,,,,,,,,,,,,,,,,,,,,,,,,,,,,,,,,,,,,,,,,,,,,,,,,,,,,,,,,,,,,,,,,,,,,,,,right,1,0.401,,,,,,physical,2,1,2 | 1,1,0.05,0.065,incongruent,right,0,39,39,28,1,,,,,,,,,,,,,,,,,,,,,,,,,,,,,,,,,,,,,,,,,,,,,
,692323212348,CBA,09/09/2002,001,2023-04-03_11h28.53.768,OS3_Mult_verification,2022.2.4,Win32,144.6340758,,,,,,,,,,,,,,,,,,,,,,,,,,,,,,,,,,,,,,,,,,,,,,,,,,,,,,,,,,,,,,,,,,,,,,,,,,,,,,,,,,,,,,,,,,,,,,,,,,,,,,,,,,,,right,1,0.4861,,,,,,physical,2,2,2 | 2,0,0.05,0.065,neutral,right,0,40,40,57,1,,,,,,,,,,,,,,,,,,,,,,,,,,,,,,,,,,,,,,,,,,,,,
