windowSize,participant,group,DOB (DD/MM/YEAR),session,date,expName,psychopyVersion,OS,frameRate,typing_instr_resp.keys,typing_instr_resp.rt,typing_response,typing_rt,typing_score,typingSpeed_input_resp.keys,typingSpeed_input_resp.rt,typing_speed_trials.thisRepN,typing_speed_trials.thisTrialN,typing_speed_trials.thisN,typing_speed_trials.thisIndex,typing_speed_trials.ran,typing_speed_stim,typing_report_resp.keys,typing_report_resp.rt,vpt_trial_resp1.keys,vpt_trial_resp1.rt,typedResponse,fluency_rt,fluency_score,fluencyInputResp.keys,fluencyInputResp.rt,fluencyPracLoop.thisRepN,fluencyPracLoop.thisTrialN,fluencyPracLoop.thisN,fluencyPracLoop.thisIndex,fluencyPracLoop.ran,problem,answers,fluencyLoop.thisRepN,fluencyLoop.thisTrialN,fluencyLoop.thisN,fluencyLoop.thisIndex,fluencyLoop.ran,sampleAudio_resp.keys,sampleAudio_resp.rt,subjResponse,audio_rt,DS_score,inputResp.keys,inputResp.rt,audioPracticeLoop.thisRepN,audioPracticeLoop.thisTrialN,audioPracticeLoop.thisN,audioPracticeLoop.thisIndex,audioPracticeLoop.ran,digitSpan,digits_audioStim,soundsFile,typeDS,audioTrials_Loop.thisRepN,audioTrials_Loop.thisTrialN,audioTrials_Loop.thisN,audioTrials_Loop.thisIndex,audioTrials_Loop.ran,audioBlocks_loop.thisRepN,audioBlocks_loop.thisTrialN,audioBlocks_loop.thisN,audioBlocks_loop.thisIndex,audioBlocks_loop.ran,ConditionFile,digitSpanTask_loop.thisRepN,digitSpanTask_loop.thisTrialN,digitSpanTask_loop.thisN,digitSpanTask_loop.thisIndex,digitSpanTask_loop.ran,dsFile,TASK_C.thisRepN,TASK_C.thisTrialN,TASK_C.thisN,TASK_C.thisIndex,TASK_C.ran,controlTaskOrder.thisRepN,controlTaskOrder.thisTrialN,controlTaskOrder.thisN,controlTaskOrder.thisIndex,controlTaskOrder.ran,nRepsTask1,nRepsTask2,nRepsTask3,stroopResp.keys,stroopResp.corr,stroopResp.rt,stroopPracLoop.thisRepN,stroopPracLoop.thisTrialN,stroopPracLoop.thisN,stroopPracLoop.thisIndex,stroopPracLoop.ran,stroopCond,leftNo,rightNo,displayProblem,numDistance,leftNo_size,rightNo_size,Dims,keyAnswer,stroopLoop.thisRepN,stroopLoop.thisTrialN,stroopLoop.thisN,stroopLoop.thisIndex,stroopLoop.ran,stroopBlocks.thisRepN,stroopBlocks.thisTrialN,stroopBlocks.thisN,stroopBlocks.thisIndex,stroopBlocks.ran,stroop_condition,stroop_pracFile,ActionInst,instrImage,TASK_A.thisRepN,TASK_A.thisTrialN,TASK_A.thisN,TASK_A.thisIndex,TASK_A.ran,vptCorrect,vpt_rt,respMouse.x,respMouse.y,respMouse.leftButton,respMouse.midButton,respMouse.rightButton,vptPracticeLoop.thisRepN,vptPracticeLoop.thisTrialN,vptPracticeLoop.thisN,vptPracticeLoop.thisIndex,vptPracticeLoop.ran,trialType,tiles,rows,cols,vptTrialLoop.thisRepN,vptTrialLoop.thisTrialN,vptTrialLoop.thisN,vptTrialLoop.thisIndex,vptTrialLoop.ran,noOfBlocks,TASK_B.thisRepN,TASK_B.thisTrialN,TASK_B.thisN,TASK_B.thisIndex,TASK_B.ran,veriStim_resp.keys,veriStim_resp.corr,veriStim_resp.rt,verificationPracLoop.thisRepN,verificationPracLoop.thisTrialN,verificationPracLoop.thisN,verificationPracLoop.thisIndex,verificationPracLoop.ran,mult_problem,mult_answer,mult_type,error_distance,interferenceScore,problemType,interferenceLevel,problemSize,img_leftButton,img_rightButton,veriLoop.thisRepN,veriLoop.thisTrialN,veriLoop.thisN,veriLoop.thisIndex,veriLoop.ran,veriBlock.thisRepN,veriBlock.thisTrialN,veriBlock.thisN,veriBlock.thisIndex,veriBlock.ran,verificationFiles,end_resp.keys,end_resp.rt
"[1440,820]",8767,CAB,20/05/2004,001,2023-09-26_17h35.11.076,OS3_Mult_verification,2022.2.4,MacIntel,20,,,,,,,,,,,,,,,,,,,,,,,,,,,,,,,,,,,,,,,,,,,,,,,,,,,,,,,,,,,,,,,,,,,,,,,,,,,,,,,,,,,,,,,,,,,,,,,,,,,,,,,,,,,,,,,,,,,,,,,,,,,,,,,,,,,,,,,,,,,,,,,,,,,,,,,,,,,,,,,,,,,,,,,,,,,,,,
,8767,CAB,20/05/2004,001,2023-09-26_17h35.11.076,OS3_Mult_verification,2022.2.4,MacIntel,20,,,,,,,,,,,,,,,,,,,,,,,,,,,,,,,,,,,,,,,,,,,,,,,,,,,,,,,,,,,,,,,,,,,,,,,,,,,,,,,,,,,,,,,,,,,,,,,,,,,,,,,,,,,,,,,,,,,,,,,,,,,,,,,,,,,,,,,,,,,,,,,,,,,,,,,,,,,,,,,,,,,,,,,,,,,,,,
,8767,CAB,20/05/2004,001,2023-09-26_17h35.11.076,OS3_Mult_verification,2022.2.4,MacIntel,20,space,1.749,,,,,,,,,,,,,,,,,,,,,,,,,,,,,,,,,,,,,,,,,,,,,,,,,,,,,,,,,,,,,,,,,,,,,,,,,,,,,,,,,,,,,,,,,,,,,,,,,,,,,,,,,,,,,,,,,,,,,,,,,,,,,,,,,,,,,,,,,,,,,,,,,,,,,,,,,,,,,,,,,,,,,,,,,,,,
,8767,CAB,20/05/2004,001,2023-09-26_17h35.11.076,OS3_Mult_verification,2022.2.4,MacIntel,20,,,9,0.999,1,"[""9"",""return""]","[0.7570000000000014,0.9590000000000032]",0,0,0,3,1,9,,,,,,,,,,,,,,,,,,,,,,,,,,,,,,,,,,,,,,,,,,,,,,,,,,,,,,,,,,,,,,,,,,,,,,,,,,,,,,,,,,,,,,,,,,,,,,,,,,,,,,,,,,,,,,,,,,,,,,,,,,,,,,,,,,,,,,,,,,,,,,,,,,,,,,,,,,,,,,,,,
,8767,CAB,20/05/2004,001,2023-09-26_17h35.11.076,OS3_Mult_verification,2022.2.4,MacIntel,20,,,40,1.383,1,"[""4"",""0"",""return""]","[0.875,0.9750000000000014,1.3420000000000023]",0,1,1,20,1,40,,,,,,,,,,,,,,,,,,,,,,,,,,,,,,,,,,,,,,,,,,,,,,,,,,,,,,,,,,,,,,,,,,,,,,,,,,,,,,,,,,,,,,,,,,,,,,,,,,,,,,,,,,,,,,,,,,,,,,,,,,,,,,,,,,,,,,,,,,,,,,,,,,,,,,,,,,,,,,,,,
,8767,CAB,20/05/2004,001,2023-09-26_17h35.11.076,OS3_Mult_verification,2022.2.4,MacIntel,20,,,25,1.048,1,"[""2"",""5"",""return""]","[0.6330000000000062,0.7280000000000015,1.0110000000000028]",0,2,2,13,1,25,,,,,,,,,,,,,,,,,,,,,,,,,,,,,,,,,,,,,,,,,,,,,,,,,,,,,,,,,,,,,,,,,,,,,,,,,,,,,,,,,,,,,,,,,,,,,,,,,,,,,,,,,,,,,,,,,,,,,,,,,,,,,,,,,,,,,,,,,,,,,,,,,,,,,,,,,,,,,,,,,
,8767,CAB,20/05/2004,001,2023-09-26_17h35.11.076,OS3_Mult_verification,2022.2.4,MacIntel,20,,,56,1.267,1,"[""5"",""6"",""return""]","[0.8980000000000032,0.9790000000000028,1.2290000000000028]",0,3,3,26,1,56,,,,,,,,,,,,,,,,,,,,,,,,,,,,,,,,,,,,,,,,,,,,,,,,,,,,,,,,,,,,,,,,,,,,,,,,,,,,,,,,,,,,,,,,,,,,,,,,,,,,,,,,,,,,,,,,,,,,,,,,,,,,,,,,,,,,,,,,,,,,,,,,,,,,,,,,,,,,,,,,,
,8767,CAB,20/05/2004,001,2023-09-26_17h35.11.076,OS3_Mult_verification,2022.2.4,MacIntel,20,,,42,1.051,1,"[""4"",""2"",""return""]","[0.7280000000000015,0.8269999999999982,1.0100000000000016]",0,4,4,21,1,42,,,,,,,,,,,,,,,,,,,,,,,,,,,,,,,,,,,,,,,,,,,,,,,,,,,,,,,,,,,,,,,,,,,,,,,,,,,,,,,,,,,,,,,,,,,,,,,,,,,,,,,,,,,,,,,,,,,,,,,,,,,,,,,,,,,,,,,,,,,,,,,,,,,,,,,,,,,,,,,,,
,8767,CAB,20/05/2004,001,2023-09-26_17h35.11.076,OS3_Mult_verification,2022.2.4,MacIntel,20,,,20,0.834,1,"[""2"",""0"",""return""]","[0.527000000000001,0.5919999999999987,0.7940000000000005]",0,5,5,10,1,20,,,,,,,,,,,,,,,,,,,,,,,,,,,,,,,,,,,,,,,,,,,,,,,,,,,,,,,,,,,,,,,,,,,,,,,,,,,,,,,,,,,,,,,,,,,,,,,,,,,,,,,,,,,,,,,,,,,,,,,,,,,,,,,,,,,,,,,,,,,,,,,,,,,,,,,,,,,,,,,,,
,8767,CAB,20/05/2004,001,2023-09-26_17h35.11.076,OS3_Mult_verification,2022.2.4,MacIntel,20,,,49,1.083,1,"[""4"",""9"",""return""]","[0.7789999999999999,0.8329999999999984,1.0459999999999994]",0,6,6,24,1,49,,,,,,,,,,,,,,,,,,,,,,,,,,,,,,,,,,,,,,,,,,,,,,,,,,,,,,,,,,,,,,,,,,,,,,,,,,,,,,,,,,,,,,,,,,,,,,,,,,,,,,,,,,,,,,,,,,,,,,,,,,,,,,,,,,,,,,,,,,,,,,,,,,,,,,,,,,,,,,,,,
,8767,CAB,20/05/2004,001,2023-09-26_17h35.11.076,OS3_Mult_verification,2022.2.4,MacIntel,20,,,4,0.833,1,"[""4"",""return""]","[0.6999999999999993,0.7940000000000005]",0,7,7,0,1,4,,,,,,,,,,,,,,,,,,,,,,,,,,,,,,,,,,,,,,,,,,,,,,,,,,,,,,,,,,,,,,,,,,,,,,,,,,,,,,,,,,,,,,,,,,,,,,,,,,,,,,,,,,,,,,,,,,,,,,,,,,,,,,,,,,,,,,,,,,,,,,,,,,,,,,,,,,,,,,,,,
,8767,CAB,20/05/2004,001,2023-09-26_17h35.11.076,OS3_Mult_verification,2022.2.4,MacIntel,20,,,24,1.183,1,"[""2"",""4"",""return""]","[0.8829999999999991,1.0620000000000012,1.1479999999999997]",0,8,8,12,1,24,,,,,,,,,,,,,,,,,,,,,,,,,,,,,,,,,,,,,,,,,,,,,,,,,,,,,,,,,,,,,,,,,,,,,,,,,,,,,,,,,,,,,,,,,,,,,,,,,,,,,,,,,,,,,,,,,,,,,,,,,,,,,,,,,,,,,,,,,,,,,,,,,,,,,,,,,,,,,,,,,
,8767,CAB,20/05/2004,001,2023-09-26_17h35.11.076,OS3_Mult_verification,2022.2.4,MacIntel,20,,,35,0.999,1,"[""3"",""5"",""return""]","[0.6409999999999982,0.7429999999999986,0.9639999999999986]",0,9,9,18,1,35,,,,,,,,,,,,,,,,,,,,,,,,,,,,,,,,,,,,,,,,,,,,,,,,,,,,,,,,,,,,,,,,,,,,,,,,,,,,,,,,,,,,,,,,,,,,,,,,,,,,,,,,,,,,,,,,,,,,,,,,,,,,,,,,,,,,,,,,,,,,,,,,,,,,,,,,,,,,,,,,,
,8767,CAB,20/05/2004,001,2023-09-26_17h35.11.076,OS3_Mult_verification,2022.2.4,MacIntel,20,,,14,0.966,1,"[""1"",""4"",""return""]","[0.6439999999999984,0.8440000000000012,0.929000000000002]",0,10,10,6,1,14,,,,,,,,,,,,,,,,,,,,,,,,,,,,,,,,,,,,,,,,,,,,,,,,,,,,,,,,,,,,,,,,,,,,,,,,,,,,,,,,,,,,,,,,,,,,,,,,,,,,,,,,,,,,,,,,,,,,,,,,,,,,,,,,,,,,,,,,,,,,,,,,,,,,,,,,,,,,,,,,,
,8767,CAB,20/05/2004,001,2023-09-26_17h35.11.076,OS3_Mult_verification,2022.2.4,MacIntel,20,,,10,0.917,1,"[""1"",""0"",""return""]","[0.4969999999999999,0.6479999999999997,0.8800000000000026]",0,11,11,4,1,10,,,,,,,,,,,,,,,,,,,,,,,,,,,,,,,,,,,,,,,,,,,,,,,,,,,,,,,,,,,,,,,,,,,,,,,,,,,,,,,,,,,,,,,,,,,,,,,,,,,,,,,,,,,,,,,,,,,,,,,,,,,,,,,,,,,,,,,,,,,,,,,,,,,,,,,,,,,,,,,,,
,8767,CAB,20/05/2004,001,2023-09-26_17h35.11.076,OS3_Mult_verification,2022.2.4,MacIntel,20,,,48,1.216,1,"[""4"",""8"",""return""]","[0.8439999999999976,0.9469999999999992,1.176999999999996]",0,12,12,23,1,48,,,,,,,,,,,,,,,,,,,,,,,,,,,,,,,,,,,,,,,,,,,,,,,,,,,,,,,,,,,,,,,,,,,,,,,,,,,,,,,,,,,,,,,,,,,,,,,,,,,,,,,,,,,,,,,,,,,,,,,,,,,,,,,,,,,,,,,,,,,,,,,,,,,,,,,,,,,,,,,,,
,8767,CAB,20/05/2004,001,2023-09-26_17h35.11.076,OS3_Mult_verification,2022.2.4,MacIntel,20,,,16,1.099,1,"[""1"",""6"",""return""]","[0.5290000000000035,0.9480000000000075,1.0620000000000047]",0,13,13,8,1,16,,,,,,,,,,,,,,,,,,,,,,,,,,,,,,,,,,,,,,,,,,,,,,,,,,,,,,,,,,,,,,,,,,,,,,,,,,,,,,,,,,,,,,,,,,,,,,,,,,,,,,,,,,,,,,,,,,,,,,,,,,,,,,,,,,,,,,,,,,,,,,,,,,,,,,,,,,,,,,,,,
,8767,CAB,20/05/2004,001,2023-09-26_17h35.11.076,OS3_Mult_verification,2022.2.4,MacIntel,20,,,64,1.483,1,"[""6"",""4"",""return""]","[0.9100000000000037,1.3430000000000035,1.4440000000000026]",0,14,14,28,1,64,,,,,,,,,,,,,,,,,,,,,,,,,,,,,,,,,,,,,,,,,,,,,,,,,,,,,,,,,,,,,,,,,,,,,,,,,,,,,,,,,,,,,,,,,,,,,,,,,,,,,,,,,,,,,,,,,,,,,,,,,,,,,,,,,,,,,,,,,,,,,,,,,,,,,,,,,,,,,,,,,
,8767,CAB,20/05/2004,001,2023-09-26_17h35.11.076,OS3_Mult_verification,2022.2.4,MacIntel,20,,,6,1.316,1,"[""6"",""return""]","[0.7620000000000005,1.277000000000001]",0,15,15,1,1,6,,,,,,,,,,,,,,,,,,,,,,,,,,,,,,,,,,,,,,,,,,,,,,,,,,,,,,,,,,,,,,,,,,,,,,,,,,,,,,,,,,,,,,,,,,,,,,,,,,,,,,,,,,,,,,,,,,,,,,,,,,,,,,,,,,,,,,,,,,,,,,,,,,,,,,,,,,,,,,,,,
,8767,CAB,20/05/2004,001,2023-09-26_17h35.11.076,OS3_Mult_verification,2022.2.4,MacIntel,20,,,63,1.116,1,"[""6"",""3"",""return""]","[0.695999999999998,0.9799999999999969,1.0850000000000009]",0,16,16,27,1,63,,,,,,,,,,,,,,,,,,,,,,,,,,,,,,,,,,,,,,,,,,,,,,,,,,,,,,,,,,,,,,,,,,,,,,,,,,,,,,,,,,,,,,,,,,,,,,,,,,,,,,,,,,,,,,,,,,,,,,,,,,,,,,,,,,,,,,,,,,,,,,,,,,,,,,,,,,,,,,,,,
,8767,CAB,20/05/2004,001,2023-09-26_17h35.11.076,OS3_Mult_verification,2022.2.4,MacIntel,20,,,32,1.433,1,"[""4"",""backspace"",""3"",""2"",""return""]","[0.6839999999999975,1.0479999999999947,1.1609999999999943,1.3119999999999976,1.401999999999994]",0,17,17,17,1,32,,,,,,,,,,,,,,,,,,,,,,,,,,,,,,,,,,,,,,,,,,,,,,,,,,,,,,,,,,,,,,,,,,,,,,,,,,,,,,,,,,,,,,,,,,,,,,,,,,,,,,,,,,,,,,,,,,,,,,,,,,,,,,,,,,,,,,,,,,,,,,,,,,,,,,,,,,,,,,,,,
,8767,CAB,20/05/2004,001,2023-09-26_17h35.11.076,OS3_Mult_verification,2022.2.4,MacIntel,20,,,12,0.85,1,"[""1"",""2"",""return""]","[0.5609999999999999,0.7339999999999947,0.8119999999999976]",0,18,18,5,1,12,,,,,,,,,,,,,,,,,,,,,,,,,,,,,,,,,,,,,,,,,,,,,,,,,,,,,,,,,,,,,,,,,,,,,,,,,,,,,,,,,,,,,,,,,,,,,,,,,,,,,,,,,,,,,,,,,,,,,,,,,,,,,,,,,,,,,,,,,,,,,,,,,,,,,,,,,,,,,,,,,
,8767,CAB,20/05/2004,001,2023-09-26_17h35.11.076,OS3_Mult_verification,2022.2.4,MacIntel,20,,,21,0.966,1,"[""2"",""1"",""return""]","[0.6769999999999996,0.8329999999999984,0.9329999999999998]",0,19,19,11,1,21,,,,,,,,,,,,,,,,,,,,,,,,,,,,,,,,,,,,,,,,,,,,,,,,,,,,,,,,,,,,,,,,,,,,,,,,,,,,,,,,,,,,,,,,,,,,,,,,,,,,,,,,,,,,,,,,,,,,,,,,,,,,,,,,,,,,,,,,,,,,,,,,,,,,,,,,,,,,,,,,,
,8767,CAB,20/05/2004,001,2023-09-26_17h35.11.076,OS3_Mult_verification,2022.2.4,MacIntel,20,,,28,1.099,1,"[""2"",""8"",""return""]","[0.7100000000000009,0.8429999999999964,1.0600000000000023]",0,20,20,15,1,28,,,,,,,,,,,,,,,,,,,,,,,,,,,,,,,,,,,,,,,,,,,,,,,,,,,,,,,,,,,,,,,,,,,,,,,,,,,,,,,,,,,,,,,,,,,,,,,,,,,,,,,,,,,,,,,,,,,,,,,,,,,,,,,,,,,,,,,,,,,,,,,,,,,,,,,,,,,,,,,,,
,8767,CAB,20/05/2004,001,2023-09-26_17h35.11.076,OS3_Mult_verification,2022.2.4,MacIntel,20,,,18,0.999,1,"[""1"",""8"",""return""]","[0.6099999999999994,0.7469999999999999,0.9600000000000009]",0,21,21,9,1,18,,,,,,,,,,,,,,,,,,,,,,,,,,,,,,,,,,,,,,,,,,,,,,,,,,,,,,,,,,,,,,,,,,,,,,,,,,,,,,,,,,,,,,,,,,,,,,,,,,,,,,,,,,,,,,,,,,,,,,,,,,,,,,,,,,,,,,,,,,,,,,,,,,,,,,,,,,,,,,,,,
,8767,CAB,20/05/2004,001,2023-09-26_17h35.11.076,OS3_Mult_verification,2022.2.4,MacIntel,20,,,15,1.417,1,"[""1"",""6"",""backspace"",""5"",""return""]","[0.6289999999999978,0.7790000000000035,1.131999999999998,1.2180000000000035,1.3789999999999978]",0,22,22,7,1,15,,,,,,,,,,,,,,,,,,,,,,,,,,,,,,,,,,,,,,,,,,,,,,,,,,,,,,,,,,,,,,,,,,,,,,,,,,,,,,,,,,,,,,,,,,,,,,,,,,,,,,,,,,,,,,,,,,,,,,,,,,,,,,,,,,,,,,,,,,,,,,,,,,,,,,,,,,,,,,,,,
,8767,CAB,20/05/2004,001,2023-09-26_17h35.11.076,OS3_Mult_verification,2022.2.4,MacIntel,20,,,8,1.016,1,"[""8"",""return""]","[0.7600000000000051,0.9770000000000039]",0,23,23,2,1,8,,,,,,,,,,,,,,,,,,,,,,,,,,,,,,,,,,,,,,,,,,,,,,,,,,,,,,,,,,,,,,,,,,,,,,,,,,,,,,,,,,,,,,,,,,,,,,,,,,,,,,,,,,,,,,,,,,,,,,,,,,,,,,,,,,,,,,,,,,,,,,,,,,,,,,,,,,,,,,,,,
,8767,CAB,20/05/2004,001,2023-09-26_17h35.11.076,OS3_Mult_verification,2022.2.4,MacIntel,20,,,45,1.133,1,"[""4"",""5"",""return""]","[0.759999999999998,0.8440000000000012,1.0989999999999966]",0,24,24,22,1,45,,,,,,,,,,,,,,,,,,,,,,,,,,,,,,,,,,,,,,,,,,,,,,,,,,,,,,,,,,,,,,,,,,,,,,,,,,,,,,,,,,,,,,,,,,,,,,,,,,,,,,,,,,,,,,,,,,,,,,,,,,,,,,,,,,,,,,,,,,,,,,,,,,,,,,,,,,,,,,,,,
,8767,CAB,20/05/2004,001,2023-09-26_17h35.11.076,OS3_Mult_verification,2022.2.4,MacIntel,20,,,72,1.1,1,"[""7"",""2"",""return""]","[0.8109999999999999,0.9110000000000014,1.061]",0,25,25,29,1,72,,,,,,,,,,,,,,,,,,,,,,,,,,,,,,,,,,,,,,,,,,,,,,,,,,,,,,,,,,,,,,,,,,,,,,,,,,,,,,,,,,,,,,,,,,,,,,,,,,,,,,,,,,,,,,,,,,,,,,,,,,,,,,,,,,,,,,,,,,,,,,,,,,,,,,,,,,,,,,,,,
,8767,CAB,20/05/2004,001,2023-09-26_17h35.11.076,OS3_Mult_verification,2022.2.4,MacIntel,20,,,81,0.949,1,"[""8"",""1"",""return""]","[0.6630000000000038,0.7449999999999974,0.9110000000000014]",0,26,26,30,1,81,,,,,,,,,,,,,,,,,,,,,,,,,,,,,,,,,,,,,,,,,,,,,,,,,,,,,,,,,,,,,,,,,,,,,,,,,,,,,,,,,,,,,,,,,,,,,,,,,,,,,,,,,,,,,,,,,,,,,,,,,,,,,,,,,,,,,,,,,,,,,,,,,,,,,,,,,,,,,,,,,
,8767,CAB,20/05/2004,001,2023-09-26_17h35.11.076,OS3_Mult_verification,2022.2.4,MacIntel,20,,,54,1.199,1,"[""5"",""4"",""return""]","[0.865000000000002,1.0290000000000035,1.1640000000000015]",0,27,27,25,1,54,,,,,,,,,,,,,,,,,,,,,,,,,,,,,,,,,,,,,,,,,,,,,,,,,,,,,,,,,,,,,,,,,,,,,,,,,,,,,,,,,,,,,,,,,,,,,,,,,,,,,,,,,,,,,,,,,,,,,,,,,,,,,,,,,,,,,,,,,,,,,,,,,,,,,,,,,,,,,,,,,
,8767,CAB,20/05/2004,001,2023-09-26_17h35.11.076,OS3_Mult_verification,2022.2.4,MacIntel,20,,,36,1.084,1,"[""3"",""6"",""return""]","[0.7340000000000018,0.8010000000000019,1.0459999999999994]",0,28,28,19,1,36,,,,,,,,,,,,,,,,,,,,,,,,,,,,,,,,,,,,,,,,,,,,,,,,,,,,,,,,,,,,,,,,,,,,,,,,,,,,,,,,,,,,,,,,,,,,,,,,,,,,,,,,,,,,,,,,,,,,,,,,,,,,,,,,,,,,,,,,,,,,,,,,,,,,,,,,,,,,,,,,,
,8767,CAB,20/05/2004,001,2023-09-26_17h35.11.076,OS3_Mult_verification,2022.2.4,MacIntel,20,,,30,1.084,1,"[""3"",""0"",""return""]","[0.6439999999999984,0.8119999999999976,1.0449999999999946]",0,29,29,16,1,30,,,,,,,,,,,,,,,,,,,,,,,,,,,,,,,,,,,,,,,,,,,,,,,,,,,,,,,,,,,,,,,,,,,,,,,,,,,,,,,,,,,,,,,,,,,,,,,,,,,,,,,,,,,,,,,,,,,,,,,,,,,,,,,,,,,,,,,,,,,,,,,,,,,,,,,,,,,,,,,,,
,8767,CAB,20/05/2004,001,2023-09-26_17h35.11.076,OS3_Mult_verification,2022.2.4,MacIntel,20,,,27,1.449,1,"[""2"",""7"",""return""]","[1.0949999999999989,1.1600000000000037,1.4110000000000014]",0,30,30,14,1,27,,,,,,,,,,,,,,,,,,,,,,,,,,,,,,,,,,,,,,,,,,,,,,,,,,,,,,,,,,,,,,,,,,,,,,,,,,,,,,,,,,,,,,,,,,,,,,,,,,,,,,,,,,,,,,,,,,,,,,,,,,,,,,,,,,,,,,,,,,,,,,,,,,,,,,,,,,,,,,,,,
,8767,CAB,20/05/2004,001,2023-09-26_17h35.11.076,OS3_Mult_verification,2022.2.4,MacIntel,20,,,6,1.116,1,"[""6"",""return""]","[0.847999999999999,1.080999999999996]",1,0,31,1,1,6,,,,,,,,,,,,,,,,,,,,,,,,,,,,,,,,,,,,,,,,,,,,,,,,,,,,,,,,,,,,,,,,,,,,,,,,,,,,,,,,,,,,,,,,,,,,,,,,,,,,,,,,,,,,,,,,,,,,,,,,,,,,,,,,,,,,,,,,,,,,,,,,,,,,,,,,,,,,,,,,,
,8767,CAB,20/05/2004,001,2023-09-26_17h35.11.076,OS3_Mult_verification,2022.2.4,MacIntel,20,,,81,0.9,1,"[""8"",""1"",""return""]","[0.6319999999999979,0.6950000000000003,0.8649999999999949]",1,1,32,30,1,81,,,,,,,,,,,,,,,,,,,,,,,,,,,,,,,,,,,,,,,,,,,,,,,,,,,,,,,,,,,,,,,,,,,,,,,,,,,,,,,,,,,,,,,,,,,,,,,,,,,,,,,,,,,,,,,,,,,,,,,,,,,,,,,,,,,,,,,,,,,,,,,,,,,,,,,,,,,,,,,,,
,8767,CAB,20/05/2004,001,2023-09-26_17h35.11.076,OS3_Mult_verification,2022.2.4,MacIntel,20,,,16,0.967,1,"[""1"",""6"",""return""]","[0.5930000000000035,0.7270000000000039,0.9299999999999997]",1,2,33,8,1,16,,,,,,,,,,,,,,,,,,,,,,,,,,,,,,,,,,,,,,,,,,,,,,,,,,,,,,,,,,,,,,,,,,,,,,,,,,,,,,,,,,,,,,,,,,,,,,,,,,,,,,,,,,,,,,,,,,,,,,,,,,,,,,,,,,,,,,,,,,,,,,,,,,,,,,,,,,,,,,,,,
,8767,CAB,20/05/2004,001,2023-09-26_17h35.11.076,OS3_Mult_verification,2022.2.4,MacIntel,20,,,54,1.233,1,"[""5"",""4"",""return""]","[0.8449999999999989,1.078000000000003,1.1940000000000026]",1,3,34,25,1,54,,,,,,,,,,,,,,,,,,,,,,,,,,,,,,,,,,,,,,,,,,,,,,,,,,,,,,,,,,,,,,,,,,,,,,,,,,,,,,,,,,,,,,,,,,,,,,,,,,,,,,,,,,,,,,,,,,,,,,,,,,,,,,,,,,,,,,,,,,,,,,,,,,,,,,,,,,,,,,,,,
,8767,CAB,20/05/2004,001,2023-09-26_17h35.11.076,OS3_Mult_verification,2022.2.4,MacIntel,20,,,56,1.266,1,"[""5"",""6"",""return""]","[0.8019999999999996,0.9780000000000015,1.2310000000000016]",1,4,35,26,1,56,,,,,,,,,,,,,,,,,,,,,,,,,,,,,,,,,,,,,,,,,,,,,,,,,,,,,,,,,,,,,,,,,,,,,,,,,,,,,,,,,,,,,,,,,,,,,,,,,,,,,,,,,,,,,,,,,,,,,,,,,,,,,,,,,,,,,,,,,,,,,,,,,,,,,,,,,,,,,,,,,
,8767,CAB,20/05/2004,001,2023-09-26_17h35.11.076,OS3_Mult_verification,2022.2.4,MacIntel,20,,,35,1.066,1,"[""3"",""5"",""return""]","[0.6440000000000055,0.7800000000000011,1.0289999999999964]",1,5,36,18,1,35,,,,,,,,,,,,,,,,,,,,,,,,,,,,,,,,,,,,,,,,,,,,,,,,,,,,,,,,,,,,,,,,,,,,,,,,,,,,,,,,,,,,,,,,,,,,,,,,,,,,,,,,,,,,,,,,,,,,,,,,,,,,,,,,,,,,,,,,,,,,,,,,,,,,,,,,,,,,,,,,,
,8767,CAB,20/05/2004,001,2023-09-26_17h35.11.076,OS3_Mult_verification,2022.2.4,MacIntel,20,,,28,0.9,1,"[""2"",""8"",""return""]","[0.5460000000000065,0.6530000000000058,0.8590000000000089]",1,6,37,15,1,28,,,,,,,,,,,,,,,,,,,,,,,,,,,,,,,,,,,,,,,,,,,,,,,,,,,,,,,,,,,,,,,,,,,,,,,,,,,,,,,,,,,,,,,,,,,,,,,,,,,,,,,,,,,,,,,,,,,,,,,,,,,,,,,,,,,,,,,,,,,,,,,,,,,,,,,,,,,,,,,,,
,8767,CAB,20/05/2004,001,2023-09-26_17h35.11.076,OS3_Mult_verification,2022.2.4,MacIntel,20,,,48,1.766,1,"[""4"",""8"",""return""]","[0.9450000000000074,1.4950000000000045,1.7270000000000039]",1,7,38,23,1,48,,,,,,,,,,,,,,,,,,,,,,,,,,,,,,,,,,,,,,,,,,,,,,,,,,,,,,,,,,,,,,,,,,,,,,,,,,,,,,,,,,,,,,,,,,,,,,,,,,,,,,,,,,,,,,,,,,,,,,,,,,,,,,,,,,,,,,,,,,,,,,,,,,,,,,,,,,,,,,,,,
,8767,CAB,20/05/2004,001,2023-09-26_17h35.11.076,OS3_Mult_verification,2022.2.4,MacIntel,20,,,12,0.817,1,"[""1"",""2"",""return""]","[0.5789999999999935,0.7199999999999989,0.7839999999999918]",1,8,39,5,1,12,,,,,,,,,,,,,,,,,,,,,,,,,,,,,,,,,,,,,,,,,,,,,,,,,,,,,,,,,,,,,,,,,,,,,,,,,,,,,,,,,,,,,,,,,,,,,,,,,,,,,,,,,,,,,,,,,,,,,,,,,,,,,,,,,,,,,,,,,,,,,,,,,,,,,,,,,,,,,,,,,
,8767,CAB,20/05/2004,001,2023-09-26_17h35.11.076,OS3_Mult_verification,2022.2.4,MacIntel,20,,,10,0.867,1,"[""1"",""0"",""return""]","[0.5190000000000055,0.6140000000000043,0.8290000000000077]",1,9,40,4,1,10,,,,,,,,,,,,,,,,,,,,,,,,,,,,,,,,,,,,,,,,,,,,,,,,,,,,,,,,,,,,,,,,,,,,,,,,,,,,,,,,,,,,,,,,,,,,,,,,,,,,,,,,,,,,,,,,,,,,,,,,,,,,,,,,,,,,,,,,,,,,,,,,,,,,,,,,,,,,,,,,,
,8767,CAB,20/05/2004,001,2023-09-26_17h35.11.076,OS3_Mult_verification,2022.2.4,MacIntel,20,,,49,1.433,1,"[""4"",""9"",""return""]","[0.9789999999999992,1.1460000000000008,1.3960000000000008]",1,10,41,24,1,49,,,,,,,,,,,,,,,,,,,,,,,,,,,,,,,,,,,,,,,,,,,,,,,,,,,,,,,,,,,,,,,,,,,,,,,,,,,,,,,,,,,,,,,,,,,,,,,,,,,,,,,,,,,,,,,,,,,,,,,,,,,,,,,,,,,,,,,,,,,,,,,,,,,,,,,,,,,,,,,,,
,8767,CAB,20/05/2004,001,2023-09-26_17h35.11.076,OS3_Mult_verification,2022.2.4,MacIntel,20,,,24,1.999,0,"[""3"",""5"",""backspace"",""backspace"",""2"",""4"",""return""]","[1.0109999999999957,1.1099999999999994,1.4650000000000034,1.6020000000000039,1.6610000000000014,1.858000000000004,1.9669999999999987]",1,11,42,13,1,25,,,,,,,,,,,,,,,,,,,,,,,,,,,,,,,,,,,,,,,,,,,,,,,,,,,,,,,,,,,,,,,,,,,,,,,,,,,,,,,,,,,,,,,,,,,,,,,,,,,,,,,,,,,,,,,,,,,,,,,,,,,,,,,,,,,,,,,,,,,,,,,,,,,,,,,,,,,,,,,,,
,8767,CAB,20/05/2004,001,2023-09-26_17h35.11.076,OS3_Mult_verification,2022.2.4,MacIntel,20,,,40,2.567,1,"[""backspace"",""backspace"",""4"",""0"",""return""]","[0.7690000000000055,1.3290000000000077,2.2290000000000134,2.314000000000007,2.5290000000000106]",1,12,43,20,1,40,,,,,,,,,,,,,,,,,,,,,,,,,,,,,,,,,,,,,,,,,,,,,,,,,,,,,,,,,,,,,,,,,,,,,,,,,,,,,,,,,,,,,,,,,,,,,,,,,,,,,,,,,,,,,,,,,,,,,,,,,,,,,,,,,,,,,,,,,,,,,,,,,,,,,,,,,,,,,,,,,
,8767,CAB,20/05/2004,001,2023-09-26_17h35.11.076,OS3_Mult_verification,2022.2.4,MacIntel,20,,,14,1.117,1,"[""1"",""4"",""return""]","[0.6460000000000008,0.804000000000002,1.0790000000000077]",1,13,44,6,1,14,,,,,,,,,,,,,,,,,,,,,,,,,,,,,,,,,,,,,,,,,,,,,,,,,,,,,,,,,,,,,,,,,,,,,,,,,,,,,,,,,,,,,,,,,,,,,,,,,,,,,,,,,,,,,,,,,,,,,,,,,,,,,,,,,,,,,,,,,,,,,,,,,,,,,,,,,,,,,,,,,
,8767,CAB,20/05/2004,001,2023-09-26_17h35.11.076,OS3_Mult_verification,2022.2.4,MacIntel,20,,,42,1.184,1,"[""4"",""2"",""return""]","[0.8469999999999942,0.9449999999999932,1.144999999999996]",1,14,45,21,1,42,,,,,,,,,,,,,,,,,,,,,,,,,,,,,,,,,,,,,,,,,,,,,,,,,,,,,,,,,,,,,,,,,,,,,,,,,,,,,,,,,,,,,,,,,,,,,,,,,,,,,,,,,,,,,,,,,,,,,,,,,,,,,,,,,,,,,,,,,,,,,,,,,,,,,,,,,,,,,,,,,
,8767,CAB,20/05/2004,001,2023-09-26_17h35.11.076,OS3_Mult_verification,2022.2.4,MacIntel,20,,,15,1.183,1,"[""1"",""5"",""return""]","[0.6469999999999914,0.8810000000000002,1.1459999999999866]",1,15,46,7,1,15,,,,,,,,,,,,,,,,,,,,,,,,,,,,,,,,,,,,,,,,,,,,,,,,,,,,,,,,,,,,,,,,,,,,,,,,,,,,,,,,,,,,,,,,,,,,,,,,,,,,,,,,,,,,,,,,,,,,,,,,,,,,,,,,,,,,,,,,,,,,,,,,,,,,,,,,,,,,,,,,,
,8767,CAB,20/05/2004,001,2023-09-26_17h35.11.076,OS3_Mult_verification,2022.2.4,MacIntel,20,,,8,0.934,1,"[""8"",""return""]","[0.679000000000002,0.8960000000000008]",1,16,47,2,1,8,,,,,,,,,,,,,,,,,,,,,,,,,,,,,,,,,,,,,,,,,,,,,,,,,,,,,,,,,,,,,,,,,,,,,,,,,,,,,,,,,,,,,,,,,,,,,,,,,,,,,,,,,,,,,,,,,,,,,,,,,,,,,,,,,,,,,,,,,,,,,,,,,,,,,,,,,,,,,,,,,
,8767,CAB,20/05/2004,001,2023-09-26_17h35.11.076,OS3_Mult_verification,2022.2.4,MacIntel,20,,,20,0.984,1,"[""2"",""0"",""return""]","[0.6110000000000042,0.7199999999999989,0.945999999999998]",1,17,48,10,1,20,,,,,,,,,,,,,,,,,,,,,,,,,,,,,,,,,,,,,,,,,,,,,,,,,,,,,,,,,,,,,,,,,,,,,,,,,,,,,,,,,,,,,,,,,,,,,,,,,,,,,,,,,,,,,,,,,,,,,,,,,,,,,,,,,,,,,,,,,,,,,,,,,,,,,,,,,,,,,,,,,
,8767,CAB,20/05/2004,001,2023-09-26_17h35.11.076,OS3_Mult_verification,2022.2.4,MacIntel,20,,,27,1.117,1,"[""2"",""7"",""return""]","[0.679000000000002,0.8359999999999985,1.0840000000000032]",1,18,49,14,1,27,,,,,,,,,,,,,,,,,,,,,,,,,,,,,,,,,,,,,,,,,,,,,,,,,,,,,,,,,,,,,,,,,,,,,,,,,,,,,,,,,,,,,,,,,,,,,,,,,,,,,,,,,,,,,,,,,,,,,,,,,,,,,,,,,,,,,,,,,,,,,,,,,,,,,,,,,,,,,,,,,
,8767,CAB,20/05/2004,001,2023-09-26_17h35.11.076,OS3_Mult_verification,2022.2.4,MacIntel,20,,,36,1.351,1,"[""3"",""6"",""return""]","[0.9890000000000043,1.0699999999999932,1.3179999999999978]",1,19,50,19,1,36,,,,,,,,,,,,,,,,,,,,,,,,,,,,,,,,,,,,,,,,,,,,,,,,,,,,,,,,,,,,,,,,,,,,,,,,,,,,,,,,,,,,,,,,,,,,,,,,,,,,,,,,,,,,,,,,,,,,,,,,,,,,,,,,,,,,,,,,,,,,,,,,,,,,,,,,,,,,,,,,,
,8767,CAB,20/05/2004,001,2023-09-26_17h35.11.076,OS3_Mult_verification,2022.2.4,MacIntel,20,,,32,1.15,1,"[""3"",""2"",""return""]","[0.7940000000000111,0.9009999999999962,1.1110000000000042]",1,20,51,17,1,32,,,,,,,,,,,,,,,,,,,,,,,,,,,,,,,,,,,,,,,,,,,,,,,,,,,,,,,,,,,,,,,,,,,,,,,,,,,,,,,,,,,,,,,,,,,,,,,,,,,,,,,,,,,,,,,,,,,,,,,,,,,,,,,,,,,,,,,,,,,,,,,,,,,,,,,,,,,,,,,,,
,8767,CAB,20/05/2004,001,2023-09-26_17h35.11.076,OS3_Mult_verification,2022.2.4,MacIntel,20,,,9,0.833,1,"[""9"",""return""]","[0.585000000000008,0.7990000000000066]",1,21,52,3,1,9,,,,,,,,,,,,,,,,,,,,,,,,,,,,,,,,,,,,,,,,,,,,,,,,,,,,,,,,,,,,,,,,,,,,,,,,,,,,,,,,,,,,,,,,,,,,,,,,,,,,,,,,,,,,,,,,,,,,,,,,,,,,,,,,,,,,,,,,,,,,,,,,,,,,,,,,,,,,,,,,,
,8767,CAB,20/05/2004,001,2023-09-26_17h35.11.076,OS3_Mult_verification,2022.2.4,MacIntel,20,,,64,1.366,1,"[""6"",""4"",""return""]","[0.8469999999999942,1.210000000000008,1.3290000000000077]",1,22,53,28,1,64,,,,,,,,,,,,,,,,,,,,,,,,,,,,,,,,,,,,,,,,,,,,,,,,,,,,,,,,,,,,,,,,,,,,,,,,,,,,,,,,,,,,,,,,,,,,,,,,,,,,,,,,,,,,,,,,,,,,,,,,,,,,,,,,,,,,,,,,,,,,,,,,,,,,,,,,,,,,,,,,,
,8767,CAB,20/05/2004,001,2023-09-26_17h35.11.076,OS3_Mult_verification,2022.2.4,MacIntel,20,,,18,0.933,1,"[""1"",""8"",""return""]","[0.5829999999999984,0.6949999999999932,0.894999999999996]",1,23,54,9,1,18,,,,,,,,,,,,,,,,,,,,,,,,,,,,,,,,,,,,,,,,,,,,,,,,,,,,,,,,,,,,,,,,,,,,,,,,,,,,,,,,,,,,,,,,,,,,,,,,,,,,,,,,,,,,,,,,,,,,,,,,,,,,,,,,,,,,,,,,,,,,,,,,,,,,,,,,,,,,,,,,,
,8767,CAB,20/05/2004,001,2023-09-26_17h35.11.076,OS3_Mult_verification,2022.2.4,MacIntel,20,,,45,1.366,1,"[""4"",""5"",""return""]","[0.9789999999999992,1.0769999999999982,1.3269999999999982]",1,24,55,22,1,45,,,,,,,,,,,,,,,,,,,,,,,,,,,,,,,,,,,,,,,,,,,,,,,,,,,,,,,,,,,,,,,,,,,,,,,,,,,,,,,,,,,,,,,,,,,,,,,,,,,,,,,,,,,,,,,,,,,,,,,,,,,,,,,,,,,,,,,,,,,,,,,,,,,,,,,,,,,,,,,,,
,8767,CAB,20/05/2004,001,2023-09-26_17h35.11.076,OS3_Mult_verification,2022.2.4,MacIntel,20,,,21,0.882,1,"[""2"",""1"",""return""]","[0.6270000000000095,0.7820000000000107,0.8430000000000035]",1,25,56,11,1,21,,,,,,,,,,,,,,,,,,,,,,,,,,,,,,,,,,,,,,,,,,,,,,,,,,,,,,,,,,,,,,,,,,,,,,,,,,,,,,,,,,,,,,,,,,,,,,,,,,,,,,,,,,,,,,,,,,,,,,,,,,,,,,,,,,,,,,,,,,,,,,,,,,,,,,,,,,,,,,,,,
,8767,CAB,20/05/2004,001,2023-09-26_17h35.11.076,OS3_Mult_verification,2022.2.4,MacIntel,20,,,24,1.083,1,"[""2"",""4"",""return""]","[0.5619999999999976,0.8950000000000102,1.043999999999997]",1,26,57,12,1,24,,,,,,,,,,,,,,,,,,,,,,,,,,,,,,,,,,,,,,,,,,,,,,,,,,,,,,,,,,,,,,,,,,,,,,,,,,,,,,,,,,,,,,,,,,,,,,,,,,,,,,,,,,,,,,,,,,,,,,,,,,,,,,,,,,,,,,,,,,,,,,,,,,,,,,,,,,,,,,,,,
,8767,CAB,20/05/2004,001,2023-09-26_17h35.11.076,OS3_Mult_verification,2022.2.4,MacIntel,20,,,72,1.066,1,"[""7"",""2"",""return""]","[0.818000000000012,0.9140000000000015,1.0290000000000106]",1,27,58,29,1,72,,,,,,,,,,,,,,,,,,,,,,,,,,,,,,,,,,,,,,,,,,,,,,,,,,,,,,,,,,,,,,,,,,,,,,,,,,,,,,,,,,,,,,,,,,,,,,,,,,,,,,,,,,,,,,,,,,,,,,,,,,,,,,,,,,,,,,,,,,,,,,,,,,,,,,,,,,,,,,,,,
,8767,CAB,20/05/2004,001,2023-09-26_17h35.11.076,OS3_Mult_verification,2022.2.4,MacIntel,20,,,63,1.316,1,"[""6"",""3"",""return""]","[0.7469999999999999,1.093999999999994,1.2809999999999917]",1,28,59,27,1,63,,,,,,,,,,,,,,,,,,,,,,,,,,,,,,,,,,,,,,,,,,,,,,,,,,,,,,,,,,,,,,,,,,,,,,,,,,,,,,,,,,,,,,,,,,,,,,,,,,,,,,,,,,,,,,,,,,,,,,,,,,,,,,,,,,,,,,,,,,,,,,,,,,,,,,,,,,,,,,,,,
,8767,CAB,20/05/2004,001,2023-09-26_17h35.11.076,OS3_Mult_verification,2022.2.4,MacIntel,20,,,30,0.966,1,"[""3"",""0"",""return""]","[0.6110000000000042,0.7120000000000033,0.9280000000000115]",1,29,60,16,1,30,,,,,,,,,,,,,,,,,,,,,,,,,,,,,,,,,,,,,,,,,,,,,,,,,,,,,,,,,,,,,,,,,,,,,,,,,,,,,,,,,,,,,,,,,,,,,,,,,,,,,,,,,,,,,,,,,,,,,,,,,,,,,,,,,,,,,,,,,,,,,,,,,,,,,,,,,,,,,,,,,
,8767,CAB,20/05/2004,001,2023-09-26_17h35.11.076,OS3_Mult_verification,2022.2.4,MacIntel,20,,,4,0.917,1,"[""4"",""return""]","[0.7659999999999911,0.8789999999999907]",1,30,61,0,1,4,,,,,,,,,,,,,,,,,,,,,,,,,,,,,,,,,,,,,,,,,,,,,,,,,,,,,,,,,,,,,,,,,,,,,,,,,,,,,,,,,,,,,,,,,,,,,,,,,,,,,,,,,,,,,,,,,,,,,,,,,,,,,,,,,,,,,,,,,,,,,,,,,,,,,,,,,,,,,,,,,
,8767,CAB,20/05/2004,001,2023-09-26_17h35.11.076,OS3_Mult_verification,2022.2.4,MacIntel,20,,,,,,,,,,,,,,space,1.725,,,,,,,,,,,,,,,,,,,,,,,,,,,,,,,,,,,,,,,,,,,,,,,,,,,,,,,,,,,,,,,,,,,,,,,,,,,,,,,,,,,,,,,,,,,,,,,,,,,,,,,,,,,,,,,,,,,,,,,,,,,,,,,,,,,,,,,,,,,,,,,,,,,,,,,,,,,,,,,
,8767,CAB,20/05/2004,001,2023-09-26_17h35.11.076,OS3_Mult_verification,2022.2.4,MacIntel,20,,,,,,,,,,,,,,,,,,,,,,,,,,,,,,,,,,,,,,,,,,,,,,,,,,,,,,,,,,,,,,,,,,,,,,,,,,,,,,,,,,,,,,,,,,,,,,,,,,,,,,,,,,,,,,,,,,,,,,,,,,,,,,,,,,,,,,,,,,,,,,,,,,,,,,,,,,,,,,,,,,,,,,,,,,,,,,
,8767,CAB,20/05/2004,001,2023-09-26_17h35.11.076,OS3_Mult_verification,2022.2.4,MacIntel,20,,,,,,,,,,,,,,,,space,6.874,,,,,,,,,,,,,,,,,,,,,,,,,,,,,,,,,,,,,,,,,,,,,,,,,,,,,,,,,,,,,,,,,,,,,,,,,,,,,,,,,,,,,,,,,,,,,,,,,,,,,,,,,,,,,,,,,,,,,,,,,,,,,,,,,,,,,,,,,,,,,,,,,,,,,,,,,,,,,
,8767,CAB,20/05/2004,001,2023-09-26_17h35.11.076,OS3_Mult_verification,2022.2.4,MacIntel,20,,,,,,,,,,,,,,,,,,20,1.723,1,"[""2"",""0"",""return""]","[1.1110000000000468,1.2129999999999939,1.4240000000000066]",0,0,0,1,1,2 × 10 =,20,,,,,,,,,,,,,,,,,,,,,,,,,,,,,,,,,,,,,,,,,,,,,,,,,,,,,,,,,,,,,,,,,,,,,,,,,,,,,,,,,,,,,,,,,,,,,,,,,,,,,,,,,,,,,,,,,,,,,,,,,,,,,,,,,,,,,,,,,,,,,,,,,
,8767,CAB,20/05/2004,001,2023-09-26_17h35.11.076,OS3_Mult_verification,2022.2.4,MacIntel,20,,,,,,,,,,,,,,,,,,7,2.831,1,"[""6"",""backspace"",""6"",""backspace"",""7"",""return""]","[1.1960000000000264,1.646000000000015,1.795000000000016,2.312000000000012,2.3940000000000055,2.52800000000002]",0,1,1,0,1,1 × 7 =,7,,,,,,,,,,,,,,,,,,,,,,,,,,,,,,,,,,,,,,,,,,,,,,,,,,,,,,,,,,,,,,,,,,,,,,,,,,,,,,,,,,,,,,,,,,,,,,,,,,,,,,,,,,,,,,,,,,,,,,,,,,,,,,,,,,,,,,,,,,,,,,,,,
,8767,CAB,20/05/2004,001,2023-09-26_17h35.11.076,OS3_Mult_verification,2022.2.4,MacIntel,20,,,,,,,,,,,,,,,,,,22,1.798,1,"[""2"",""2"",""return""]","[0.9770000000000039,1.1330000000000098,1.4939999999999998]",0,2,2,2,1,2 × 11 =,22,,,,,,,,,,,,,,,,,,,,,,,,,,,,,,,,,,,,,,,,,,,,,,,,,,,,,,,,,,,,,,,,,,,,,,,,,,,,,,,,,,,,,,,,,,,,,,,,,,,,,,,,,,,,,,,,,,,,,,,,,,,,,,,,,,,,,,,,,,,,,,,,,
,8767,CAB,20/05/2004,001,2023-09-26_17h35.11.076,OS3_Mult_verification,2022.2.4,MacIntel,20,,,,,,,,,,,,,,,,,,,,,,,,,,,,,,,,,,,,,,,,,,,,,,,,,,,,,,,,,,,,,,,,,,,,,,,,,,,,,,,,,,,,,,,,,,,,,,,,,,,,,,,,,,,,,,,,,,,,,,,,,,,,,,,,,,,,,,,,,,,,,,,,,,,,,,,,,,,,,,,,,,,,,,,,,,,,,,
,8767,CAB,20/05/2004,001,2023-09-26_17h35.11.076,OS3_Mult_verification,2022.2.4,MacIntel,20,,,,,,,,,,,,,,,,,,,,,,,,,,,,,,,,,,,,,,,,,,,,,,,,,,,,,,,,,,,,,,,,,,,,,,,,,,,,,,,,,,,,,,,,,,,,,,,,,,,,,,,,,,,,,,,,,,,,,,,,,,,,,,,,,,,,,,,,,,,,,,,,,,,,,,,,,,,,,,,,,,,,,,,,,,,,,,
,8767,CAB,20/05/2004,001,2023-09-26_17h35.11.076,OS3_Mult_verification,2022.2.4,MacIntel,20,,,,,,,,,,,,,,,,,,6,1.754,1,"[""6"",""return""]","[1.3120000000000118,1.4620000000000175]",,,,,,2 × 3 =,6,0,0,0,0,1,,,,,,,,,,,,,,,,,,,,,,,,,,,,,,,,,,,,,,,,,,,,,,,,,,,,,,,,,,,,,,,,,,,,,,,,,,,,,,,,,,,,,,,,,,,,,,,,,,,,,,,,,,,,,,,,,,,,,,,,,,,,,,,,,,,,,,,,,,,,
,8767,CAB,20/05/2004,001,2023-09-26_17h35.11.076,OS3_Mult_verification,2022.2.4,MacIntel,20,,,,,,,,,,,,,,,,,,40,2.631,1,"[""4"",""0"",""return""]","[1.929000000000002,2.078000000000003,2.328000000000003]",,,,,,5 × 8 =,40,0,1,1,1,1,,,,,,,,,,,,,,,,,,,,,,,,,,,,,,,,,,,,,,,,,,,,,,,,,,,,,,,,,,,,,,,,,,,,,,,,,,,,,,,,,,,,,,,,,,,,,,,,,,,,,,,,,,,,,,,,,,,,,,,,,,,,,,,,,,,,,,,,,,,,
,8767,CAB,20/05/2004,001,2023-09-26_17h35.11.076,OS3_Mult_verification,2022.2.4,MacIntel,20,,,,,,,,,,,,,,,,,,12,1.616,1,"[""1"",""2"",""return""]","[1.0449999999999875,1.1810000000000116,1.3160000000000025]",,,,,,3 × 4 =,12,0,2,2,2,1,,,,,,,,,,,,,,,,,,,,,,,,,,,,,,,,,,,,,,,,,,,,,,,,,,,,,,,,,,,,,,,,,,,,,,,,,,,,,,,,,,,,,,,,,,,,,,,,,,,,,,,,,,,,,,,,,,,,,,,,,,,,,,,,,,,,,,,,,,,,
,8767,CAB,20/05/2004,001,2023-09-26_17h35.11.076,OS3_Mult_verification,2022.2.4,MacIntel,20,,,,,,,,,,,,,,,,,,15,1.416,1,"[""1"",""5"",""return""]","[0.7960000000000207,0.8650000000000091,1.1189999999999998]",,,,,,5 × 3 =,15,0,3,3,3,1,,,,,,,,,,,,,,,,,,,,,,,,,,,,,,,,,,,,,,,,,,,,,,,,,,,,,,,,,,,,,,,,,,,,,,,,,,,,,,,,,,,,,,,,,,,,,,,,,,,,,,,,,,,,,,,,,,,,,,,,,,,,,,,,,,,,,,,,,,,,
,8767,CAB,20/05/2004,001,2023-09-26_17h35.11.076,OS3_Mult_verification,2022.2.4,MacIntel,20,,,,,,,,,,,,,,,,,,8,1.515,1,"[""8"",""return""]","[0.950000000000017,1.2180000000000177]",,,,,,2 × 4 =,8,0,4,4,4,1,,,,,,,,,,,,,,,,,,,,,,,,,,,,,,,,,,,,,,,,,,,,,,,,,,,,,,,,,,,,,,,,,,,,,,,,,,,,,,,,,,,,,,,,,,,,,,,,,,,,,,,,,,,,,,,,,,,,,,,,,,,,,,,,,,,,,,,,,,,,
,8767,CAB,20/05/2004,001,2023-09-26_17h35.11.076,OS3_Mult_verification,2022.2.4,MacIntel,20,,,,,,,,,,,,,,,,,,4,1.198,1,"[""4"",""return""]","[0.8130000000000166,0.9010000000000105]",,,,,,2 × 2 =,4,0,5,5,5,1,,,,,,,,,,,,,,,,,,,,,,,,,,,,,,,,,,,,,,,,,,,,,,,,,,,,,,,,,,,,,,,,,,,,,,,,,,,,,,,,,,,,,,,,,,,,,,,,,,,,,,,,,,,,,,,,,,,,,,,,,,,,,,,,,,,,,,,,,,,,
,8767,CAB,20/05/2004,001,2023-09-26_17h35.11.076,OS3_Mult_verification,2022.2.4,MacIntel,20,,,,,,,,,,,,,,,,,,20,1.532,1,"[""2"",""0"",""return""]","[0.936000000000007,1.0149999999999864,1.2309999999999945]",,,,,,4 × 5 =,20,0,6,6,6,1,,,,,,,,,,,,,,,,,,,,,,,,,,,,,,,,,,,,,,,,,,,,,,,,,,,,,,,,,,,,,,,,,,,,,,,,,,,,,,,,,,,,,,,,,,,,,,,,,,,,,,,,,,,,,,,,,,,,,,,,,,,,,,,,,,,,,,,,,,,,
,8767,CAB,20/05/2004,001,2023-09-26_17h35.11.076,OS3_Mult_verification,2022.2.4,MacIntel,20,,,,,,,,,,,,,,,,,,9,1.416,1,"[""9"",""return""]","[0.9110000000000014,1.1160000000000139]",,,,,,3 × 3 =,9,0,7,7,7,1,,,,,,,,,,,,,,,,,,,,,,,,,,,,,,,,,,,,,,,,,,,,,,,,,,,,,,,,,,,,,,,,,,,,,,,,,,,,,,,,,,,,,,,,,,,,,,,,,,,,,,,,,,,,,,,,,,,,,,,,,,,,,,,,,,,,,,,,,,,,
,8767,CAB,20/05/2004,001,2023-09-26_17h35.11.076,OS3_Mult_verification,2022.2.4,MacIntel,20,,,,,,,,,,,,,,,,,,10,1.331,1,"[""1"",""0"",""return""]","[0.7270000000000039,0.8259999999999934,1.0269999999999868]",,,,,,5 × 2 =,10,0,8,8,8,1,,,,,,,,,,,,,,,,,,,,,,,,,,,,,,,,,,,,,,,,,,,,,,,,,,,,,,,,,,,,,,,,,,,,,,,,,,,,,,,,,,,,,,,,,,,,,,,,,,,,,,,,,,,,,,,,,,,,,,,,,,,,,,,,,,,,,,,,,,,,
,8767,CAB,20/05/2004,001,2023-09-26_17h35.11.076,OS3_Mult_verification,2022.2.4,MacIntel,20,,,,,,,,,,,,,,,,,,16,1.532,1,"[""1"",""6"",""return""]","[0.8610000000000184,0.9950000000000045,1.2280000000000086]",,,,,,4 × 4 =,16,0,9,9,9,1,,,,,,,,,,,,,,,,,,,,,,,,,,,,,,,,,,,,,,,,,,,,,,,,,,,,,,,,,,,,,,,,,,,,,,,,,,,,,,,,,,,,,,,,,,,,,,,,,,,,,,,,,,,,,,,,,,,,,,,,,,,,,,,,,,,,,,,,,,,,
,8767,CAB,20/05/2004,001,2023-09-26_17h35.11.076,OS3_Mult_verification,2022.2.4,MacIntel,20,,,,,,,,,,,,,,,,,,24,3.916,1,"[""2"",""4"",""return""]","[2.594999999999999,3.4950000000000045,3.6149999999999807]",,,,,,8 × 3 =,24,0,10,10,10,1,,,,,,,,,,,,,,,,,,,,,,,,,,,,,,,,,,,,,,,,,,,,,,,,,,,,,,,,,,,,,,,,,,,,,,,,,,,,,,,,,,,,,,,,,,,,,,,,,,,,,,,,,,,,,,,,,,,,,,,,,,,,,,,,,,,,,,,,,,,,
,8767,CAB,20/05/2004,001,2023-09-26_17h35.11.076,OS3_Mult_verification,2022.2.4,MacIntel,20,,,,,,,,,,,,,,,,,,30,1.716,1,"[""3"",""0"",""return""]","[1.1119999999999948,1.211999999999989,1.417999999999978]",,,,,,6 × 5 =,30,0,11,11,11,1,,,,,,,,,,,,,,,,,,,,,,,,,,,,,,,,,,,,,,,,,,,,,,,,,,,,,,,,,,,,,,,,,,,,,,,,,,,,,,,,,,,,,,,,,,,,,,,,,,,,,,,,,,,,,,,,,,,,,,,,,,,,,,,,,,,,,,,,,,,,
,8767,CAB,20/05/2004,001,2023-09-26_17h35.11.076,OS3_Mult_verification,2022.2.4,MacIntel,20,,,,,,,,,,,,,,,,,,14,1.531,1,"[""1"",""4"",""return""]","[0.8770000000000095,1.0769999999999982,1.2280000000000086]",,,,,,7 × 2 =,14,0,12,12,12,1,,,,,,,,,,,,,,,,,,,,,,,,,,,,,,,,,,,,,,,,,,,,,,,,,,,,,,,,,,,,,,,,,,,,,,,,,,,,,,,,,,,,,,,,,,,,,,,,,,,,,,,,,,,,,,,,,,,,,,,,,,,,,,,,,,,,,,,,,,,,
,8767,CAB,20/05/2004,001,2023-09-26_17h35.11.076,OS3_Mult_verification,2022.2.4,MacIntel,20,,,,,,,,,,,,,,,,,,27,2.865,1,"[""2"",""7"",""return""]","[2.1450000000000102,2.3610000000000184,2.569000000000017]",,,,,,3 × 9 =,27,0,13,13,13,1,,,,,,,,,,,,,,,,,,,,,,,,,,,,,,,,,,,,,,,,,,,,,,,,,,,,,,,,,,,,,,,,,,,,,,,,,,,,,,,,,,,,,,,,,,,,,,,,,,,,,,,,,,,,,,,,,,,,,,,,,,,,,,,,,,,,,,,,,,,,
,8767,CAB,20/05/2004,001,2023-09-26_17h35.11.076,OS3_Mult_verification,2022.2.4,MacIntel,20,,,,,,,,,,,,,,,,,,16,1.882,1,"[""1"",""6"",""return""]","[1.2109999999999843,1.36099999999999,1.5840000000000032]",,,,,,2 × 8 =,16,0,14,14,14,1,,,,,,,,,,,,,,,,,,,,,,,,,,,,,,,,,,,,,,,,,,,,,,,,,,,,,,,,,,,,,,,,,,,,,,,,,,,,,,,,,,,,,,,,,,,,,,,,,,,,,,,,,,,,,,,,,,,,,,,,,,,,,,,,,,,,,,,,,,,,
,8767,CAB,20/05/2004,001,2023-09-26_17h35.11.076,OS3_Mult_verification,2022.2.4,MacIntel,20,,,,,,,,,,,,,,,,,,24,3.899,1,"[""2"",""4"",""return""]","[1.8949999999999818,3.1119999999999948,3.600999999999999]",,,,,,4 × 6 =,24,0,15,15,15,1,,,,,,,,,,,,,,,,,,,,,,,,,,,,,,,,,,,,,,,,,,,,,,,,,,,,,,,,,,,,,,,,,,,,,,,,,,,,,,,,,,,,,,,,,,,,,,,,,,,,,,,,,,,,,,,,,,,,,,,,,,,,,,,,,,,,,,,,,,,,
,8767,CAB,20/05/2004,001,2023-09-26_17h35.11.076,OS3_Mult_verification,2022.2.4,MacIntel,20,,,,,,,,,,,,,,,,,,21,1.598,1,"[""2"",""1"",""return""]","[0.9669999999999845,1.1320000000000334,1.2980000000000018]",,,,,,7 × 3 =,21,0,16,16,16,1,,,,,,,,,,,,,,,,,,,,,,,,,,,,,,,,,,,,,,,,,,,,,,,,,,,,,,,,,,,,,,,,,,,,,,,,,,,,,,,,,,,,,,,,,,,,,,,,,,,,,,,,,,,,,,,,,,,,,,,,,,,,,,,,,,,,,,,,,,,,
,8767,CAB,20/05/2004,001,2023-09-26_17h35.11.076,OS3_Mult_verification,2022.2.4,MacIntel,20,,,,,,,,,,,,,,,,,,27,4.132,1,"[""2"",""7"",""return""]","[2.9470000000000027,3.319999999999993,3.8289999999999793]",,,,,,9 × 3 =,27,0,17,17,17,1,,,,,,,,,,,,,,,,,,,,,,,,,,,,,,,,,,,,,,,,,,,,,,,,,,,,,,,,,,,,,,,,,,,,,,,,,,,,,,,,,,,,,,,,,,,,,,,,,,,,,,,,,,,,,,,,,,,,,,,,,,,,,,,,,,,,,,,,,,,,
,8767,CAB,20/05/2004,001,2023-09-26_17h35.11.076,OS3_Mult_verification,2022.2.4,MacIntel,20,,,,,,,,,,,,,,,,,,28,4.748,1,"[""2"",""8"",""return""]","[4.094999999999999,4.187000000000012,4.449000000000012]",,,,,,4 × 7 =,28,0,18,18,18,1,,,,,,,,,,,,,,,,,,,,,,,,,,,,,,,,,,,,,,,,,,,,,,,,,,,,,,,,,,,,,,,,,,,,,,,,,,,,,,,,,,,,,,,,,,,,,,,,,,,,,,,,,,,,,,,,,,,,,,,,,,,,,,,,,,,,,,,,,,,,
,8767,CAB,20/05/2004,001,2023-09-26_17h35.11.076,OS3_Mult_verification,2022.2.4,MacIntel,20,,,,,,,,,,,,,,,,,,18,1.484,1,"[""1"",""8"",""return""]","[0.8269999999999982,0.9609999999999843,1.1939999999999884]",,,,,,2 × 9 =,18,0,19,19,19,1,,,,,,,,,,,,,,,,,,,,,,,,,,,,,,,,,,,,,,,,,,,,,,,,,,,,,,,,,,,,,,,,,,,,,,,,,,,,,,,,,,,,,,,,,,,,,,,,,,,,,,,,,,,,,,,,,,,,,,,,,,,,,,,,,,,,,,,,,,,,
,8767,CAB,20/05/2004,001,2023-09-26_17h35.11.076,OS3_Mult_verification,2022.2.4,MacIntel,20,,,,,,,,,,,,,,,,,,72,4.799,1,"[""7"",""2"",""return""]","[4.097999999999985,4.165999999999997,4.4950000000000045]",,,,,,9 × 8 =,72,0,20,20,20,1,,,,,,,,,,,,,,,,,,,,,,,,,,,,,,,,,,,,,,,,,,,,,,,,,,,,,,,,,,,,,,,,,,,,,,,,,,,,,,,,,,,,,,,,,,,,,,,,,,,,,,,,,,,,,,,,,,,,,,,,,,,,,,,,,,,,,,,,,,,,
,8767,CAB,20/05/2004,001,2023-09-26_17h35.11.076,OS3_Mult_verification,2022.2.4,MacIntel,20,,,,,,,,,,,,,,,,,,42,17.298,1,"[""4"",""2"",""return""]","[6.746999999999986,10.780000000000001,17]",,,,,,7 × 6 =,42,0,21,21,21,1,,,,,,,,,,,,,,,,,,,,,,,,,,,,,,,,,,,,,,,,,,,,,,,,,,,,,,,,,,,,,,,,,,,,,,,,,,,,,,,,,,,,,,,,,,,,,,,,,,,,,,,,,,,,,,,,,,,,,,,,,,,,,,,,,,,,,,,,,,,,
,8767,CAB,20/05/2004,001,2023-09-26_17h35.11.076,OS3_Mult_verification,2022.2.4,MacIntel,20,,,,,,,,,,,,,,,,,,54,3.863,1,"[""5"",""4"",""return""]","[3.2280000000000086,3.415999999999997,3.5620000000000402]",,,,,,6 × 9 =,54,0,22,22,22,1,,,,,,,,,,,,,,,,,,,,,,,,,,,,,,,,,,,,,,,,,,,,,,,,,,,,,,,,,,,,,,,,,,,,,,,,,,,,,,,,,,,,,,,,,,,,,,,,,,,,,,,,,,,,,,,,,,,,,,,,,,,,,,,,,,,,,,,,,,,,
,8767,CAB,20/05/2004,001,2023-09-26_17h35.11.076,OS3_Mult_verification,2022.2.4,MacIntel,20,,,,,,,,,,,,,,,,,,45,5.832,1,"[""4"",""6"",""5"",""backspace"",""backspace"",""5"",""return""]","[2.744999999999976,2.8689999999999998,2.897999999999996,3.478999999999985,3.6129999999999995,3.887999999999977,5.528999999999996]",,,,,,9 × 5 =,45,0,23,23,23,1,,,,,,,,,,,,,,,,,,,,,,,,,,,,,,,,,,,,,,,,,,,,,,,,,,,,,,,,,,,,,,,,,,,,,,,,,,,,,,,,,,,,,,,,,,,,,,,,,,,,,,,,,,,,,,,,,,,,,,,,,,,,,,,,,,,,,,,,,,,,
,8767,CAB,20/05/2004,001,2023-09-26_17h35.11.076,OS3_Mult_verification,2022.2.4,MacIntel,20,,,,,,,,,,,,,,,,,,56,2.982,1,"[""5"",""6"",""return""]","[2.2450000000000045,2.3470000000000084,2.679000000000002]",,,,,,8 × 7 =,56,0,24,24,24,1,,,,,,,,,,,,,,,,,,,,,,,,,,,,,,,,,,,,,,,,,,,,,,,,,,,,,,,,,,,,,,,,,,,,,,,,,,,,,,,,,,,,,,,,,,,,,,,,,,,,,,,,,,,,,,,,,,,,,,,,,,,,,,,,,,,,,,,,,,,,
,8767,CAB,20/05/2004,001,2023-09-26_17h35.11.076,OS3_Mult_verification,2022.2.4,MacIntel,20,,,,,,,,,,,,,,,,,,36,1.782,1,"[""3"",""6"",""return""]","[1.1450000000000102,1.2450000000000045,1.4790000000000134]",,,,,,6 × 6 =,36,0,25,25,25,1,,,,,,,,,,,,,,,,,,,,,,,,,,,,,,,,,,,,,,,,,,,,,,,,,,,,,,,,,,,,,,,,,,,,,,,,,,,,,,,,,,,,,,,,,,,,,,,,,,,,,,,,,,,,,,,,,,,,,,,,,,,,,,,,,,,,,,,,,,,,
,8767,CAB,20/05/2004,001,2023-09-26_17h35.11.076,OS3_Mult_verification,2022.2.4,MacIntel,20,,,,,,,,,,,,,,,,,,35,2.616,1,"[""3"",""5"",""return""]","[1.5440000000000111,1.6830000000000211,2.3160000000000025]",,,,,,5 × 7 =,35,0,26,26,26,1,,,,,,,,,,,,,,,,,,,,,,,,,,,,,,,,,,,,,,,,,,,,,,,,,,,,,,,,,,,,,,,,,,,,,,,,,,,,,,,,,,,,,,,,,,,,,,,,,,,,,,,,,,,,,,,,,,,,,,,,,,,,,,,,,,,,,,,,,,,,
,8767,CAB,20/05/2004,001,2023-09-26_17h35.11.076,OS3_Mult_verification,2022.2.4,MacIntel,20,,,,,,,,,,,,,,,,,,36,4.65,1,"[""3"",""6"",""return""]","[3.697999999999979,3.843999999999994,4.343999999999994]",,,,,,4 × 9 =,36,0,27,27,27,1,,,,,,,,,,,,,,,,,,,,,,,,,,,,,,,,,,,,,,,,,,,,,,,,,,,,,,,,,,,,,,,,,,,,,,,,,,,,,,,,,,,,,,,,,,,,,,,,,,,,,,,,,,,,,,,,,,,,,,,,,,,,,,,,,,,,,,,,,,,,
,8767,CAB,20/05/2004,001,2023-09-26_17h35.11.076,OS3_Mult_verification,2022.2.4,MacIntel,20,,,,,,,,,,,,,,,,,,,2.432,0,,,,,,,,8 × 6 =,48,0,28,28,28,1,,,,,,,,,,,,,,,,,,,,,,,,,,,,,,,,,,,,,,,,,,,,,,,,,,,,,,,,,,,,,,,,,,,,,,,,,,,,,,,,,,,,,,,,,,,,,,,,,,,,,,,,,,,,,,,,,,,,,,,,,,,,,,,,,,,,,,,,,,,,
,8767,CAB,20/05/2004,001,2023-09-26_17h35.11.076,OS3_Mult_verification,2022.2.4,MacIntel,20,,,,,,,,,,,,,,,,space,2.045,,,,,,,,,,,,,,,,,,space,4.238,321,1.531,1,"[""3"",""2"",""1"",""return""]","[0.5249999999999773,0.7729999999999677,1.0129999999999768,1.497000000000014]",0,0,0,1,1,3,321,Audio/321.mp3,practice,,,,,,,,,,,,,,,,,,,,,,,,,,,,,,,,,,,,,,,,,,,,,,,,,,,,,,,,,,,,,,,,,,,,,,,,,,,,,,,,,,,,,,,,,,,,,,,,,,,,,,,,,,,,,,,,,,,,,,,,,,,,
,8767,CAB,20/05/2004,001,2023-09-26_17h35.11.076,OS3_Mult_verification,2022.2.4,MacIntel,20,,,,,,,,,,,,,,,,,,,,,,,,,,,,,,,,,,,,,123,8.252,1,"[""1"",""2"",""3"",""return""]","[7.019999999999982,7.185999999999979,7.3349999999999795,8.218999999999994]",0,1,1,0,1,3,123,Audio/123.mp3,practice,,,,,,,,,,,,,,,,,,,,,,,,,,,,,,,,,,,,,,,,,,,,,,,,,,,,,,,,,,,,,,,,,,,,,,,,,,,,,,,,,,,,,,,,,,,,,,,,,,,,,,,,,,,,,,,,,,,,,,,,,,,,
,8767,CAB,20/05/2004,001,2023-09-26_17h35.11.076,OS3_Mult_verification,2022.2.4,MacIntel,20,,,,,,,,,,,,,,,,,,,,,,,,,,,,,,,,,,,,,911,0.985,1,"[""9"",""1"",""1"",""return""]","[0.4040000000000532,0.5530000000000541,0.7190000000000509,0.9540000000000077]",0,2,2,2,1,3,911,Audio/911.mp3,practice,,,,,,,,,,,,,,,,,,,,,,,,,,,,,,,,,,,,,,,,,,,,,,,,,,,,,,,,,,,,,,,,,,,,,,,,,,,,,,,,,,,,,,,,,,,,,,,,,,,,,,,,,,,,,,,,,,,,,,,,,,,,
,8767,CAB,20/05/2004,001,2023-09-26_17h35.11.076,OS3_Mult_verification,2022.2.4,MacIntel,20,,,,,,,,,,,,,,,,,,,,,,,,,,,,,,,,,,,,,97,1.832,1,"[""9"",""7"",""return""]","[1.0840000000000032,1.2360000000000468,1.8000000000000114]",,,,,,2,97,Audio/97.mp3,WAIS,0,0,0,0,1,,,,,,,,,,,,,,,,,,,,,,,,,,,,,,,,,,,,,,,,,,,,,,,,,,,,,,,,,,,,,,,,,,,,,,,,,,,,,,,,,,,,,,,,,,,,,,,,,,,,,,,,,,,,,,,,,,,,,,,
,8767,CAB,20/05/2004,001,2023-09-26_17h35.11.076,OS3_Mult_verification,2022.2.4,MacIntel,20,,,,,,,,,,,,,,,,,,,,,,,,,,,,,,,,,,,,,63,1.049,1,"[""6"",""3"",""return""]","[0.6830000000000496,0.75,1.016999999999996]",,,,,,2,63,Audio/63.mp3,WAIS,0,1,1,1,1,,,,,,,,,,,,,,,,,,,,,,,,,,,,,,,,,,,,,,,,,,,,,,,,,,,,,,,,,,,,,,,,,,,,,,,,,,,,,,,,,,,,,,,,,,,,,,,,,,,,,,,,,,,,,,,,,,,,,,,
,8767,CAB,20/05/2004,001,2023-09-26_17h35.11.076,OS3_Mult_verification,2022.2.4,MacIntel,20,,,,,,,,,,,,,,,,,,,,,,,,,,,,,,,,,,,,,,,,,,,,,,,,,,,,,,,,0,0,0,0,1,digitSpan_stim/twoWAIS.xlsx,,,,,,,,,,,,,,,,,,,,,,,,,,,,,,,,,,,,,,,,,,,,,,,,,,,,,,,,,,,,,,,,,,,,,,,,,,,,,,,,,,,,,,,,,,,,,,,,,,,,,,,,,,,,,,,,,
,8767,CAB,20/05/2004,001,2023-09-26_17h35.11.076,OS3_Mult_verification,2022.2.4,MacIntel,20,,,,,,,,,,,,,,,,,,,,,,,,,,,,,,,,,,,,,582,1.449,1,"[""5"",""8"",""2"",""return""]","[0.5499999999998977,0.6699999999999022,1.116999999999905,1.4209999999999354]",,,,,,3,582,Audio/582.mp3,WAIS,0,0,0,0,1,,,,,,,,,,,,,,,,,,,,,,,,,,,,,,,,,,,,,,,,,,,,,,,,,,,,,,,,,,,,,,,,,,,,,,,,,,,,,,,,,,,,,,,,,,,,,,,,,,,,,,,,,,,,,,,,,,,,,,,
,8767,CAB,20/05/2004,001,2023-09-26_17h35.11.076,OS3_Mult_verification,2022.2.4,MacIntel,20,,,,,,,,,,,,,,,,,,,,,,,,,,,,,,,,,,,,,694,1.015,1,"[""6"",""9"",""4"",""return""]","[0.4679999999999609,0.6030000000000086,0.7509999999999764,0.9900000000000091]",,,,,,3,694,Audio/694.mp3,WAIS,0,1,1,1,1,,,,,,,,,,,,,,,,,,,,,,,,,,,,,,,,,,,,,,,,,,,,,,,,,,,,,,,,,,,,,,,,,,,,,,,,,,,,,,,,,,,,,,,,,,,,,,,,,,,,,,,,,,,,,,,,,,,,,,,
,8767,CAB,20/05/2004,001,2023-09-26_17h35.11.076,OS3_Mult_verification,2022.2.4,MacIntel,20,,,,,,,,,,,,,,,,,,,,,,,,,,,,,,,,,,,,,,,,,,,,,,,,,,,,,,,,0,1,1,1,1,digitSpan_stim/threeWAIS.xlsx,,,,,,,,,,,,,,,,,,,,,,,,,,,,,,,,,,,,,,,,,,,,,,,,,,,,,,,,,,,,,,,,,,,,,,,,,,,,,,,,,,,,,,,,,,,,,,,,,,,,,,,,,,,,,,,,,
,8767,CAB,20/05/2004,001,2023-09-26_17h35.11.076,OS3_Mult_verification,2022.2.4,MacIntel,20,,,,,,,,,,,,,,,,,,,,,,,,,,,,,,,,,,,,,7286,2.332,1,"[""7"",""2"",""8"",""6"",""return""]","[0.9830000000000041,1.2580000000000382,1.5670000000000073,1.968999999999994,2.3009999999999877]",,,,,,4,7286,Audio/7286.mp3,WAIS,0,0,0,0,1,,,,,,,,,,,,,,,,,,,,,,,,,,,,,,,,,,,,,,,,,,,,,,,,,,,,,,,,,,,,,,,,,,,,,,,,,,,,,,,,,,,,,,,,,,,,,,,,,,,,,,,,,,,,,,,,,,,,,,,
,8767,CAB,20/05/2004,001,2023-09-26_17h35.11.076,OS3_Mult_verification,2022.2.4,MacIntel,20,,,,,,,,,,,,,,,,,,,,,,,,,,,,,,,,,,,,,6439,1.882,1,"[""6"",""4"",""3"",""9"",""return""]","[0.8160000000000309,1.0500000000000114,1.2560000000000286,1.5,1.8500000000000227]",,,,,,4,6439,Audio/6439.mp3,WAIS,0,1,1,1,1,,,,,,,,,,,,,,,,,,,,,,,,,,,,,,,,,,,,,,,,,,,,,,,,,,,,,,,,,,,,,,,,,,,,,,,,,,,,,,,,,,,,,,,,,,,,,,,,,,,,,,,,,,,,,,,,,,,,,,,
,8767,CAB,20/05/2004,001,2023-09-26_17h35.11.076,OS3_Mult_verification,2022.2.4,MacIntel,20,,,,,,,,,,,,,,,,,,,,,,,,,,,,,,,,,,,,,,,,,,,,,,,,,,,,,,,,0,2,2,2,1,digitSpan_stim/fourWAIS.xlsx,,,,,,,,,,,,,,,,,,,,,,,,,,,,,,,,,,,,,,,,,,,,,,,,,,,,,,,,,,,,,,,,,,,,,,,,,,,,,,,,,,,,,,,,,,,,,,,,,,,,,,,,,,,,,,,,,
,8767,CAB,20/05/2004,001,2023-09-26_17h35.11.076,OS3_Mult_verification,2022.2.4,MacIntel,20,,,,,,,,,,,,,,,,,,,,,,,,,,,,,,,,,,,,,42731,2.053,1,"[""4"",""2"",""7"",""3"",""1"",""return""]","[0.6859999999999786,0.8870000000000005,1.125,1.335999999999956,1.5879999999999654,2.0249999999999773]",,,,,,5,42731,Audio/42731.mp3,WAIS,0,0,0,0,1,,,,,,,,,,,,,,,,,,,,,,,,,,,,,,,,,,,,,,,,,,,,,,,,,,,,,,,,,,,,,,,,,,,,,,,,,,,,,,,,,,,,,,,,,,,,,,,,,,,,,,,,,,,,,,,,,,,,,,,
,8767,CAB,20/05/2004,001,2023-09-26_17h35.11.076,OS3_Mult_verification,2022.2.4,MacIntel,20,,,,,,,,,,,,,,,,,,,,,,,,,,,,,,,,,,,,,75836,4.766,1,"[""7"",""5"",""8"",""3"",""6"",""return""]","[2.00100000000009,2.5510000000000446,3.00100000000009,3.5170000000000528,4.0340000000001055,4.740000000000009]",,,,,,5,75836,Audio/75836.mp3,WAIS,0,1,1,1,1,,,,,,,,,,,,,,,,,,,,,,,,,,,,,,,,,,,,,,,,,,,,,,,,,,,,,,,,,,,,,,,,,,,,,,,,,,,,,,,,,,,,,,,,,,,,,,,,,,,,,,,,,,,,,,,,,,,,,,,
,8767,CAB,20/05/2004,001,2023-09-26_17h35.11.076,OS3_Mult_verification,2022.2.4,MacIntel,20,,,,,,,,,,,,,,,,,,,,,,,,,,,,,,,,,,,,,,,,,,,,,,,,,,,,,,,,0,3,3,3,1,digitSpan_stim/fiveWAIS.xlsx,,,,,,,,,,,,,,,,,,,,,,,,,,,,,,,,,,,,,,,,,,,,,,,,,,,,,,,,,,,,,,,,,,,,,,,,,,,,,,,,,,,,,,,,,,,,,,,,,,,,,,,,,,,,,,,,,
,8767,CAB,20/05/2004,001,2023-09-26_17h35.11.076,OS3_Mult_verification,2022.2.4,MacIntel,20,,,,,,,,,,,,,,,,,,,,,,,,,,,,,,,,,,,,,392487,3.083,1,"[""3"",""9"",""2"",""4"",""8"",""7"",""return""]","[0.6179999999999382,0.8419999999999845,1.13900000000001,1.9850000000000136,2.268000000000029,2.4489999999999554,3.050999999999931]",,,,,,6,392487,Audio/392487.mp3,WAIS,0,0,0,0,1,,,,,,,,,,,,,,,,,,,,,,,,,,,,,,,,,,,,,,,,,,,,,,,,,,,,,,,,,,,,,,,,,,,,,,,,,,,,,,,,,,,,,,,,,,,,,,,,,,,,,,,,,,,,,,,,,,,,,,,
,8767,CAB,20/05/2004,001,2023-09-26_17h35.11.076,OS3_Mult_verification,2022.2.4,MacIntel,20,,,,,,,,,,,,,,,,,,,,,,,,,,,,,,,,,,,,,619473,2.799,1,"[""6"",""1"",""9"",""4"",""7"",""3"",""return""]","[0.7999999999999545,1.1680000000000064,1.5330000000000155,1.8840000000000146,2.205000000000041,2.4669999999999845,2.7670000000000528]",,,,,,6,619473,Audio/619473.mp3,WAIS,0,1,1,1,1,,,,,,,,,,,,,,,,,,,,,,,,,,,,,,,,,,,,,,,,,,,,,,,,,,,,,,,,,,,,,,,,,,,,,,,,,,,,,,,,,,,,,,,,,,,,,,,,,,,,,,,,,,,,,,,,,,,,,,,
,8767,CAB,20/05/2004,001,2023-09-26_17h35.11.076,OS3_Mult_verification,2022.2.4,MacIntel,20,,,,,,,,,,,,,,,,,,,,,,,,,,,,,,,,,,,,,,,,,,,,,,,,,,,,,,,,0,4,4,4,1,digitSpan_stim/sixWAIS.xlsx,,,,,,,,,,,,,,,,,,,,,,,,,,,,,,,,,,,,,,,,,,,,,,,,,,,,,,,,,,,,,,,,,,,,,,,,,,,,,,,,,,,,,,,,,,,,,,,,,,,,,,,,,,,,,,,,,
,8767,CAB,20/05/2004,001,2023-09-26_17h35.11.076,OS3_Mult_verification,2022.2.4,MacIntel,20,,,,,,,,,,,,,,,,,,,,,,,,,,,,,,,,,,,,,6914728,7.149,0,"[""6"",""9"",""1"",""4"",""7"",""2"",""8"",""return""]","[0.80600000000004,1.183999999999969,1.6680000000000064,2.4009999999999536,3.8920000000000528,4.3840000000000146,4.567000000000007,7.123000000000047]",,,,,,7,6917428,Audio/6917428.mp3,WAIS,0,0,0,0,1,,,,,,,,,,,,,,,,,,,,,,,,,,,,,,,,,,,,,,,,,,,,,,,,,,,,,,,,,,,,,,,,,,,,,,,,,,,,,,,,,,,,,,,,,,,,,,,,,,,,,,,,,,,,,,,,,,,,,,,
,8767,CAB,20/05/2004,001,2023-09-26_17h35.11.076,OS3_Mult_verification,2022.2.4,MacIntel,20,,,,,,,,,,,,,,,,,,,,,,,,,,,,,,,,,,,,,4197386,10.382,0,"[""4"",""1"",""9"",""7"",""3"",""8"",""6"",""return""]","[1.650000000000091,5.138000000000034,5.585000000000036,7.866000000000099,8.25,9.656000000000063,9.871000000000095,10.349000000000046]",,,,,,7,4179386,Audio/4179386.mp3,WAIS,0,1,1,1,1,,,,,,,,,,,,,,,,,,,,,,,,,,,,,,,,,,,,,,,,,,,,,,,,,,,,,,,,,,,,,,,,,,,,,,,,,,,,,,,,,,,,,,,,,,,,,,,,,,,,,,,,,,,,,,,,,,,,,,,
,8767,CAB,20/05/2004,001,2023-09-26_17h35.11.076,OS3_Mult_verification,2022.2.4,MacIntel,20,,,,,,,,,,,,,,,,,,,,,,,,,,,,,,,,,,,,,,,,,,,,,,,WAIS,,,,,,,,,,,,,,,0,0,0,1,1,digitSpan_stim/WAIS.xlsx,,,,,,,,,,,,,,,,,,,,,,,,,,,,,,,,,,,,,,,,,,,,,,,,,,,,,,,,,,,,,,,,,,,,,,,,,,,,,,,,,,,,,,,,,,,,,,,,,,,,,,,,,,,
,8767,CAB,20/05/2004,001,2023-09-26_17h35.11.076,OS3_Mult_verification,2022.2.4,MacIntel,20,,,,,,,,,,,,,,,,,,,,,,,,,,,,,,,,,,,,,46,1.115,1,"[""4"",""6"",""return""]","[0.6009999999999991,0.7340000000000373,1.0900000000000318]",,,,,,2,46,Audio/46.mp3,EGNER,0,0,0,0,1,,,,,,,,,,,,,,,,,,,,,,,,,,,,,,,,,,,,,,,,,,,,,,,,,,,,,,,,,,,,,,,,,,,,,,,,,,,,,,,,,,,,,,,,,,,,,,,,,,,,,,,,,,,,,,,,,,,,,,,
,8767,CAB,20/05/2004,001,2023-09-26_17h35.11.076,OS3_Mult_verification,2022.2.4,MacIntel,20,,,,,,,,,,,,,,,,,,,,,,,,,,,,,,,,,,,,,82,0.686,1,"[""8"",""2"",""return""]","[0.37000000000000455,0.4739999999999327,0.6570000000000391]",,,,,,2,82,Audio/82.mp3,EGNER,0,1,1,1,1,,,,,,,,,,,,,,,,,,,,,,,,,,,,,,,,,,,,,,,,,,,,,,,,,,,,,,,,,,,,,,,,,,,,,,,,,,,,,,,,,,,,,,,,,,,,,,,,,,,,,,,,,,,,,,,,,,,,,,,
,8767,CAB,20/05/2004,001,2023-09-26_17h35.11.076,OS3_Mult_verification,2022.2.4,MacIntel,20,,,,,,,,,,,,,,,,,,,,,,,,,,,,,,,,,,,,,,,,,,,,,,,,,,,,,,,,0,0,0,0,1,digitSpan_stim/twoAudio.xlsx,,,,,,,,,,,,,,,,,,,,,,,,,,,,,,,,,,,,,,,,,,,,,,,,,,,,,,,,,,,,,,,,,,,,,,,,,,,,,,,,,,,,,,,,,,,,,,,,,,,,,,,,,,,,,,,,,
,8767,CAB,20/05/2004,001,2023-09-26_17h35.11.076,OS3_Mult_verification,2022.2.4,MacIntel,20,,,,,,,,,,,,,,,,,,,,,,,,,,,,,,,,,,,,,157,1.032,1,"[""1"",""5"",""7"",""return""]","[0.3550000000000182,0.5210000000000719,0.7169999999999845,1]",,,,,,3,157,Audio/157.mp3,EGNER,0,0,0,0,1,,,,,,,,,,,,,,,,,,,,,,,,,,,,,,,,,,,,,,,,,,,,,,,,,,,,,,,,,,,,,,,,,,,,,,,,,,,,,,,,,,,,,,,,,,,,,,,,,,,,,,,,,,,,,,,,,,,,,,,
,8767,CAB,20/05/2004,001,2023-09-26_17h35.11.076,OS3_Mult_verification,2022.2.4,MacIntel,20,,,,,,,,,,,,,,,,,,,,,,,,,,,,,,,,,,,,,397,1.051,1,"[""3"",""9"",""7"",""return""]","[0.45299999999997453,0.5850000000000364,0.7609999999999673,1.0190000000000055]",,,,,,3,397,Audio/397.mp3,EGNER,0,1,1,1,1,,,,,,,,,,,,,,,,,,,,,,,,,,,,,,,,,,,,,,,,,,,,,,,,,,,,,,,,,,,,,,,,,,,,,,,,,,,,,,,,,,,,,,,,,,,,,,,,,,,,,,,,,,,,,,,,,,,,,,,
,8767,CAB,20/05/2004,001,2023-09-26_17h35.11.076,OS3_Mult_verification,2022.2.4,MacIntel,20,,,,,,,,,,,,,,,,,,,,,,,,,,,,,,,,,,,,,,,,,,,,,,,,,,,,,,,,0,1,1,1,1,digitSpan_stim/threeAudio.xlsx,,,,,,,,,,,,,,,,,,,,,,,,,,,,,,,,,,,,,,,,,,,,,,,,,,,,,,,,,,,,,,,,,,,,,,,,,,,,,,,,,,,,,,,,,,,,,,,,,,,,,,,,,,,,,,,,,
,8767,CAB,20/05/2004,001,2023-09-26_17h35.11.076,OS3_Mult_verification,2022.2.4,MacIntel,20,,,,,,,,,,,,,,,,,,,,,,,,,,,,,,,,,,,,,6352,1.069,1,"[""6"",""3"",""5"",""2"",""return""]","[0.4519999999999982,0.5510000000000446,0.6520000000000437,0.7680000000000291,1.038000000000011]",,,,,,4,6352,Audio/6352.mp3,EGNER,0,0,0,0,1,,,,,,,,,,,,,,,,,,,,,,,,,,,,,,,,,,,,,,,,,,,,,,,,,,,,,,,,,,,,,,,,,,,,,,,,,,,,,,,,,,,,,,,,,,,,,,,,,,,,,,,,,,,,,,,,,,,,,,,
,8767,CAB,20/05/2004,001,2023-09-26_17h35.11.076,OS3_Mult_verification,2022.2.4,MacIntel,20,,,,,,,,,,,,,,,,,,,,,,,,,,,,,,,,,,,,,9184,1.739,1,"[""9"",""1"",""8"",""4"",""return""]","[0.9060000000000628,1.0579999999999927,1.2380000000000564,1.4940000000000282,1.7040000000000646]",,,,,,4,9184,Audio/9184.mp3,EGNER,0,1,1,1,1,,,,,,,,,,,,,,,,,,,,,,,,,,,,,,,,,,,,,,,,,,,,,,,,,,,,,,,,,,,,,,,,,,,,,,,,,,,,,,,,,,,,,,,,,,,,,,,,,,,,,,,,,,,,,,,,,,,,,,,
,8767,CAB,20/05/2004,001,2023-09-26_17h35.11.076,OS3_Mult_verification,2022.2.4,MacIntel,20,,,,,,,,,,,,,,,,,,,,,,,,,,,,,,,,,,,,,,,,,,,,,,,,,,,,,,,,0,2,2,2,1,digitSpan_stim/fourAudio.xlsx,,,,,,,,,,,,,,,,,,,,,,,,,,,,,,,,,,,,,,,,,,,,,,,,,,,,,,,,,,,,,,,,,,,,,,,,,,,,,,,,,,,,,,,,,,,,,,,,,,,,,,,,,,,,,,,,,
,8767,CAB,20/05/2004,001,2023-09-26_17h35.11.076,OS3_Mult_verification,2022.2.4,MacIntel,20,,,,,,,,,,,,,,,,,,,,,,,,,,,,,,,,,,,,,59281,2.117,1,"[""5"",""9"",""2"",""8"",""1"",""return""]","[0.6850000000000591,0.9010000000000673,1.1180000000000518,1.2590000000000146,1.4840000000000373,2.08400000000006]",,,,,,5,59281,Audio/59281.mp3,EGNER,0,0,0,0,1,,,,,,,,,,,,,,,,,,,,,,,,,,,,,,,,,,,,,,,,,,,,,,,,,,,,,,,,,,,,,,,,,,,,,,,,,,,,,,,,,,,,,,,,,,,,,,,,,,,,,,,,,,,,,,,,,,,,,,,
,8767,CAB,20/05/2004,001,2023-09-26_17h35.11.076,OS3_Mult_verification,2022.2.4,MacIntel,20,,,,,,,,,,,,,,,,,,,,,,,,,,,,,,,,,,,,,64738,5.333,1,"[""6"",""4"",""7"",""3"",""8"",""return""]","[4.15300000000002,4.41700000000003,4.585000000000036,4.758000000000038,4.934999999999945,5.300999999999931]",,,,,,5,64738,Audio/64738.mp3,EGNER,0,1,1,1,1,,,,,,,,,,,,,,,,,,,,,,,,,,,,,,,,,,,,,,,,,,,,,,,,,,,,,,,,,,,,,,,,,,,,,,,,,,,,,,,,,,,,,,,,,,,,,,,,,,,,,,,,,,,,,,,,,,,,,,,
,8767,CAB,20/05/2004,001,2023-09-26_17h35.11.076,OS3_Mult_verification,2022.2.4,MacIntel,20,,,,,,,,,,,,,,,,,,,,,,,,,,,,,,,,,,,,,,,,,,,,,,,,,,,,,,,,0,3,3,3,1,digitSpan_stim/fiveAudio.xlsx,,,,,,,,,,,,,,,,,,,,,,,,,,,,,,,,,,,,,,,,,,,,,,,,,,,,,,,,,,,,,,,,,,,,,,,,,,,,,,,,,,,,,,,,,,,,,,,,,,,,,,,,,,,,,,,,,
,8767,CAB,20/05/2004,001,2023-09-26_17h35.11.076,OS3_Mult_verification,2022.2.4,MacIntel,20,,,,,,,,,,,,,,,,,,,,,,,,,,,,,,,,,,,,,396172,3.033,1,"[""3"",""9"",""6"",""1"",""7"",""2"",""return""]","[0.8000000000000682,1.400000000000091,1.95799999999997,2.372000000000071,2.5860000000000127,2.7169999999999845,3.0060000000000855]",,,,,,6,396172,Audio/396172.mp3,EGNER,0,0,0,0,1,,,,,,,,,,,,,,,,,,,,,,,,,,,,,,,,,,,,,,,,,,,,,,,,,,,,,,,,,,,,,,,,,,,,,,,,,,,,,,,,,,,,,,,,,,,,,,,,,,,,,,,,,,,,,,,,,,,,,,,
,8767,CAB,20/05/2004,001,2023-09-26_17h35.11.076,OS3_Mult_verification,2022.2.4,MacIntel,20,,,,,,,,,,,,,,,,,,,,,,,,,,,,,,,,,,,,,5946321,4.17,0,"[""5"",""9"",""4"",""6"",""3"",""2"",""1"",""return""]","[1.5349999999999682,2.04200000000003,2.5860000000000127,2.8899999999999864,3.31899999999996,3.685999999999922,3.9039999999999964,4.135999999999967]",,,,,,6,594631,Audio/594631.mp3,EGNER,0,1,1,1,1,,,,,,,,,,,,,,,,,,,,,,,,,,,,,,,,,,,,,,,,,,,,,,,,,,,,,,,,,,,,,,,,,,,,,,,,,,,,,,,,,,,,,,,,,,,,,,,,,,,,,,,,,,,,,,,,,,,,,,,
,8767,CAB,20/05/2004,001,2023-09-26_17h35.11.076,OS3_Mult_verification,2022.2.4,MacIntel,20,,,,,,,,,,,,,,,,,,,,,,,,,,,,,,,,,,,,,,,,,,,,,,,,,,,,,,,,0,4,4,4,1,digitSpan_stim/sixAudio.xlsx,,,,,,,,,,,,,,,,,,,,,,,,,,,,,,,,,,,,,,,,,,,,,,,,,,,,,,,,,,,,,,,,,,,,,,,,,,,,,,,,,,,,,,,,,,,,,,,,,,,,,,,,,,,,,,,,,
,8767,CAB,20/05/2004,001,2023-09-26_17h35.11.076,OS3_Mult_verification,2022.2.4,MacIntel,20,,,,,,,,,,,,,,,,,,,,,,,,,,,,,,,,,,,,,8241973,4.766,1,"[""8"",""2"",""4"",""1"",""9"",""7"",""3"",""return""]","[2.4560000000000173,2.6399999999999864,2.869000000000028,3.019999999999982,3.75,4.08299999999997,4.317000000000007,4.734000000000037]",,,,,,7,8241973,Audio/8241973.mp3,EGNER,0,0,0,0,1,,,,,,,,,,,,,,,,,,,,,,,,,,,,,,,,,,,,,,,,,,,,,,,,,,,,,,,,,,,,,,,,,,,,,,,,,,,,,,,,,,,,,,,,,,,,,,,,,,,,,,,,,,,,,,,,,,,,,,,
,8767,CAB,20/05/2004,001,2023-09-26_17h35.11.076,OS3_Mult_verification,2022.2.4,MacIntel,20,,,,,,,,,,,,,,,,,,,,,,,,,,,,,,,,,,,,,2814367,3.022,1,"[""2"",""8"",""1"",""4"",""3"",""6"",""7"",""return""]","[0.90300000000002,1.086999999999989,1.3740000000000236,1.6870000000000118,2.2549999999999955,2.3870000000000573,2.558999999999969,2.9869999999999663]",,,,,,7,2814367,Audio/2814367.mp3,EGNER,0,1,1,1,1,,,,,,,,,,,,,,,,,,,,,,,,,,,,,,,,,,,,,,,,,,,,,,,,,,,,,,,,,,,,,,,,,,,,,,,,,,,,,,,,,,,,,,,,,,,,,,,,,,,,,,,,,,,,,,,,,,,,,,,
,8767,CAB,20/05/2004,001,2023-09-26_17h35.11.076,OS3_Mult_verification,2022.2.4,MacIntel,20,,,,,,,,,,,,,,,,,,,,,,,,,,,,,,,,,,,,,,,,,,,,,,,,,,,,,,,,0,5,5,5,1,digitSpan_stim/sevenAudio.xlsx,,,,,,,,,,,,,,,,,,,,,,,,,,,,,,,,,,,,,,,,,,,,,,,,,,,,,,,,,,,,,,,,,,,,,,,,,,,,,,,,,,,,,,,,,,,,,,,,,,,,,,,,,,,,,,,,,
,8767,CAB,20/05/2004,001,2023-09-26_17h35.11.076,OS3_Mult_verification,2022.2.4,MacIntel,20,,,,,,,,,,,,,,,,,,,,,,,,,,,,,,,,,,,,,53827146,7.765,0,"[""5"",""3"",""8"",""2"",""7"",""1"",""4"",""6"",""return""]","[1.1669999999999163,1.3389999999999418,1.6879999999999882,1.90199999999993,2.3999999999999773,5.016999999999939,6.074999999999932,6.317999999999984,7.732999999999947]",,,,,,8,53827164,Audio/53827164.mp3,EGNER,0,0,0,0,1,,,,,,,,,,,,,,,,,,,,,,,,,,,,,,,,,,,,,,,,,,,,,,,,,,,,,,,,,,,,,,,,,,,,,,,,,,,,,,,,,,,,,,,,,,,,,,,,,,,,,,,,,,,,,,,,,,,,,,,
,8767,CAB,20/05/2004,001,2023-09-26_17h35.11.076,OS3_Mult_verification,2022.2.4,MacIntel,20,,,,,,,,,,,,,,,,,,,,,,,,,,,,,,,,,,,,,75127139,11.449,0,"[""7"",""5"",""1"",""2"",""7"",""1"",""3"",""9"",""return""]","[3.0680000000000973,3.356999999999971,3.535000000000082,3.73599999999999,8.652000000000044,8.985000000000014,9.718000000000075,10.268000000000029,11.42100000000005]",,,,,,8,75241739,Audio/75241739.mp3,EGNER,0,1,1,1,1,,,,,,,,,,,,,,,,,,,,,,,,,,,,,,,,,,,,,,,,,,,,,,,,,,,,,,,,,,,,,,,,,,,,,,,,,,,,,,,,,,,,,,,,,,,,,,,,,,,,,,,,,,,,,,,,,,,,,,,
,8767,CAB,20/05/2004,001,2023-09-26_17h35.11.076,OS3_Mult_verification,2022.2.4,MacIntel,20,,,,,,,,,,,,,,,,,,,,,,,,,,,,,,,,,,,,,,,,,,,,,,,Egner,,,,,,,,,,,,,,,0,1,1,0,1,digitSpan_stim/Egner.xlsx,,,,,,,,,,,,,,,,,,,,,,,,,,,,,,,,,,,,,,,,,,,,,,,,,,,,,,,,,,,,,,,,,,,,,,,,,,,,,,,,,,,,,,,,,,,,,,,,,,,,,,,,,,,
,8767,CAB,20/05/2004,001,2023-09-26_17h35.11.076,OS3_Mult_verification,2022.2.4,MacIntel,20,,,,,,,,,,,,,,,,,,,,,,,,,,,,,,,,,,,,,,,,,,,,,,,,,,,,,,,,,,,,,,,,,,,,0,0,0,0,1,,,,,,,,,,,,,,,,,,,,,,,,,,,,,,,,,,,,,,,,,,,,,,,,,,,,,,,,,,,,,,,,,,,,,,,,,,,,,,,,,,,,,,,,,,,,,,,,,,,,,,
,8767,CAB,20/05/2004,001,2023-09-26_17h35.11.076,OS3_Mult_verification,2022.2.4,MacIntel,20,,,,,,,,,,,,,,,,,,,,,,,,,,,,,,,,,,,,,,,,,,,,,,,,,,,,,,,,,,,,,,,,,,,,,,,,,0,0,0,0,1,0,0,1,,,,,,,,,,,,,,,,,,,,,,,,,,,,,,,,,,,,,,,,,,,,,,,,,,,,,,,,,,,,,,,,,,,,,,,,,,,,,,,,,,,,,,,,,,,,,,
,8767,CAB,20/05/2004,001,2023-09-26_17h35.11.076,OS3_Mult_verification,2022.2.4,MacIntel,20,,,,,,,,,,,,,,,,space,1.081,,,,,,,,,,,,,,,,,,,,,,,,,,,,,,,,,,,,,,,,,,,,,,,,,,,,,,,,,,,,,,,,right,1,1.209,0,0,0,1,1,practice,7,8,7 | 8,1,0.065,0.05,incongruent,right,,,,,,,,,,,,,,,,,,,,,,,,,,,,,,,,,,,,,,,,,,,,,,,,,,,,,,,,,,,,,,,,,,,,,,,,,,,,,
,8767,CAB,20/05/2004,001,2023-09-26_17h35.11.076,OS3_Mult_verification,2022.2.4,MacIntel,20,,,,,,,,,,,,,,,,,,,,,,,,,,,,,,,,,,,,,,,,,,,,,,,,,,,,,,,,,,,,,,,,,,,,,,,,,,,,,,,,,right,1,0.756,0,1,1,2,1,practice,4,9,4 | 9,5,0.06,0.06,neutral,right,,,,,,,,,,,,,,,,,,,,,,,,,,,,,,,,,,,,,,,,,,,,,,,,,,,,,,,,,,,,,,,,,,,,,,,,,,,,,
,8767,CAB,20/05/2004,001,2023-09-26_17h35.11.076,OS3_Mult_verification,2022.2.4,MacIntel,20,,,,,,,,,,,,,,,,,,,,,,,,,,,,,,,,,,,,,,,,,,,,,,,,,,,,,,,,,,,,,,,,,,,,,,,,,,,,,,,,,right,1,0.506,0,2,2,0,1,practice,1,2,1 | 2,1,0.05,0.065,congruent,right,,,,,,,,,,,,,,,,,,,,,,,,,,,,,,,,,,,,,,,,,,,,,,,,,,,,,,,,,,,,,,,,,,,,,,,,,,,,,
,8767,CAB,20/05/2004,001,2023-09-26_17h35.11.076,OS3_Mult_verification,2022.2.4,MacIntel,20,,,,,,,,,,,,,,,,,,,,,,,,,,,,,,,,,,,,,,,,,,,,,,,,,,,,,,,,,,,,,,,,,,,,,,,,,,,,,,,,,right,1,0.676,,,,,,magnitude,8,9,8 | 9,1,0.05,0.065,congruent,right,0,0,0,3,1,,,,,,,,,,,,,,,,,,,,,,,,,,,,,,,,,,,,,,,,,,,,,,,,,,,,,,,,,,,,,,,,,,,,,,,,
,8767,CAB,20/05/2004,001,2023-09-26_17h35.11.076,OS3_Mult_verification,2022.2.4,MacIntel,20,,,,,,,,,,,,,,,,,,,,,,,,,,,,,,,,,,,,,,,,,,,,,,,,,,,,,,,,,,,,,,,,,,,,,,,,,,,,,,,,,right,1,0.683,,,,,,magnitude,1,6,1 | 6,5,0.065,0.05,incongruent,right,0,1,1,40,1,,,,,,,,,,,,,,,,,,,,,,,,,,,,,,,,,,,,,,,,,,,,,,,,,,,,,,,,,,,,,,,,,,,,,,,,
,8767,CAB,20/05/2004,001,2023-09-26_17h35.11.076,OS3_Mult_verification,2022.2.4,MacIntel,20,,,,,,,,,,,,,,,,,,,,,,,,,,,,,,,,,,,,,,,,,,,,,,,,,,,,,,,,,,,,,,,,,,,,,,,,,,,,,,,,,left,1,0.675,,,,,,magnitude,8,6,8 | 6,2,0.05,0.065,incongruent,left,0,2,2,38,1,,,,,,,,,,,,,,,,,,,,,,,,,,,,,,,,,,,,,,,,,,,,,,,,,,,,,,,,,,,,,,,,,,,,,,,,
,8767,CAB,20/05/2004,001,2023-09-26_17h35.11.076,OS3_Mult_verification,2022.2.4,MacIntel,20,,,,,,,,,,,,,,,,,,,,,,,,,,,,,,,,,,,,,,,,,,,,,,,,,,,,,,,,,,,,,,,,,,,,,,,,,,,,,,,,,left,1,0.559,,,,,,magnitude,7,2,7 | 2,5,0.065,0.05,congruent,left,0,3,3,21,1,,,,,,,,,,,,,,,,,,,,,,,,,,,,,,,,,,,,,,,,,,,,,,,,,,,,,,,,,,,,,,,,,,,,,,,,
,8767,CAB,20/05/2004,001,2023-09-26_17h35.11.076,OS3_Mult_verification,2022.2.4,MacIntel,20,,,,,,,,,,,,,,,,,,,,,,,,,,,,,,,,,,,,,,,,,,,,,,,,,,,,,,,,,,,,,,,,,,,,,,,,,,,,,,,,,right,1,0.56,,,,,,magnitude,4,9,4 | 9,5,0.06,0.06,neutral,right,0,4,4,67,1,,,,,,,,,,,,,,,,,,,,,,,,,,,,,,,,,,,,,,,,,,,,,,,,,,,,,,,,,,,,,,,,,,,,,,,,
,8767,CAB,20/05/2004,001,2023-09-26_17h35.11.076,OS3_Mult_verification,2022.2.4,MacIntel,20,,,,,,,,,,,,,,,,,,,,,,,,,,,,,,,,,,,,,,,,,,,,,,,,,,,,,,,,,,,,,,,,,,,,,,,,,,,,,,,,,right,1,0.676,,,,,,magnitude,6,7,6 | 7,1,0.06,0.06,neutral,right,0,5,5,50,1,,,,,,,,,,,,,,,,,,,,,,,,,,,,,,,,,,,,,,,,,,,,,,,,,,,,,,,,,,,,,,,,,,,,,,,,
,8767,CAB,20/05/2004,001,2023-09-26_17h35.11.076,OS3_Mult_verification,2022.2.4,MacIntel,20,,,,,,,,,,,,,,,,,,,,,,,,,,,,,,,,,,,,,,,,,,,,,,,,,,,,,,,,,,,,,,,,,,,,,,,,,,,,,,,,,right,1,0.528,,,,,,magnitude,1,3,1 | 3,2,0.05,0.065,congruent,right,0,6,6,8,1,,,,,,,,,,,,,,,,,,,,,,,,,,,,,,,,,,,,,,,,,,,,,,,,,,,,,,,,,,,,,,,,,,,,,,,,
,8767,CAB,20/05/2004,001,2023-09-26_17h35.11.076,OS3_Mult_verification,2022.2.4,MacIntel,20,,,,,,,,,,,,,,,,,,,,,,,,,,,,,,,,,,,,,,,,,,,,,,,,,,,,,,,,,,,,,,,,,,,,,,,,,,,,,,,,,left,1,0.583,,,,,,magnitude,4,2,4 | 2,2,0.05,0.065,incongruent,left,0,7,7,37,1,,,,,,,,,,,,,,,,,,,,,,,,,,,,,,,,,,,,,,,,,,,,,,,,,,,,,,,,,,,,,,,,,,,,,,,,
,8767,CAB,20/05/2004,001,2023-09-26_17h35.11.076,OS3_Mult_verification,2022.2.4,MacIntel,20,,,,,,,,,,,,,,,,,,,,,,,,,,,,,,,,,,,,,,,,,,,,,,,,,,,,,,,,,,,,,,,,,,,,,,,,,,,,,,,,,right,1,0.575,,,,,,magnitude,2,7,2 | 7,5,0.065,0.05,incongruent,right,0,8,8,41,1,,,,,,,,,,,,,,,,,,,,,,,,,,,,,,,,,,,,,,,,,,,,,,,,,,,,,,,,,,,,,,,,,,,,,,,,
,8767,CAB,20/05/2004,001,2023-09-26_17h35.11.076,OS3_Mult_verification,2022.2.4,MacIntel,20,,,,,,,,,,,,,,,,,,,,,,,,,,,,,,,,,,,,,,,,,,,,,,,,,,,,,,,,,,,,,,,,,,,,,,,,,,,,,,,,,left,1,0.527,,,,,,magnitude,8,3,8 | 3,5,0.06,0.06,neutral,left,0,9,9,70,1,,,,,,,,,,,,,,,,,,,,,,,,,,,,,,,,,,,,,,,,,,,,,,,,,,,,,,,,,,,,,,,,,,,,,,,,
,8767,CAB,20/05/2004,001,2023-09-26_17h35.11.076,OS3_Mult_verification,2022.2.4,MacIntel,20,,,,,,,,,,,,,,,,,,,,,,,,,,,,,,,,,,,,,,,,,,,,,,,,,,,,,,,,,,,,,,,,,,,,,,,,,,,,,,,,,left,1,0.659,,,,,,magnitude,9,4,9 | 4,5,0.065,0.05,congruent,left,0,10,10,23,1,,,,,,,,,,,,,,,,,,,,,,,,,,,,,,,,,,,,,,,,,,,,,,,,,,,,,,,,,,,,,,,,,,,,,,,,
,8767,CAB,20/05/2004,001,2023-09-26_17h35.11.076,OS3_Mult_verification,2022.2.4,MacIntel,20,,,,,,,,,,,,,,,,,,,,,,,,,,,,,,,,,,,,,,,,,,,,,,,,,,,,,,,,,,,,,,,,,,,,,,,,,,,,,,,,,left,1,0.696,,,,,,magnitude,3,1,3 | 1,2,0.05,0.065,incongruent,left,0,11,11,36,1,,,,,,,,,,,,,,,,,,,,,,,,,,,,,,,,,,,,,,,,,,,,,,,,,,,,,,,,,,,,,,,,,,,,,,,,
,8767,CAB,20/05/2004,001,2023-09-26_17h35.11.076,OS3_Mult_verification,2022.2.4,MacIntel,20,,,,,,,,,,,,,,,,,,,,,,,,,,,,,,,,,,,,,,,,,,,,,,,,,,,,,,,,,,,,,,,,,,,,,,,,,,,,,,,,,left,1,0.66,,,,,,magnitude,7,6,7 | 6,1,0.05,0.065,incongruent,left,0,12,12,30,1,,,,,,,,,,,,,,,,,,,,,,,,,,,,,,,,,,,,,,,,,,,,,,,,,,,,,,,,,,,,,,,,,,,,,,,,
,8767,CAB,20/05/2004,001,2023-09-26_17h35.11.076,OS3_Mult_verification,2022.2.4,MacIntel,20,,,,,,,,,,,,,,,,,,,,,,,,,,,,,,,,,,,,,,,,,,,,,,,,,,,,,,,,,,,,,,,,,,,,,,,,,,,,,,,,,right,1,0.694,,,,,,magnitude,8,9,8 | 9,1,0.06,0.06,neutral,right,0,13,13,51,1,,,,,,,,,,,,,,,,,,,,,,,,,,,,,,,,,,,,,,,,,,,,,,,,,,,,,,,,,,,,,,,,,,,,,,,,
,8767,CAB,20/05/2004,001,2023-09-26_17h35.11.076,OS3_Mult_verification,2022.2.4,MacIntel,20,,,,,,,,,,,,,,,,,,,,,,,,,,,,,,,,,,,,,,,,,,,,,,,,,,,,,,,,,,,,,,,,,,,,,,,,,,,,,,,,,left,1,0.559,,,,,,magnitude,7,6,7 | 6,1,0.06,0.06,neutral,left,0,14,14,54,1,,,,,,,,,,,,,,,,,,,,,,,,,,,,,,,,,,,,,,,,,,,,,,,,,,,,,,,,,,,,,,,,,,,,,,,,
,8767,CAB,20/05/2004,001,2023-09-26_17h35.11.076,OS3_Mult_verification,2022.2.4,MacIntel,20,,,,,,,,,,,,,,,,,,,,,,,,,,,,,,,,,,,,,,,,,,,,,,,,,,,,,,,,,,,,,,,,,,,,,,,,,,,,,,,,,right,1,0.463,,,,,,magnitude,1,3,1 | 3,2,0.06,0.06,neutral,right,0,15,15,56,1,,,,,,,,,,,,,,,,,,,,,,,,,,,,,,,,,,,,,,,,,,,,,,,,,,,,,,,,,,,,,,,,,,,,,,,,
,8767,CAB,20/05/2004,001,2023-09-26_17h35.11.076,OS3_Mult_verification,2022.2.4,MacIntel,20,,,,,,,,,,,,,,,,,,,,,,,,,,,,,,,,,,,,,,,,,,,,,,,,,,,,,,,,,,,,,,,,,,,,,,,,,,,,,,,,,right,1,0.575,,,,,,magnitude,6,8,6 | 8,2,0.05,0.065,congruent,right,0,16,16,10,1,,,,,,,,,,,,,,,,,,,,,,,,,,,,,,,,,,,,,,,,,,,,,,,,,,,,,,,,,,,,,,,,,,,,,,,,
,8767,CAB,20/05/2004,001,2023-09-26_17h35.11.076,OS3_Mult_verification,2022.2.4,MacIntel,20,,,,,,,,,,,,,,,,,,,,,,,,,,,,,,,,,,,,,,,,,,,,,,,,,,,,,,,,,,,,,,,,,,,,,,,,,,,,,,,,,left,0,0.609,,,,,,magnitude,1,3,1 | 3,2,0.065,0.05,incongruent,right,0,17,17,32,1,,,,,,,,,,,,,,,,,,,,,,,,,,,,,,,,,,,,,,,,,,,,,,,,,,,,,,,,,,,,,,,,,,,,,,,,
,8767,CAB,20/05/2004,001,2023-09-26_17h35.11.076,OS3_Mult_verification,2022.2.4,MacIntel,20,,,,,,,,,,,,,,,,,,,,,,,,,,,,,,,,,,,,,,,,,,,,,,,,,,,,,,,,,,,,,,,,,,,,,,,,,,,,,,,,,left,1,0.549,,,,,,magnitude,2,1,2 | 1,1,0.065,0.05,congruent,left,0,18,18,4,1,,,,,,,,,,,,,,,,,,,,,,,,,,,,,,,,,,,,,,,,,,,,,,,,,,,,,,,,,,,,,,,,,,,,,,,,
,8767,CAB,20/05/2004,001,2023-09-26_17h35.11.076,OS3_Mult_verification,2022.2.4,MacIntel,20,,,,,,,,,,,,,,,,,,,,,,,,,,,,,,,,,,,,,,,,,,,,,,,,,,,,,,,,,,,,,,,,,,,,,,,,,,,,,,,,,right,1,0.694,,,,,,magnitude,7,9,7 | 9,2,0.065,0.05,incongruent,right,0,19,19,35,1,,,,,,,,,,,,,,,,,,,,,,,,,,,,,,,,,,,,,,,,,,,,,,,,,,,,,,,,,,,,,,,,,,,,,,,,
,8767,CAB,20/05/2004,001,2023-09-26_17h35.11.076,OS3_Mult_verification,2022.2.4,MacIntel,20,,,,,,,,,,,,,,,,,,,,,,,,,,,,,,,,,,,,,,,,,,,,,,,,,,,,,,,,,,,,,,,,,,,,,,,,,,,,,,,,,right,1,0.577,,,,,,magnitude,3,8,3 | 8,5,0.065,0.05,incongruent,right,0,20,20,42,1,,,,,,,,,,,,,,,,,,,,,,,,,,,,,,,,,,,,,,,,,,,,,,,,,,,,,,,,,,,,,,,,,,,,,,,,
,8767,CAB,20/05/2004,001,2023-09-26_17h35.11.076,OS3_Mult_verification,2022.2.4,MacIntel,20,,,,,,,,,,,,,,,,,,,,,,,,,,,,,,,,,,,,,,,,,,,,,,,,,,,,,,,,,,,,,,,,,,,,,,,,,,,,,,,,,left,1,0.711,,,,,,magnitude,4,3,4 | 3,1,0.05,0.065,incongruent,left,0,21,21,29,1,,,,,,,,,,,,,,,,,,,,,,,,,,,,,,,,,,,,,,,,,,,,,,,,,,,,,,,,,,,,,,,,,,,,,,,,
,8767,CAB,20/05/2004,001,2023-09-26_17h35.11.076,OS3_Mult_verification,2022.2.4,MacIntel,20,,,,,,,,,,,,,,,,,,,,,,,,,,,,,,,,,,,,,,,,,,,,,,,,,,,,,,,,,,,,,,,,,,,,,,,,,,,,,,,,,left,1,0.642,,,,,,magnitude,9,7,9 | 7,2,0.05,0.065,incongruent,left,0,22,22,39,1,,,,,,,,,,,,,,,,,,,,,,,,,,,,,,,,,,,,,,,,,,,,,,,,,,,,,,,,,,,,,,,,,,,,,,,,
,8767,CAB,20/05/2004,001,2023-09-26_17h35.11.076,OS3_Mult_verification,2022.2.4,MacIntel,20,,,,,,,,,,,,,,,,,,,,,,,,,,,,,,,,,,,,,,,,,,,,,,,,,,,,,,,,,,,,,,,,,,,,,,,,,,,,,,,,,left,1,0.583,,,,,,magnitude,8,3,8 | 3,5,0.05,0.065,incongruent,left,0,23,23,46,1,,,,,,,,,,,,,,,,,,,,,,,,,,,,,,,,,,,,,,,,,,,,,,,,,,,,,,,,,,,,,,,,,,,,,,,,
,8767,CAB,20/05/2004,001,2023-09-26_17h35.11.076,OS3_Mult_verification,2022.2.4,MacIntel,20,,,,,,,,,,,,,,,,,,,,,,,,,,,,,,,,,,,,,,,,,,,,,,,,,,,,,,,,,,,,,,,,,,,,,,,,,,,,,,,,,right,1,0.526,,,,,,magnitude,2,7,2 | 7,5,0.05,0.065,congruent,right,0,24,24,17,1,,,,,,,,,,,,,,,,,,,,,,,,,,,,,,,,,,,,,,,,,,,,,,,,,,,,,,,,,,,,,,,,,,,,,,,,
,8767,CAB,20/05/2004,001,2023-09-26_17h35.11.076,OS3_Mult_verification,2022.2.4,MacIntel,20,,,,,,,,,,,,,,,,,,,,,,,,,,,,,,,,,,,,,,,,,,,,,,,,,,,,,,,,,,,,,,,,,,,,,,,,,,,,,,,,,right,1,0.557,,,,,,magnitude,3,4,3 | 4,1,0.05,0.065,congruent,right,0,25,25,1,1,,,,,,,,,,,,,,,,,,,,,,,,,,,,,,,,,,,,,,,,,,,,,,,,,,,,,,,,,,,,,,,,,,,,,,,,
,8767,CAB,20/05/2004,001,2023-09-26_17h35.11.076,OS3_Mult_verification,2022.2.4,MacIntel,20,,,,,,,,,,,,,,,,,,,,,,,,,,,,,,,,,,,,,,,,,,,,,,,,,,,,,,,,,,,,,,,,,,,,,,,,,,,,,,,,,left,1,0.714,,,,,,magnitude,7,2,7 | 2,5,0.05,0.065,incongruent,left,0,26,26,45,1,,,,,,,,,,,,,,,,,,,,,,,,,,,,,,,,,,,,,,,,,,,,,,,,,,,,,,,,,,,,,,,,,,,,,,,,
,8767,CAB,20/05/2004,001,2023-09-26_17h35.11.076,OS3_Mult_verification,2022.2.4,MacIntel,20,,,,,,,,,,,,,,,,,,,,,,,,,,,,,,,,,,,,,,,,,,,,,,,,,,,,,,,,,,,,,,,,,,,,,,,,,,,,,,,,,left,1,0.674,,,,,,magnitude,9,7,9 | 7,2,0.06,0.06,neutral,left,0,27,27,63,1,,,,,,,,,,,,,,,,,,,,,,,,,,,,,,,,,,,,,,,,,,,,,,,,,,,,,,,,,,,,,,,,,,,,,,,,
,8767,CAB,20/05/2004,001,2023-09-26_17h35.11.076,OS3_Mult_verification,2022.2.4,MacIntel,20,,,,,,,,,,,,,,,,,,,,,,,,,,,,,,,,,,,,,,,,,,,,,,,,,,,,,,,,,,,,,,,,,,,,,,,,,,,,,,,,,right,1,0.592,,,,,,magnitude,1,2,1 | 2,1,0.05,0.065,congruent,right,0,28,28,0,1,,,,,,,,,,,,,,,,,,,,,,,,,,,,,,,,,,,,,,,,,,,,,,,,,,,,,,,,,,,,,,,,,,,,,,,,
,8767,CAB,20/05/2004,001,2023-09-26_17h35.11.076,OS3_Mult_verification,2022.2.4,MacIntel,20,,,,,,,,,,,,,,,,,,,,,,,,,,,,,,,,,,,,,,,,,,,,,,,,,,,,,,,,,,,,,,,,,,,,,,,,,,,,,,,,,left,1,0.759,,,,,,magnitude,8,3,8 | 3,5,0.065,0.05,congruent,left,0,29,29,22,1,,,,,,,,,,,,,,,,,,,,,,,,,,,,,,,,,,,,,,,,,,,,,,,,,,,,,,,,,,,,,,,,,,,,,,,,
,8767,CAB,20/05/2004,001,2023-09-26_17h35.11.076,OS3_Mult_verification,2022.2.4,MacIntel,20,,,,,,,,,,,,,,,,,,,,,,,,,,,,,,,,,,,,,,,,,,,,,,,,,,,,,,,,,,,,,,,,,,,,,,,,,,,,,,,,,right,1,0.69,,,,,,magnitude,3,4,3 | 4,1,0.06,0.06,neutral,right,0,30,30,49,1,,,,,,,,,,,,,,,,,,,,,,,,,,,,,,,,,,,,,,,,,,,,,,,,,,,,,,,,,,,,,,,,,,,,,,,,
,8767,CAB,20/05/2004,001,2023-09-26_17h35.11.076,OS3_Mult_verification,2022.2.4,MacIntel,20,,,,,,,,,,,,,,,,,,,,,,,,,,,,,,,,,,,,,,,,,,,,,,,,,,,,,,,,,,,,,,,,,,,,,,,,,,,,,,,,,left,1,0.643,,,,,,magnitude,4,2,4 | 2,2,0.065,0.05,congruent,left,0,31,31,13,1,,,,,,,,,,,,,,,,,,,,,,,,,,,,,,,,,,,,,,,,,,,,,,,,,,,,,,,,,,,,,,,,,,,,,,,,
,8767,CAB,20/05/2004,001,2023-09-26_17h35.11.076,OS3_Mult_verification,2022.2.4,MacIntel,20,,,,,,,,,,,,,,,,,,,,,,,,,,,,,,,,,,,,,,,,,,,,,,,,,,,,,,,,,,,,,,,,,,,,,,,,,,,,,,,,,right,1,0.479,,,,,,magnitude,2,7,2 | 7,5,0.06,0.06,neutral,right,0,32,32,65,1,,,,,,,,,,,,,,,,,,,,,,,,,,,,,,,,,,,,,,,,,,,,,,,,,,,,,,,,,,,,,,,,,,,,,,,,
,8767,CAB,20/05/2004,001,2023-09-26_17h35.11.076,OS3_Mult_verification,2022.2.4,MacIntel,20,,,,,,,,,,,,,,,,,,,,,,,,,,,,,,,,,,,,,,,,,,,,,,,,,,,,,,,,,,,,,,,,,,,,,,,,,,,,,,,,,left,1,0.744,,,,,,magnitude,8,6,8 | 6,2,0.06,0.06,neutral,left,0,33,33,62,1,,,,,,,,,,,,,,,,,,,,,,,,,,,,,,,,,,,,,,,,,,,,,,,,,,,,,,,,,,,,,,,,,,,,,,,,
,8767,CAB,20/05/2004,001,2023-09-26_17h35.11.076,OS3_Mult_verification,2022.2.4,MacIntel,20,,,,,,,,,,,,,,,,,,,,,,,,,,,,,,,,,,,,,,,,,,,,,,,,,,,,,,,,,,,,,,,,,,,,,,,,,,,,,,,,,right,1,0.615,,,,,,magnitude,4,9,4 | 9,5,0.065,0.05,incongruent,right,0,34,34,43,1,,,,,,,,,,,,,,,,,,,,,,,,,,,,,,,,,,,,,,,,,,,,,,,,,,,,,,,,,,,,,,,,,,,,,,,,
,8767,CAB,20/05/2004,001,2023-09-26_17h35.11.076,OS3_Mult_verification,2022.2.4,MacIntel,20,,,,,,,,,,,,,,,,,,,,,,,,,,,,,,,,,,,,,,,,,,,,,,,,,,,,,,,,,,,,,,,,,,,,,,,,,,,,,,,,,left,1,0.627,,,,,,magnitude,4,2,4 | 2,2,0.06,0.06,neutral,left,0,35,35,61,1,,,,,,,,,,,,,,,,,,,,,,,,,,,,,,,,,,,,,,,,,,,,,,,,,,,,,,,,,,,,,,,,,,,,,,,,
,8767,CAB,20/05/2004,001,2023-09-26_17h35.11.076,OS3_Mult_verification,2022.2.4,MacIntel,20,,,,,,,,,,,,,,,,,,,,,,,,,,,,,,,,,,,,,,,,,,,,,,,,,,,,,,,,,,,,,,,,,,,,,,,,,,,,,,,,,right,1,0.529,,,,,,magnitude,2,4,2 | 4,2,0.065,0.05,incongruent,right,0,36,36,33,1,,,,,,,,,,,,,,,,,,,,,,,,,,,,,,,,,,,,,,,,,,,,,,,,,,,,,,,,,,,,,,,,,,,,,,,,
,8767,CAB,20/05/2004,001,2023-09-26_17h35.11.076,OS3_Mult_verification,2022.2.4,MacIntel,20,,,,,,,,,,,,,,,,,,,,,,,,,,,,,,,,,,,,,,,,,,,,,,,,,,,,,,,,,,,,,,,,,,,,,,,,,,,,,,,,,right,1,0.574,,,,,,magnitude,6,8,6 | 8,2,0.06,0.06,neutral,right,0,37,37,58,1,,,,,,,,,,,,,,,,,,,,,,,,,,,,,,,,,,,,,,,,,,,,,,,,,,,,,,,,,,,,,,,,,,,,,,,,
,8767,CAB,20/05/2004,001,2023-09-26_17h35.11.076,OS3_Mult_verification,2022.2.4,MacIntel,20,,,,,,,,,,,,,,,,,,,,,,,,,,,,,,,,,,,,,,,,,,,,,,,,,,,,,,,,,,,,,,,,,,,,,,,,,,,,,,,,,right,1,0.98,,,,,,magnitude,1,6,1 | 6,5,0.06,0.06,neutral,right,0,38,38,64,1,,,,,,,,,,,,,,,,,,,,,,,,,,,,,,,,,,,,,,,,,,,,,,,,,,,,,,,,,,,,,,,,,,,,,,,,
,8767,CAB,20/05/2004,001,2023-09-26_17h35.11.076,OS3_Mult_verification,2022.2.4,MacIntel,20,,,,,,,,,,,,,,,,,,,,,,,,,,,,,,,,,,,,,,,,,,,,,,,,,,,,,,,,,,,,,,,,,,,,,,,,,,,,,,,,,right,1,0.678,,,,,,magnitude,6,7,6 | 7,1,0.065,0.05,incongruent,right,0,39,39,26,1,,,,,,,,,,,,,,,,,,,,,,,,,,,,,,,,,,,,,,,,,,,,,,,,,,,,,,,,,,,,,,,,,,,,,,,,
,8767,CAB,20/05/2004,001,2023-09-26_17h35.11.076,OS3_Mult_verification,2022.2.4,MacIntel,20,,,,,,,,,,,,,,,,,,,,,,,,,,,,,,,,,,,,,,,,,,,,,,,,,,,,,,,,,,,,,,,,,,,,,,,,,,,,,,,,,left,1,0.583,,,,,,magnitude,3,1,3 | 1,2,0.06,0.06,neutral,left,0,40,40,60,1,,,,,,,,,,,,,,,,,,,,,,,,,,,,,,,,,,,,,,,,,,,,,,,,,,,,,,,,,,,,,,,,,,,,,,,,
,8767,CAB,20/05/2004,001,2023-09-26_17h35.11.076,OS3_Mult_verification,2022.2.4,MacIntel,20,,,,,,,,,,,,,,,,,,,,,,,,,,,,,,,,,,,,,,,,,,,,,,,,,,,,,,,,,,,,,,,,,,,,,,,,,,,,,,,,,left,1,0.726,,,,,,magnitude,9,8,9 | 8,1,0.06,0.06,neutral,left,0,41,41,55,1,,,,,,,,,,,,,,,,,,,,,,,,,,,,,,,,,,,,,,,,,,,,,,,,,,,,,,,,,,,,,,,,,,,,,,,,
,8767,CAB,20/05/2004,001,2023-09-26_17h35.11.076,OS3_Mult_verification,2022.2.4,MacIntel,20,,,,,,,,,,,,,,,,,,,,,,,,,,,,,,,,,,,,,,,,,,,,,,,,,,,,,,,,,,,,,,,,,,,,,,,,,,,,,,,,,right,1,0.6,,,,,,magnitude,2,4,2 | 4,2,0.05,0.065,congruent,right,0,42,42,9,1,,,,,,,,,,,,,,,,,,,,,,,,,,,,,,,,,,,,,,,,,,,,,,,,,,,,,,,,,,,,,,,,,,,,,,,,
,8767,CAB,20/05/2004,001,2023-09-26_17h35.11.076,OS3_Mult_verification,2022.2.4,MacIntel,20,,,,,,,,,,,,,,,,,,,,,,,,,,,,,,,,,,,,,,,,,,,,,,,,,,,,,,,,,,,,,,,,,,,,,,,,,,,,,,,,,left,1,0.615,,,,,,magnitude,6,1,6 | 1,5,0.05,0.065,incongruent,left,0,43,43,44,1,,,,,,,,,,,,,,,,,,,,,,,,,,,,,,,,,,,,,,,,,,,,,,,,,,,,,,,,,,,,,,,,,,,,,,,,
,8767,CAB,20/05/2004,001,2023-09-26_17h35.11.076,OS3_Mult_verification,2022.2.4,MacIntel,20,,,,,,,,,,,,,,,,,,,,,,,,,,,,,,,,,,,,,,,,,,,,,,,,,,,,,,,,,,,,,,,,,,,,,,,,,,,,,,,,,left,1,0.712,,,,,,magnitude,8,6,8 | 6,2,0.065,0.05,congruent,left,0,44,44,14,1,,,,,,,,,,,,,,,,,,,,,,,,,,,,,,,,,,,,,,,,,,,,,,,,,,,,,,,,,,,,,,,,,,,,,,,,
,8767,CAB,20/05/2004,001,2023-09-26_17h35.11.076,OS3_Mult_verification,2022.2.4,MacIntel,20,,,,,,,,,,,,,,,,,,,,,,,,,,,,,,,,,,,,,,,,,,,,,,,,,,,,,,,,,,,,,,,,,,,,,,,,,,,,,,,,,left,1,0.644,,,,,,magnitude,2,1,2 | 1,1,0.06,0.06,neutral,left,0,45,45,52,1,,,,,,,,,,,,,,,,,,,,,,,,,,,,,,,,,,,,,,,,,,,,,,,,,,,,,,,,,,,,,,,,,,,,,,,,
,8767,CAB,20/05/2004,001,2023-09-26_17h35.11.076,OS3_Mult_verification,2022.2.4,MacIntel,20,,,,,,,,,,,,,,,,,,,,,,,,,,,,,,,,,,,,,,,,,,,,,,,,,,,,,,,,,,,,,,,,,,,,,,,,,,,,,,,,,right,1,0.574,,,,,,magnitude,6,8,6 | 8,2,0.065,0.05,incongruent,right,0,46,46,34,1,,,,,,,,,,,,,,,,,,,,,,,,,,,,,,,,,,,,,,,,,,,,,,,,,,,,,,,,,,,,,,,,,,,,,,,,
,8767,CAB,20/05/2004,001,2023-09-26_17h35.11.076,OS3_Mult_verification,2022.2.4,MacIntel,20,,,,,,,,,,,,,,,,,,,,,,,,,,,,,,,,,,,,,,,,,,,,,,,,,,,,,,,,,,,,,,,,,,,,,,,,,,,,,,,,,right,1,0.56,,,,,,magnitude,1,2,1 | 2,1,0.06,0.06,neutral,right,0,47,47,48,1,,,,,,,,,,,,,,,,,,,,,,,,,,,,,,,,,,,,,,,,,,,,,,,,,,,,,,,,,,,,,,,,,,,,,,,,
,8767,CAB,20/05/2004,001,2023-09-26_17h35.11.076,OS3_Mult_verification,2022.2.4,MacIntel,20,,,,,,,,,,,,,,,,,,,,,,,,,,,,,,,,,,,,,,,,,,,,,,,,,,,,,,,,,,,,,,,,,,,,,,,,,,,,,,,,,left,1,0.508,,,,,,magnitude,3,1,3 | 1,2,0.065,0.05,congruent,left,0,48,48,12,1,,,,,,,,,,,,,,,,,,,,,,,,,,,,,,,,,,,,,,,,,,,,,,,,,,,,,,,,,,,,,,,,,,,,,,,,
,8767,CAB,20/05/2004,001,2023-09-26_17h35.11.076,OS3_Mult_verification,2022.2.4,MacIntel,20,,,,,,,,,,,,,,,,,,,,,,,,,,,,,,,,,,,,,,,,,,,,,,,,,,,,,,,,,,,,,,,,,,,,,,,,,,,,,,,,,right,1,0.695,,,,,,magnitude,3,4,3 | 4,1,0.065,0.05,incongruent,right,0,49,49,25,1,,,,,,,,,,,,,,,,,,,,,,,,,,,,,,,,,,,,,,,,,,,,,,,,,,,,,,,,,,,,,,,,,,,,,,,,
,8767,CAB,20/05/2004,001,2023-09-26_17h35.11.076,OS3_Mult_verification,2022.2.4,MacIntel,20,,,,,,,,,,,,,,,,,,,,,,,,,,,,,,,,,,,,,,,,,,,,,,,,,,,,,,,,,,,,,,,,,,,,,,,,,,,,,,,,,left,1,0.633,,,,,,magnitude,9,8,9 | 8,1,0.05,0.065,incongruent,left,0,50,50,31,1,,,,,,,,,,,,,,,,,,,,,,,,,,,,,,,,,,,,,,,,,,,,,,,,,,,,,,,,,,,,,,,,,,,,,,,,
,8767,CAB,20/05/2004,001,2023-09-26_17h35.11.076,OS3_Mult_verification,2022.2.4,MacIntel,20,,,,,,,,,,,,,,,,,,,,,,,,,,,,,,,,,,,,,,,,,,,,,,,,,,,,,,,,,,,,,,,,,,,,,,,,,,,,,,,,,left,1,0.561,,,,,,magnitude,2,1,2 | 1,1,0.05,0.065,incongruent,left,0,51,51,28,1,,,,,,,,,,,,,,,,,,,,,,,,,,,,,,,,,,,,,,,,,,,,,,,,,,,,,,,,,,,,,,,,,,,,,,,,
,8767,CAB,20/05/2004,001,2023-09-26_17h35.11.076,OS3_Mult_verification,2022.2.4,MacIntel,20,,,,,,,,,,,,,,,,,,,,,,,,,,,,,,,,,,,,,,,,,,,,,,,,,,,,,,,,,,,,,,,,,,,,,,,,,,,,,,,,,right,1,0.592,,,,,,magnitude,2,4,2 | 4,2,0.06,0.06,neutral,right,0,52,52,57,1,,,,,,,,,,,,,,,,,,,,,,,,,,,,,,,,,,,,,,,,,,,,,,,,,,,,,,,,,,,,,,,,,,,,,,,,
,8767,CAB,20/05/2004,001,2023-09-26_17h35.11.076,OS3_Mult_verification,2022.2.4,MacIntel,20,,,,,,,,,,,,,,,,,,,,,,,,,,,,,,,,,,,,,,,,,,,,,,,,,,,,,,,,,,,,,,,,,,,,,,,,,,,,,,,,,left,0,0.524,,,,,,magnitude,1,2,1 | 2,1,0.065,0.05,incongruent,right,0,53,53,24,1,,,,,,,,,,,,,,,,,,,,,,,,,,,,,,,,,,,,,,,,,,,,,,,,,,,,,,,,,,,,,,,,,,,,,,,,
,8767,CAB,20/05/2004,001,2023-09-26_17h35.11.076,OS3_Mult_verification,2022.2.4,MacIntel,20,,,,,,,,,,,,,,,,,,,,,,,,,,,,,,,,,,,,,,,,,,,,,,,,,,,,,,,,,,,,,,,,,,,,,,,,,,,,,,,,,left,1,0.875,,,,,,magnitude,7,2,7 | 2,5,0.06,0.06,neutral,left,0,54,54,69,1,,,,,,,,,,,,,,,,,,,,,,,,,,,,,,,,,,,,,,,,,,,,,,,,,,,,,,,,,,,,,,,,,,,,,,,,
,8767,CAB,20/05/2004,001,2023-09-26_17h35.11.076,OS3_Mult_verification,2022.2.4,MacIntel,20,,,,,,,,,,,,,,,,,,,,,,,,,,,,,,,,,,,,,,,,,,,,,,,,,,,,,,,,,,,,,,,,,,,,,,,,,,,,,,,,,right,1,1.627,,,,,,magnitude,6,7,6 | 7,1,0.05,0.065,congruent,right,0,55,55,2,1,,,,,,,,,,,,,,,,,,,,,,,,,,,,,,,,,,,,,,,,,,,,,,,,,,,,,,,,,,,,,,,,,,,,,,,,
,8767,CAB,20/05/2004,001,2023-09-26_17h35.11.076,OS3_Mult_verification,2022.2.4,MacIntel,20,,,,,,,,,,,,,,,,,,,,,,,,,,,,,,,,,,,,,,,,,,,,,,,,,,,,,,,,,,,,,,,,,,,,,,,,,,,,,,,,,left,1,0.659,,,,,,magnitude,6,1,6 | 1,5,0.065,0.05,congruent,left,0,56,56,20,1,,,,,,,,,,,,,,,,,,,,,,,,,,,,,,,,,,,,,,,,,,,,,,,,,,,,,,,,,,,,,,,,,,,,,,,,
,8767,CAB,20/05/2004,001,2023-09-26_17h35.11.076,OS3_Mult_verification,2022.2.4,MacIntel,20,,,,,,,,,,,,,,,,,,,,,,,,,,,,,,,,,,,,,,,,,,,,,,,,,,,,,,,,,,,,,,,,,,,,,,,,,,,,,,,,,left,1,0.676,,,,,,magnitude,4,3,4 | 3,1,0.065,0.05,congruent,left,0,57,57,5,1,,,,,,,,,,,,,,,,,,,,,,,,,,,,,,,,,,,,,,,,,,,,,,,,,,,,,,,,,,,,,,,,,,,,,,,,
,8767,CAB,20/05/2004,001,2023-09-26_17h35.11.076,OS3_Mult_verification,2022.2.4,MacIntel,20,,,,,,,,,,,,,,,,,,,,,,,,,,,,,,,,,,,,,,,,,,,,,,,,,,,,,,,,,,,,,,,,,,,,,,,,,,,,,,,,,right,1,0.545,,,,,,magnitude,1,6,1 | 6,5,0.05,0.065,congruent,right,0,58,58,16,1,,,,,,,,,,,,,,,,,,,,,,,,,,,,,,,,,,,,,,,,,,,,,,,,,,,,,,,,,,,,,,,,,,,,,,,,
,8767,CAB,20/05/2004,001,2023-09-26_17h35.11.076,OS3_Mult_verification,2022.2.4,MacIntel,20,,,,,,,,,,,,,,,,,,,,,,,,,,,,,,,,,,,,,,,,,,,,,,,,,,,,,,,,,,,,,,,,,,,,,,,,,,,,,,,,,right,1,0.575,,,,,,magnitude,3,8,3 | 8,5,0.05,0.065,congruent,right,0,59,59,18,1,,,,,,,,,,,,,,,,,,,,,,,,,,,,,,,,,,,,,,,,,,,,,,,,,,,,,,,,,,,,,,,,,,,,,,,,
,8767,CAB,20/05/2004,001,2023-09-26_17h35.11.076,OS3_Mult_verification,2022.2.4,MacIntel,20,,,,,,,,,,,,,,,,,,,,,,,,,,,,,,,,,,,,,,,,,,,,,,,,,,,,,,,,,,,,,,,,,,,,,,,,,,,,,,,,,left,1,0.582,,,,,,magnitude,6,1,6 | 1,5,0.06,0.06,neutral,left,0,60,60,68,1,,,,,,,,,,,,,,,,,,,,,,,,,,,,,,,,,,,,,,,,,,,,,,,,,,,,,,,,,,,,,,,,,,,,,,,,
,8767,CAB,20/05/2004,001,2023-09-26_17h35.11.076,OS3_Mult_verification,2022.2.4,MacIntel,20,,,,,,,,,,,,,,,,,,,,,,,,,,,,,,,,,,,,,,,,,,,,,,,,,,,,,,,,,,,,,,,,,,,,,,,,,,,,,,,,,left,1,0.643,,,,,,magnitude,9,4,9 | 4,5,0.06,0.06,neutral,left,0,61,61,71,1,,,,,,,,,,,,,,,,,,,,,,,,,,,,,,,,,,,,,,,,,,,,,,,,,,,,,,,,,,,,,,,,,,,,,,,,
,8767,CAB,20/05/2004,001,2023-09-26_17h35.11.076,OS3_Mult_verification,2022.2.4,MacIntel,20,,,,,,,,,,,,,,,,,,,,,,,,,,,,,,,,,,,,,,,,,,,,,,,,,,,,,,,,,,,,,,,,,,,,,,,,,,,,,,,,,left,1,0.642,,,,,,magnitude,9,8,9 | 8,1,0.065,0.05,congruent,left,0,62,62,7,1,,,,,,,,,,,,,,,,,,,,,,,,,,,,,,,,,,,,,,,,,,,,,,,,,,,,,,,,,,,,,,,,,,,,,,,,
,8767,CAB,20/05/2004,001,2023-09-26_17h35.11.076,OS3_Mult_verification,2022.2.4,MacIntel,20,,,,,,,,,,,,,,,,,,,,,,,,,,,,,,,,,,,,,,,,,,,,,,,,,,,,,,,,,,,,,,,,,,,,,,,,,,,,,,,,,left,1,0.609,,,,,,magnitude,9,4,9 | 4,5,0.05,0.065,incongruent,left,0,63,63,47,1,,,,,,,,,,,,,,,,,,,,,,,,,,,,,,,,,,,,,,,,,,,,,,,,,,,,,,,,,,,,,,,,,,,,,,,,
,8767,CAB,20/05/2004,001,2023-09-26_17h35.11.076,OS3_Mult_verification,2022.2.4,MacIntel,20,,,,,,,,,,,,,,,,,,,,,,,,,,,,,,,,,,,,,,,,,,,,,,,,,,,,,,,,,,,,,,,,,,,,,,,,,,,,,,,,,right,1,0.609,,,,,,magnitude,4,9,4 | 9,5,0.05,0.065,congruent,right,0,64,64,19,1,,,,,,,,,,,,,,,,,,,,,,,,,,,,,,,,,,,,,,,,,,,,,,,,,,,,,,,,,,,,,,,,,,,,,,,,
,8767,CAB,20/05/2004,001,2023-09-26_17h35.11.076,OS3_Mult_verification,2022.2.4,MacIntel,20,,,,,,,,,,,,,,,,,,,,,,,,,,,,,,,,,,,,,,,,,,,,,,,,,,,,,,,,,,,,,,,,,,,,,,,,,,,,,,,,,right,1,0.88,,,,,,magnitude,7,9,7 | 9,2,0.06,0.06,neutral,right,0,65,65,59,1,,,,,,,,,,,,,,,,,,,,,,,,,,,,,,,,,,,,,,,,,,,,,,,,,,,,,,,,,,,,,,,,,,,,,,,,
,8767,CAB,20/05/2004,001,2023-09-26_17h35.11.076,OS3_Mult_verification,2022.2.4,MacIntel,20,,,,,,,,,,,,,,,,,,,,,,,,,,,,,,,,,,,,,,,,,,,,,,,,,,,,,,,,,,,,,,,,,,,,,,,,,,,,,,,,,right,1,0.575,,,,,,magnitude,7,9,7 | 9,2,0.05,0.065,congruent,right,0,66,66,11,1,,,,,,,,,,,,,,,,,,,,,,,,,,,,,,,,,,,,,,,,,,,,,,,,,,,,,,,,,,,,,,,,,,,,,,,,
,8767,CAB,20/05/2004,001,2023-09-26_17h35.11.076,OS3_Mult_verification,2022.2.4,MacIntel,20,,,,,,,,,,,,,,,,,,,,,,,,,,,,,,,,,,,,,,,,,,,,,,,,,,,,,,,,,,,,,,,,,,,,,,,,,,,,,,,,,left,1,0.993,,,,,,magnitude,7,6,7 | 6,1,0.065,0.05,congruent,left,0,67,67,6,1,,,,,,,,,,,,,,,,,,,,,,,,,,,,,,,,,,,,,,,,,,,,,,,,,,,,,,,,,,,,,,,,,,,,,,,,
,8767,CAB,20/05/2004,001,2023-09-26_17h35.11.076,OS3_Mult_verification,2022.2.4,MacIntel,20,,,,,,,,,,,,,,,,,,,,,,,,,,,,,,,,,,,,,,,,,,,,,,,,,,,,,,,,,,,,,,,,,,,,,,,,,,,,,,,,,left,1,0.827,,,,,,magnitude,9,7,9 | 7,2,0.065,0.05,congruent,left,0,68,68,15,1,,,,,,,,,,,,,,,,,,,,,,,,,,,,,,,,,,,,,,,,,,,,,,,,,,,,,,,,,,,,,,,,,,,,,,,,
,8767,CAB,20/05/2004,001,2023-09-26_17h35.11.076,OS3_Mult_verification,2022.2.4,MacIntel,20,,,,,,,,,,,,,,,,,,,,,,,,,,,,,,,,,,,,,,,,,,,,,,,,,,,,,,,,,,,,,,,,,,,,,,,,,,,,,,,,,left,1,0.694,,,,,,magnitude,4,3,4 | 3,1,0.06,0.06,neutral,left,0,69,69,53,1,,,,,,,,,,,,,,,,,,,,,,,,,,,,,,,,,,,,,,,,,,,,,,,,,,,,,,,,,,,,,,,,,,,,,,,,
,8767,CAB,20/05/2004,001,2023-09-26_17h35.11.076,OS3_Mult_verification,2022.2.4,MacIntel,20,,,,,,,,,,,,,,,,,,,,,,,,,,,,,,,,,,,,,,,,,,,,,,,,,,,,,,,,,,,,,,,,,,,,,,,,,,,,,,,,,right,1,0.592,,,,,,magnitude,3,8,3 | 8,5,0.06,0.06,neutral,right,0,70,70,66,1,,,,,,,,,,,,,,,,,,,,,,,,,,,,,,,,,,,,,,,,,,,,,,,,,,,,,,,,,,,,,,,,,,,,,,,,
,8767,CAB,20/05/2004,001,2023-09-26_17h35.11.076,OS3_Mult_verification,2022.2.4,MacIntel,20,,,,,,,,,,,,,,,,,,,,,,,,,,,,,,,,,,,,,,,,,,,,,,,,,,,,,,,,,,,,,,,,,,,,,,,,,,,,,,,,,right,1,0.767,,,,,,magnitude,8,9,8 | 9,1,0.065,0.05,incongruent,right,0,71,71,27,1,,,,,,,,,,,,,,,,,,,,,,,,,,,,,,,,,,,,,,,,,,,,,,,,,,,,,,,,,,,,,,,,,,,,,,,,
,8767,CAB,20/05/2004,001,2023-09-26_17h35.11.076,OS3_Mult_verification,2022.2.4,MacIntel,20,,,,,,,,,,,,,,,,,,,,,,,,,,,,,,,,,,,,,,,,,,,,,,,,,,,,,,,,,,,,,,,,,,,,,,,,,,,,,,,,,,,,,,,,,,,,,,,,,,,,,,,0,0,0,0,1,stroop_stim/magnitude.xlsx,stroop_stim/prac_magnitude.xlsx,NUMERICALLY larger (larger coefficient).,images/numericallyLarger.png,,,,,,,,,,,,,,,,,,,,,,,,,,,,,,,,,,,,,,,,,,,,,,,,,,,,,,,,,,,,,,,
,8767,CAB,20/05/2004,001,2023-09-26_17h35.11.076,OS3_Mult_verification,2022.2.4,MacIntel,20,,,,,,,,,,,,,,,,space,0.931,,,,,,,,,,,,,,,,,,,,,,,,,,,,,,,,,,,,,,,,,,,,,,,,,,,,,,,,,,,,,,,,right,1,1.274,0,0,0,2,1,practice,9,9,9 | 9,0,0.05,0.065,neutral,right,,,,,,,,,,,,,,,,,,,,,,,,,,,,,,,,,,,,,,,,,,,,,,,,,,,,,,,,,,,,,,,,,,,,,,,,,,,,,
,8767,CAB,20/05/2004,001,2023-09-26_17h35.11.076,OS3_Mult_verification,2022.2.4,MacIntel,20,,,,,,,,,,,,,,,,,,,,,,,,,,,,,,,,,,,,,,,,,,,,,,,,,,,,,,,,,,,,,,,,,,,,,,,,,,,,,,,,,left,1,1.075,0,1,1,0,1,practice,9,8,9 | 8,1,0.065,0.05,congruent,left,,,,,,,,,,,,,,,,,,,,,,,,,,,,,,,,,,,,,,,,,,,,,,,,,,,,,,,,,,,,,,,,,,,,,,,,,,,,,
,8767,CAB,20/05/2004,001,2023-09-26_17h35.11.076,OS3_Mult_verification,2022.2.4,MacIntel,20,,,,,,,,,,,,,,,,,,,,,,,,,,,,,,,,,,,,,,,,,,,,,,,,,,,,,,,,,,,,,,,,,,,,,,,,,,,,,,,,,right,1,0.613,0,2,2,1,1,practice,4,3,4 | 3,1,0.05,0.065,incongruent,right,,,,,,,,,,,,,,,,,,,,,,,,,,,,,,,,,,,,,,,,,,,,,,,,,,,,,,,,,,,,,,,,,,,,,,,,,,,,,
,8767,CAB,20/05/2004,001,2023-09-26_17h35.11.076,OS3_Mult_verification,2022.2.4,MacIntel,20,,,,,,,,,,,,,,,,,,,,,,,,,,,,,,,,,,,,,,,,,,,,,,,,,,,,,,,,,,,,,,,,,,,,,,,,,,,,,,,,,left,1,1.091,,,,,,physical,8,6,8 | 6,2,0.065,0.05,congruent,left,0,0,0,14,1,,,,,,,,,,,,,,,,,,,,,,,,,,,,,,,,,,,,,,,,,,,,,,,,,,,,,,,,,,,,,,,,,,,,,,,,
,8767,CAB,20/05/2004,001,2023-09-26_17h35.11.076,OS3_Mult_verification,2022.2.4,MacIntel,20,,,,,,,,,,,,,,,,,,,,,,,,,,,,,,,,,,,,,,,,,,,,,,,,,,,,,,,,,,,,,,,,,,,,,,,,,,,,,,,,,left,1,0.714,,,,,,physical,2,4,2 | 4,2,0.065,0.05,incongruent,left,0,1,1,33,1,,,,,,,,,,,,,,,,,,,,,,,,,,,,,,,,,,,,,,,,,,,,,,,,,,,,,,,,,,,,,,,,,,,,,,,,
,8767,CAB,20/05/2004,001,2023-09-26_17h35.11.076,OS3_Mult_verification,2022.2.4,MacIntel,20,,,,,,,,,,,,,,,,,,,,,,,,,,,,,,,,,,,,,,,,,,,,,,,,,,,,,,,,,,,,,,,,,,,,,,,,,,,,,,,,,left,1,0.646,,,,,,physical,3,8,3 | 8,5,0.065,0.05,incongruent,left,0,2,2,42,1,,,,,,,,,,,,,,,,,,,,,,,,,,,,,,,,,,,,,,,,,,,,,,,,,,,,,,,,,,,,,,,,,,,,,,,,
,8767,CAB,20/05/2004,001,2023-09-26_17h35.11.076,OS3_Mult_verification,2022.2.4,MacIntel,20,,,,,,,,,,,,,,,,,,,,,,,,,,,,,,,,,,,,,,,,,,,,,,,,,,,,,,,,,,,,,,,,,,,,,,,,,,,,,,,,,right,1,0.742,,,,,,physical,9,8,9 | 8,1,0.05,0.065,incongruent,right,0,3,3,31,1,,,,,,,,,,,,,,,,,,,,,,,,,,,,,,,,,,,,,,,,,,,,,,,,,,,,,,,,,,,,,,,,,,,,,,,,
,8767,CAB,20/05/2004,001,2023-09-26_17h35.11.076,OS3_Mult_verification,2022.2.4,MacIntel,20,,,,,,,,,,,,,,,,,,,,,,,,,,,,,,,,,,,,,,,,,,,,,,,,,,,,,,,,,,,,,,,,,,,,,,,,,,,,,,,,,right,1,0.612,,,,,,physical,4,3,4 | 3,1,0.05,0.065,incongruent,right,0,4,4,29,1,,,,,,,,,,,,,,,,,,,,,,,,,,,,,,,,,,,,,,,,,,,,,,,,,,,,,,,,,,,,,,,,,,,,,,,,
,8767,CAB,20/05/2004,001,2023-09-26_17h35.11.076,OS3_Mult_verification,2022.2.4,MacIntel,20,,,,,,,,,,,,,,,,,,,,,,,,,,,,,,,,,,,,,,,,,,,,,,,,,,,,,,,,,,,,,,,,,,,,,,,,,,,,,,,,,left,1,0.676,,,,,,physical,1,2,1 | 2,1,0.065,0.05,incongruent,left,0,5,5,24,1,,,,,,,,,,,,,,,,,,,,,,,,,,,,,,,,,,,,,,,,,,,,,,,,,,,,,,,,,,,,,,,,,,,,,,,,
,8767,CAB,20/05/2004,001,2023-09-26_17h35.11.076,OS3_Mult_verification,2022.2.4,MacIntel,20,,,,,,,,,,,,,,,,,,,,,,,,,,,,,,,,,,,,,,,,,,,,,,,,,,,,,,,,,,,,,,,,,,,,,,,,,,,,,,,,,left,1,0.696,,,,,,physical,4,2,4 | 2,2,0.065,0.05,congruent,left,0,6,6,13,1,,,,,,,,,,,,,,,,,,,,,,,,,,,,,,,,,,,,,,,,,,,,,,,,,,,,,,,,,,,,,,,,,,,,,,,,
,8767,CAB,20/05/2004,001,2023-09-26_17h35.11.076,OS3_Mult_verification,2022.2.4,MacIntel,20,,,,,,,,,,,,,,,,,,,,,,,,,,,,,,,,,,,,,,,,,,,,,,,,,,,,,,,,,,,,,,,,,,,,,,,,,,,,,,,,,left,1,1.043,,,,,,physical,7,7,7 | 7,0,0.065,0.05,neutral,left,0,7,7,54,1,,,,,,,,,,,,,,,,,,,,,,,,,,,,,,,,,,,,,,,,,,,,,,,,,,,,,,,,,,,,,,,,,,,,,,,,
,8767,CAB,20/05/2004,001,2023-09-26_17h35.11.076,OS3_Mult_verification,2022.2.4,MacIntel,20,,,,,,,,,,,,,,,,,,,,,,,,,,,,,,,,,,,,,,,,,,,,,,,,,,,,,,,,,,,,,,,,,,,,,,,,,,,,,,,,,right,1,0.814,,,,,,physical,7,6,7 | 6,1,0.05,0.065,incongruent,right,0,8,8,30,1,,,,,,,,,,,,,,,,,,,,,,,,,,,,,,,,,,,,,,,,,,,,,,,,,,,,,,,,,,,,,,,,,,,,,,,,
,8767,CAB,20/05/2004,001,2023-09-26_17h35.11.076,OS3_Mult_verification,2022.2.4,MacIntel,20,,,,,,,,,,,,,,,,,,,,,,,,,,,,,,,,,,,,,,,,,,,,,,,,,,,,,,,,,,,,,,,,,,,,,,,,,,,,,,,,,left,1,0.526,,,,,,physical,4,3,4 | 3,1,0.065,0.05,congruent,left,0,9,9,5,1,,,,,,,,,,,,,,,,,,,,,,,,,,,,,,,,,,,,,,,,,,,,,,,,,,,,,,,,,,,,,,,,,,,,,,,,
,8767,CAB,20/05/2004,001,2023-09-26_17h35.11.076,OS3_Mult_verification,2022.2.4,MacIntel,20,,,,,,,,,,,,,,,,,,,,,,,,,,,,,,,,,,,,,,,,,,,,,,,,,,,,,,,,,,,,,,,,,,,,,,,,,,,,,,,,,right,1,0.66,,,,,,physical,4,4,4 | 4,0,0.05,0.065,neutral,right,0,10,10,67,1,,,,,,,,,,,,,,,,,,,,,,,,,,,,,,,,,,,,,,,,,,,,,,,,,,,,,,,,,,,,,,,,,,,,,,,,
,8767,CAB,20/05/2004,001,2023-09-26_17h35.11.076,OS3_Mult_verification,2022.2.4,MacIntel,20,,,,,,,,,,,,,,,,,,,,,,,,,,,,,,,,,,,,,,,,,,,,,,,,,,,,,,,,,,,,,,,,,,,,,,,,,,,,,,,,,right,1,0.575,,,,,,physical,7,7,7 | 7,0,0.05,0.065,neutral,right,0,11,11,59,1,,,,,,,,,,,,,,,,,,,,,,,,,,,,,,,,,,,,,,,,,,,,,,,,,,,,,,,,,,,,,,,,,,,,,,,,
,8767,CAB,20/05/2004,001,2023-09-26_17h35.11.076,OS3_Mult_verification,2022.2.4,MacIntel,20,,,,,,,,,,,,,,,,,,,,,,,,,,,,,,,,,,,,,,,,,,,,,,,,,,,,,,,,,,,,,,,,,,,,,,,,,,,,,,,,,right,1,0.627,,,,,,physical,2,4,2 | 4,2,0.05,0.065,congruent,right,0,12,12,9,1,,,,,,,,,,,,,,,,,,,,,,,,,,,,,,,,,,,,,,,,,,,,,,,,,,,,,,,,,,,,,,,,,,,,,,,,
,8767,CAB,20/05/2004,001,2023-09-26_17h35.11.076,OS3_Mult_verification,2022.2.4,MacIntel,20,,,,,,,,,,,,,,,,,,,,,,,,,,,,,,,,,,,,,,,,,,,,,,,,,,,,,,,,,,,,,,,,,,,,,,,,,,,,,,,,,left,1,0.743,,,,,,physical,6,8,6 | 8,2,0.065,0.05,incongruent,left,0,13,13,34,1,,,,,,,,,,,,,,,,,,,,,,,,,,,,,,,,,,,,,,,,,,,,,,,,,,,,,,,,,,,,,,,,,,,,,,,,
,8767,CAB,20/05/2004,001,2023-09-26_17h35.11.076,OS3_Mult_verification,2022.2.4,MacIntel,20,,,,,,,,,,,,,,,,,,,,,,,,,,,,,,,,,,,,,,,,,,,,,,,,,,,,,,,,,,,,,,,,,,,,,,,,,,,,,,,,,left,1,0.579,,,,,,physical,1,1,1 | 1,0,0.065,0.05,neutral,left,0,14,14,48,1,,,,,,,,,,,,,,,,,,,,,,,,,,,,,,,,,,,,,,,,,,,,,,,,,,,,,,,,,,,,,,,,,,,,,,,,
,8767,CAB,20/05/2004,001,2023-09-26_17h35.11.076,OS3_Mult_verification,2022.2.4,MacIntel,20,,,,,,,,,,,,,,,,,,,,,,,,,,,,,,,,,,,,,,,,,,,,,,,,,,,,,,,,,,,,,,,,,,,,,,,,,,,,,,,,,left,1,0.66,,,,,,physical,8,8,8 | 8,0,0.065,0.05,neutral,left,0,15,15,51,1,,,,,,,,,,,,,,,,,,,,,,,,,,,,,,,,,,,,,,,,,,,,,,,,,,,,,,,,,,,,,,,,,,,,,,,,
,8767,CAB,20/05/2004,001,2023-09-26_17h35.11.076,OS3_Mult_verification,2022.2.4,MacIntel,20,,,,,,,,,,,,,,,,,,,,,,,,,,,,,,,,,,,,,,,,,,,,,,,,,,,,,,,,,,,,,,,,,,,,,,,,,,,,,,,,,left,1,0.686,,,,,,physical,8,9,8 | 9,1,0.065,0.05,incongruent,left,0,16,16,27,1,,,,,,,,,,,,,,,,,,,,,,,,,,,,,,,,,,,,,,,,,,,,,,,,,,,,,,,,,,,,,,,,,,,,,,,,
,8767,CAB,20/05/2004,001,2023-09-26_17h35.11.076,OS3_Mult_verification,2022.2.4,MacIntel,20,,,,,,,,,,,,,,,,,,,,,,,,,,,,,,,,,,,,,,,,,,,,,,,,,,,,,,,,,,,,,,,,,,,,,,,,,,,,,,,,,left,1,1.359,,,,,,physical,7,6,7 | 6,1,0.065,0.05,congruent,left,0,17,17,6,1,,,,,,,,,,,,,,,,,,,,,,,,,,,,,,,,,,,,,,,,,,,,,,,,,,,,,,,,,,,,,,,,,,,,,,,,
,8767,CAB,20/05/2004,001,2023-09-26_17h35.11.076,OS3_Mult_verification,2022.2.4,MacIntel,20,,,,,,,,,,,,,,,,,,,,,,,,,,,,,,,,,,,,,,,,,,,,,,,,,,,,,,,,,,,,,,,,,,,,,,,,,,,,,,,,,right,1,0.576,,,,,,physical,7,9,7 | 9,2,0.05,0.065,congruent,right,0,18,18,11,1,,,,,,,,,,,,,,,,,,,,,,,,,,,,,,,,,,,,,,,,,,,,,,,,,,,,,,,,,,,,,,,,,,,,,,,,
,8767,CAB,20/05/2004,001,2023-09-26_17h35.11.076,OS3_Mult_verification,2022.2.4,MacIntel,20,,,,,,,,,,,,,,,,,,,,,,,,,,,,,,,,,,,,,,,,,,,,,,,,,,,,,,,,,,,,,,,,,,,,,,,,,,,,,,,,,left,1,0.642,,,,,,physical,4,4,4 | 4,0,0.065,0.05,neutral,left,0,19,19,53,1,,,,,,,,,,,,,,,,,,,,,,,,,,,,,,,,,,,,,,,,,,,,,,,,,,,,,,,,,,,,,,,,,,,,,,,,
,8767,CAB,20/05/2004,001,2023-09-26_17h35.11.076,OS3_Mult_verification,2022.2.4,MacIntel,20,,,,,,,,,,,,,,,,,,,,,,,,,,,,,,,,,,,,,,,,,,,,,,,,,,,,,,,,,,,,,,,,,,,,,,,,,,,,,,,,,left,1,0.667,,,,,,physical,9,9,9 | 9,0,0.065,0.05,neutral,left,0,20,20,55,1,,,,,,,,,,,,,,,,,,,,,,,,,,,,,,,,,,,,,,,,,,,,,,,,,,,,,,,,,,,,,,,,,,,,,,,,
,8767,CAB,20/05/2004,001,2023-09-26_17h35.11.076,OS3_Mult_verification,2022.2.4,MacIntel,20,,,,,,,,,,,,,,,,,,,,,,,,,,,,,,,,,,,,,,,,,,,,,,,,,,,,,,,,,,,,,,,,,,,,,,,,,,,,,,,,,left,1,0.779,,,,,,physical,4,9,4 | 9,5,0.065,0.05,incongruent,left,0,21,21,43,1,,,,,,,,,,,,,,,,,,,,,,,,,,,,,,,,,,,,,,,,,,,,,,,,,,,,,,,,,,,,,,,,,,,,,,,,
,8767,CAB,20/05/2004,001,2023-09-26_17h35.11.076,OS3_Mult_verification,2022.2.4,MacIntel,20,,,,,,,,,,,,,,,,,,,,,,,,,,,,,,,,,,,,,,,,,,,,,,,,,,,,,,,,,,,,,,,,,,,,,,,,,,,,,,,,,left,1,1.176,,,,,,physical,3,3,3 | 3,0,0.065,0.05,neutral,left,0,22,22,66,1,,,,,,,,,,,,,,,,,,,,,,,,,,,,,,,,,,,,,,,,,,,,,,,,,,,,,,,,,,,,,,,,,,,,,,,,
,8767,CAB,20/05/2004,001,2023-09-26_17h35.11.076,OS3_Mult_verification,2022.2.4,MacIntel,20,,,,,,,,,,,,,,,,,,,,,,,,,,,,,,,,,,,,,,,,,,,,,,,,,,,,,,,,,,,,,,,,,,,,,,,,,,,,,,,,,right,1,0.625,,,,,,physical,9,9,9 | 9,0,0.05,0.065,neutral,right,0,23,23,63,1,,,,,,,,,,,,,,,,,,,,,,,,,,,,,,,,,,,,,,,,,,,,,,,,,,,,,,,,,,,,,,,,,,,,,,,,
,8767,CAB,20/05/2004,001,2023-09-26_17h35.11.076,OS3_Mult_verification,2022.2.4,MacIntel,20,,,,,,,,,,,,,,,,,,,,,,,,,,,,,,,,,,,,,,,,,,,,,,,,,,,,,,,,,,,,,,,,,,,,,,,,,,,,,,,,,right,1,0.575,,,,,,physical,4,4,4 | 4,0,0.05,0.065,neutral,right,0,24,24,61,1,,,,,,,,,,,,,,,,,,,,,,,,,,,,,,,,,,,,,,,,,,,,,,,,,,,,,,,,,,,,,,,,,,,,,,,,
,8767,CAB,20/05/2004,001,2023-09-26_17h35.11.076,OS3_Mult_verification,2022.2.4,MacIntel,20,,,,,,,,,,,,,,,,,,,,,,,,,,,,,,,,,,,,,,,,,,,,,,,,,,,,,,,,,,,,,,,,,,,,,,,,,,,,,,,,,left,1,0.774,,,,,,physical,1,1,1 | 1,0,0.065,0.05,neutral,left,0,25,25,64,1,,,,,,,,,,,,,,,,,,,,,,,,,,,,,,,,,,,,,,,,,,,,,,,,,,,,,,,,,,,,,,,,,,,,,,,,
,8767,CAB,20/05/2004,001,2023-09-26_17h35.11.076,OS3_Mult_verification,2022.2.4,MacIntel,20,,,,,,,,,,,,,,,,,,,,,,,,,,,,,,,,,,,,,,,,,,,,,,,,,,,,,,,,,,,,,,,,,,,,,,,,,,,,,,,,,left,1,0.683,,,,,,physical,1,3,1 | 3,2,0.065,0.05,incongruent,left,0,26,26,32,1,,,,,,,,,,,,,,,,,,,,,,,,,,,,,,,,,,,,,,,,,,,,,,,,,,,,,,,,,,,,,,,,,,,,,,,,
,8767,CAB,20/05/2004,001,2023-09-26_17h35.11.076,OS3_Mult_verification,2022.2.4,MacIntel,20,,,,,,,,,,,,,,,,,,,,,,,,,,,,,,,,,,,,,,,,,,,,,,,,,,,,,,,,,,,,,,,,,,,,,,,,,,,,,,,,,left,1,0.827,,,,,,physical,7,9,7 | 9,2,0.065,0.05,incongruent,left,0,27,27,35,1,,,,,,,,,,,,,,,,,,,,,,,,,,,,,,,,,,,,,,,,,,,,,,,,,,,,,,,,,,,,,,,,,,,,,,,,
,8767,CAB,20/05/2004,001,2023-09-26_17h35.11.076,OS3_Mult_verification,2022.2.4,MacIntel,20,,,,,,,,,,,,,,,,,,,,,,,,,,,,,,,,,,,,,,,,,,,,,,,,,,,,,,,,,,,,,,,,,,,,,,,,,,,,,,,,,right,1,0.678,,,,,,physical,7,7,7 | 7,0,0.05,0.065,neutral,right,0,28,28,69,1,,,,,,,,,,,,,,,,,,,,,,,,,,,,,,,,,,,,,,,,,,,,,,,,,,,,,,,,,,,,,,,,,,,,,,,,
,8767,CAB,20/05/2004,001,2023-09-26_17h35.11.076,OS3_Mult_verification,2022.2.4,MacIntel,20,,,,,,,,,,,,,,,,,,,,,,,,,,,,,,,,,,,,,,,,,,,,,,,,,,,,,,,,,,,,,,,,,,,,,,,,,,,,,,,,,right,1,0.594,,,,,,physical,9,9,9 | 9,0,0.05,0.065,neutral,right,0,29,29,71,1,,,,,,,,,,,,,,,,,,,,,,,,,,,,,,,,,,,,,,,,,,,,,,,,,,,,,,,,,,,,,,,,,,,,,,,,
,8767,CAB,20/05/2004,001,2023-09-26_17h35.11.076,OS3_Mult_verification,2022.2.4,MacIntel,20,,,,,,,,,,,,,,,,,,,,,,,,,,,,,,,,,,,,,,,,,,,,,,,,,,,,,,,,,,,,,,,,,,,,,,,,,,,,,,,,,right,1,1.033,,,,,,physical,8,3,8 | 3,5,0.05,0.065,incongruent,right,0,30,30,46,1,,,,,,,,,,,,,,,,,,,,,,,,,,,,,,,,,,,,,,,,,,,,,,,,,,,,,,,,,,,,,,,,,,,,,,,,
,8767,CAB,20/05/2004,001,2023-09-26_17h35.11.076,OS3_Mult_verification,2022.2.4,MacIntel,20,,,,,,,,,,,,,,,,,,,,,,,,,,,,,,,,,,,,,,,,,,,,,,,,,,,,,,,,,,,,,,,,,,,,,,,,,,,,,,,,,left,1,0.691,,,,,,physical,6,6,6 | 6,0,0.065,0.05,neutral,left,0,31,31,68,1,,,,,,,,,,,,,,,,,,,,,,,,,,,,,,,,,,,,,,,,,,,,,,,,,,,,,,,,,,,,,,,,,,,,,,,,
,8767,CAB,20/05/2004,001,2023-09-26_17h35.11.076,OS3_Mult_verification,2022.2.4,MacIntel,20,,,,,,,,,,,,,,,,,,,,,,,,,,,,,,,,,,,,,,,,,,,,,,,,,,,,,,,,,,,,,,,,,,,,,,,,,,,,,,,,,right,1,0.779,,,,,,physical,6,7,6 | 7,1,0.05,0.065,congruent,right,0,32,32,2,1,,,,,,,,,,,,,,,,,,,,,,,,,,,,,,,,,,,,,,,,,,,,,,,,,,,,,,,,,,,,,,,,,,,,,,,,
,8767,CAB,20/05/2004,001,2023-09-26_17h35.11.076,OS3_Mult_verification,2022.2.4,MacIntel,20,,,,,,,,,,,,,,,,,,,,,,,,,,,,,,,,,,,,,,,,,,,,,,,,,,,,,,,,,,,,,,,,,,,,,,,,,,,,,,,,,right,1,0.593,,,,,,physical,3,4,3 | 4,1,0.05,0.065,congruent,right,0,33,33,1,1,,,,,,,,,,,,,,,,,,,,,,,,,,,,,,,,,,,,,,,,,,,,,,,,,,,,,,,,,,,,,,,,,,,,,,,,
,8767,CAB,20/05/2004,001,2023-09-26_17h35.11.076,OS3_Mult_verification,2022.2.4,MacIntel,20,,,,,,,,,,,,,,,,,,,,,,,,,,,,,,,,,,,,,,,,,,,,,,,,,,,,,,,,,,,,,,,,,,,,,,,,,,,,,,,,,left,1,0.759,,,,,,physical,3,1,3 | 1,2,0.065,0.05,congruent,left,0,34,34,12,1,,,,,,,,,,,,,,,,,,,,,,,,,,,,,,,,,,,,,,,,,,,,,,,,,,,,,,,,,,,,,,,,,,,,,,,,
,8767,CAB,20/05/2004,001,2023-09-26_17h35.11.076,OS3_Mult_verification,2022.2.4,MacIntel,20,,,,,,,,,,,,,,,,,,,,,,,,,,,,,,,,,,,,,,,,,,,,,,,,,,,,,,,,,,,,,,,,,,,,,,,,,,,,,,,,,right,1,0.593,,,,,,physical,1,1,1 | 1,0,0.05,0.065,neutral,right,0,35,35,56,1,,,,,,,,,,,,,,,,,,,,,,,,,,,,,,,,,,,,,,,,,,,,,,,,,,,,,,,,,,,,,,,,,,,,,,,,
,8767,CAB,20/05/2004,001,2023-09-26_17h35.11.076,OS3_Mult_verification,2022.2.4,MacIntel,20,,,,,,,,,,,,,,,,,,,,,,,,,,,,,,,,,,,,,,,,,,,,,,,,,,,,,,,,,,,,,,,,,,,,,,,,,,,,,,,,,right,1,0.566,,,,,,physical,6,6,6 | 6,0,0.05,0.065,neutral,right,0,36,36,58,1,,,,,,,,,,,,,,,,,,,,,,,,,,,,,,,,,,,,,,,,,,,,,,,,,,,,,,,,,,,,,,,,,,,,,,,,
,8767,CAB,20/05/2004,001,2023-09-26_17h35.11.076,OS3_Mult_verification,2022.2.4,MacIntel,20,,,,,,,,,,,,,,,,,,,,,,,,,,,,,,,,,,,,,,,,,,,,,,,,,,,,,,,,,,,,,,,,,,,,,,,,,,,,,,,,,right,1,0.658,,,,,,physical,3,8,3 | 8,5,0.05,0.065,congruent,right,0,37,37,18,1,,,,,,,,,,,,,,,,,,,,,,,,,,,,,,,,,,,,,,,,,,,,,,,,,,,,,,,,,,,,,,,,,,,,,,,,
,8767,CAB,20/05/2004,001,2023-09-26_17h35.11.076,OS3_Mult_verification,2022.2.4,MacIntel,20,,,,,,,,,,,,,,,,,,,,,,,,,,,,,,,,,,,,,,,,,,,,,,,,,,,,,,,,,,,,,,,,,,,,,,,,,,,,,,,,,right,1,0.811,,,,,,physical,9,4,9 | 4,5,0.05,0.065,incongruent,right,0,38,38,47,1,,,,,,,,,,,,,,,,,,,,,,,,,,,,,,,,,,,,,,,,,,,,,,,,,,,,,,,,,,,,,,,,,,,,,,,,
,8767,CAB,20/05/2004,001,2023-09-26_17h35.11.076,OS3_Mult_verification,2022.2.4,MacIntel,20,,,,,,,,,,,,,,,,,,,,,,,,,,,,,,,,,,,,,,,,,,,,,,,,,,,,,,,,,,,,,,,,,,,,,,,,,,,,,,,,,right,1,0.642,,,,,,physical,2,2,2 | 2,0,0.05,0.065,neutral,right,0,39,39,65,1,,,,,,,,,,,,,,,,,,,,,,,,,,,,,,,,,,,,,,,,,,,,,,,,,,,,,,,,,,,,,,,,,,,,,,,,
,8767,CAB,20/05/2004,001,2023-09-26_17h35.11.076,OS3_Mult_verification,2022.2.4,MacIntel,20,,,,,,,,,,,,,,,,,,,,,,,,,,,,,,,,,,,,,,,,,,,,,,,,,,,,,,,,,,,,,,,,,,,,,,,,,,,,,,,,,right,1,0.858,,,,,,physical,9,7,9 | 7,2,0.05,0.065,incongruent,right,0,40,40,39,1,,,,,,,,,,,,,,,,,,,,,,,,,,,,,,,,,,,,,,,,,,,,,,,,,,,,,,,,,,,,,,,,,,,,,,,,
,8767,CAB,20/05/2004,001,2023-09-26_17h35.11.076,OS3_Mult_verification,2022.2.4,MacIntel,20,,,,,,,,,,,,,,,,,,,,,,,,,,,,,,,,,,,,,,,,,,,,,,,,,,,,,,,,,,,,,,,,,,,,,,,,,,,,,,,,,left,1,0.643,,,,,,physical,8,8,8 | 8,0,0.065,0.05,neutral,left,0,41,41,70,1,,,,,,,,,,,,,,,,,,,,,,,,,,,,,,,,,,,,,,,,,,,,,,,,,,,,,,,,,,,,,,,,,,,,,,,,
,8767,CAB,20/05/2004,001,2023-09-26_17h35.11.076,OS3_Mult_verification,2022.2.4,MacIntel,20,,,,,,,,,,,,,,,,,,,,,,,,,,,,,,,,,,,,,,,,,,,,,,,,,,,,,,,,,,,,,,,,,,,,,,,,,,,,,,,,,left,1,0.578,,,,,,physical,6,6,6 | 6,0,0.065,0.05,neutral,left,0,42,42,50,1,,,,,,,,,,,,,,,,,,,,,,,,,,,,,,,,,,,,,,,,,,,,,,,,,,,,,,,,,,,,,,,,,,,,,,,,
,8767,CAB,20/05/2004,001,2023-09-26_17h35.11.076,OS3_Mult_verification,2022.2.4,MacIntel,20,,,,,,,,,,,,,,,,,,,,,,,,,,,,,,,,,,,,,,,,,,,,,,,,,,,,,,,,,,,,,,,,,,,,,,,,,,,,,,,,,left,1,0.802,,,,,,physical,1,6,1 | 6,5,0.065,0.05,incongruent,left,0,43,43,40,1,,,,,,,,,,,,,,,,,,,,,,,,,,,,,,,,,,,,,,,,,,,,,,,,,,,,,,,,,,,,,,,,,,,,,,,,
,8767,CAB,20/05/2004,001,2023-09-26_17h35.11.076,OS3_Mult_verification,2022.2.4,MacIntel,20,,,,,,,,,,,,,,,,,,,,,,,,,,,,,,,,,,,,,,,,,,,,,,,,,,,,,,,,,,,,,,,,,,,,,,,,,,,,,,,,,right,1,0.741,,,,,,physical,2,2,2 | 2,0,0.05,0.065,neutral,right,0,44,44,57,1,,,,,,,,,,,,,,,,,,,,,,,,,,,,,,,,,,,,,,,,,,,,,,,,,,,,,,,,,,,,,,,,,,,,,,,,
,8767,CAB,20/05/2004,001,2023-09-26_17h35.11.076,OS3_Mult_verification,2022.2.4,MacIntel,20,,,,,,,,,,,,,,,,,,,,,,,,,,,,,,,,,,,,,,,,,,,,,,,,,,,,,,,,,,,,,,,,,,,,,,,,,,,,,,,,,right,1,0.614,,,,,,physical,3,1,3 | 1,2,0.05,0.065,incongruent,right,0,45,45,36,1,,,,,,,,,,,,,,,,,,,,,,,,,,,,,,,,,,,,,,,,,,,,,,,,,,,,,,,,,,,,,,,,,,,,,,,,
,8767,CAB,20/05/2004,001,2023-09-26_17h35.11.076,OS3_Mult_verification,2022.2.4,MacIntel,20,,,,,,,,,,,,,,,,,,,,,,,,,,,,,,,,,,,,,,,,,,,,,,,,,,,,,,,,,,,,,,,,,,,,,,,,,,,,,,,,,right,1,0.542,,,,,,physical,4,9,4 | 9,5,0.05,0.065,congruent,right,0,46,46,19,1,,,,,,,,,,,,,,,,,,,,,,,,,,,,,,,,,,,,,,,,,,,,,,,,,,,,,,,,,,,,,,,,,,,,,,,,
,8767,CAB,20/05/2004,001,2023-09-26_17h35.11.076,OS3_Mult_verification,2022.2.4,MacIntel,20,,,,,,,,,,,,,,,,,,,,,,,,,,,,,,,,,,,,,,,,,,,,,,,,,,,,,,,,,,,,,,,,,,,,,,,,,,,,,,,,,right,1,0.742,,,,,,physical,1,2,1 | 2,1,0.05,0.065,congruent,right,0,47,47,0,1,,,,,,,,,,,,,,,,,,,,,,,,,,,,,,,,,,,,,,,,,,,,,,,,,,,,,,,,,,,,,,,,,,,,,,,,
,8767,CAB,20/05/2004,001,2023-09-26_17h35.11.076,OS3_Mult_verification,2022.2.4,MacIntel,20,,,,,,,,,,,,,,,,,,,,,,,,,,,,,,,,,,,,,,,,,,,,,,,,,,,,,,,,,,,,,,,,,,,,,,,,,,,,,,,,,left,1,0.633,,,,,,physical,2,7,2 | 7,5,0.065,0.05,incongruent,left,0,48,48,41,1,,,,,,,,,,,,,,,,,,,,,,,,,,,,,,,,,,,,,,,,,,,,,,,,,,,,,,,,,,,,,,,,,,,,,,,,
,8767,CAB,20/05/2004,001,2023-09-26_17h35.11.076,OS3_Mult_verification,2022.2.4,MacIntel,20,,,,,,,,,,,,,,,,,,,,,,,,,,,,,,,,,,,,,,,,,,,,,,,,,,,,,,,,,,,,,,,,,,,,,,,,,,,,,,,,,right,1,0.726,,,,,,physical,6,1,6 | 1,5,0.05,0.065,incongruent,right,0,49,49,44,1,,,,,,,,,,,,,,,,,,,,,,,,,,,,,,,,,,,,,,,,,,,,,,,,,,,,,,,,,,,,,,,,,,,,,,,,
,8767,CAB,20/05/2004,001,2023-09-26_17h35.11.076,OS3_Mult_verification,2022.2.4,MacIntel,20,,,,,,,,,,,,,,,,,,,,,,,,,,,,,,,,,,,,,,,,,,,,,,,,,,,,,,,,,,,,,,,,,,,,,,,,,,,,,,,,,right,1,0.645,,,,,,physical,2,1,2 | 1,1,0.05,0.065,incongruent,right,0,50,50,28,1,,,,,,,,,,,,,,,,,,,,,,,,,,,,,,,,,,,,,,,,,,,,,,,,,,,,,,,,,,,,,,,,,,,,,,,,
