windowSize,participant,group,DOB (DD/MM/YEAR),session,date,expName,psychopyVersion,OS,frameRate,typing_instr_resp.keys,typing_instr_resp.rt,typing_response,typing_rt,typing_score,typingSpeed_input_resp.keys,typingSpeed_input_resp.rt,typing_speed_trials.thisRepN,typing_speed_trials.thisTrialN,typing_speed_trials.thisN,typing_speed_trials.thisIndex,typing_speed_trials.ran,typing_speed_stim,typing_report_resp.keys,typing_report_resp.rt,vpt_trial_resp1.keys,vpt_trial_resp1.rt,typedResponse,fluency_rt,fluency_score,fluencyInputResp.keys,fluencyInputResp.rt,fluencyPracLoop.thisRepN,fluencyPracLoop.thisTrialN,fluencyPracLoop.thisN,fluencyPracLoop.thisIndex,fluencyPracLoop.ran,problem,answers,fluencyLoop.thisRepN,fluencyLoop.thisTrialN,fluencyLoop.thisN,fluencyLoop.thisIndex,fluencyLoop.ran,vptCorrect,vpt_rt,respMouse.x,respMouse.y,respMouse.leftButton,respMouse.midButton,respMouse.rightButton,vptPracticeLoop.thisRepN,vptPracticeLoop.thisTrialN,vptPracticeLoop.thisN,vptPracticeLoop.thisIndex,vptPracticeLoop.ran,trialType,tiles,rows,cols,vptTrialLoop.thisRepN,vptTrialLoop.thisTrialN,vptTrialLoop.thisN,vptTrialLoop.thisIndex,vptTrialLoop.ran,noOfBlocks,TASK_B.thisRepN,TASK_B.thisTrialN,TASK_B.thisN,TASK_B.thisIndex,TASK_B.ran,controlTaskOrder.thisRepN,controlTaskOrder.thisTrialN,controlTaskOrder.thisN,controlTaskOrder.thisIndex,controlTaskOrder.ran,nRepsTask1,nRepsTask2,nRepsTask3,stroopResp.keys,stroopResp.corr,stroopResp.rt,stroopPracLoop.thisRepN,stroopPracLoop.thisTrialN,stroopPracLoop.thisN,stroopPracLoop.thisIndex,stroopPracLoop.ran,stroopCond,leftNo,rightNo,displayProblem,numDistance,leftNo_size,rightNo_size,Dims,keyAnswer,stroopLoop.thisRepN,stroopLoop.thisTrialN,stroopLoop.thisN,stroopLoop.thisIndex,stroopLoop.ran,stroopBlocks.thisRepN,stroopBlocks.thisTrialN,stroopBlocks.thisN,stroopBlocks.thisIndex,stroopBlocks.ran,stroop_condition,stroop_pracFile,ActionInst,instrImage,TASK_A.thisRepN,TASK_A.thisTrialN,TASK_A.thisN,TASK_A.thisIndex,TASK_A.ran,sampleAudio_resp.keys,sampleAudio_resp.rt,subjResponse,audio_rt,DS_score,inputResp.keys,inputResp.rt,audioPracticeLoop.thisRepN,audioPracticeLoop.thisTrialN,audioPracticeLoop.thisN,audioPracticeLoop.thisIndex,audioPracticeLoop.ran,digitSpan,digits_audioStim,soundsFile,typeDS,audioTrials_Loop.thisRepN,audioTrials_Loop.thisTrialN,audioTrials_Loop.thisN,audioTrials_Loop.thisIndex,audioTrials_Loop.ran,audioBlocks_loop.thisRepN,audioBlocks_loop.thisTrialN,audioBlocks_loop.thisN,audioBlocks_loop.thisIndex,audioBlocks_loop.ran,ConditionFile,digitSpanTask_loop.thisRepN,digitSpanTask_loop.thisTrialN,digitSpanTask_loop.thisN,digitSpanTask_loop.thisIndex,digitSpanTask_loop.ran,dsFile,TASK_C.thisRepN,TASK_C.thisTrialN,TASK_C.thisN,TASK_C.thisIndex,TASK_C.ran,veriStim_resp.keys,veriStim_resp.corr,veriStim_resp.rt,verificationPracLoop.thisRepN,verificationPracLoop.thisTrialN,verificationPracLoop.thisN,verificationPracLoop.thisIndex,verificationPracLoop.ran,mult_problem,mult_answer,mult_type,error_distance,interferenceScore,problemType,interferenceLevel,problemSize,img_leftButton,img_rightButton,veriLoop.thisRepN,veriLoop.thisTrialN,veriLoop.thisN,veriLoop.thisIndex,veriLoop.ran,veriBlock.thisRepN,veriBlock.thisTrialN,veriBlock.thisN,veriBlock.thisIndex,veriBlock.ran,verificationFiles,end_resp.keys,end_resp.rt
"[1280,664]",8665,BAC,13/05/2003,001,2023-05-25_18h26.57.087,OS3_Mult_verification,2022.2.4,MacIntel,59.97361161,,,,,,,,,,,,,,,,,,,,,,,,,,,,,,,,,,,,,,,,,,,,,,,,,,,,,,,,,,,,,,,,,,,,,,,,,,,,,,,,,,,,,,,,,,,,,,,,,,,,,,,,,,,,,,,,,,,,,,,,,,,,,,,,,,,,,,,,,,,,,,,,,,,,,,,,,,,,,,,,,,,,,,,,,,,,,,
,8665,BAC,13/05/2003,001,2023-05-25_18h26.57.087,OS3_Mult_verification,2022.2.4,MacIntel,59.97361161,,,,,,,,,,,,,,,,,,,,,,,,,,,,,,,,,,,,,,,,,,,,,,,,,,,,,,,,,,,,,,,,,,,,,,,,,,,,,,,,,,,,,,,,,,,,,,,,,,,,,,,,,,,,,,,,,,,,,,,,,,,,,,,,,,,,,,,,,,,,,,,,,,,,,,,,,,,,,,,,,,,,,,,,,,,,,,
,8665,BAC,13/05/2003,001,2023-05-25_18h26.57.087,OS3_Mult_verification,2022.2.4,MacIntel,59.97361161,space,19.4753,,,,,,,,,,,,,,,,,,,,,,,,,,,,,,,,,,,,,,,,,,,,,,,,,,,,,,,,,,,,,,,,,,,,,,,,,,,,,,,,,,,,,,,,,,,,,,,,,,,,,,,,,,,,,,,,,,,,,,,,,,,,,,,,,,,,,,,,,,,,,,,,,,,,,,,,,,,,,,,,,,,,,,,,,,,,
,8665,BAC,13/05/2003,001,2023-05-25_18h26.57.087,OS3_Mult_verification,2022.2.4,MacIntel,59.97361161,,,16,2.1335,1,"[""1"",""6"",""return""]","[1.3166999999880886,1.7070000000000078,2.0953999999910593]",0,0,0,8,1,16,,,,,,,,,,,,,,,,,,,,,,,,,,,,,,,,,,,,,,,,,,,,,,,,,,,,,,,,,,,,,,,,,,,,,,,,,,,,,,,,,,,,,,,,,,,,,,,,,,,,,,,,,,,,,,,,,,,,,,,,,,,,,,,,,,,,,,,,,,,,,,,,,,,,,,,,,,,,,,,,,
,8665,BAC,13/05/2003,001,2023-05-25_18h26.57.087,OS3_Mult_verification,2022.2.4,MacIntel,59.97361161,,,12,1.4343,1,"[""1"",""2"",""return""]","[1.0166999999880773,1.1189999999999998,1.4022999999970125]",0,1,1,5,1,12,,,,,,,,,,,,,,,,,,,,,,,,,,,,,,,,,,,,,,,,,,,,,,,,,,,,,,,,,,,,,,,,,,,,,,,,,,,,,,,,,,,,,,,,,,,,,,,,,,,,,,,,,,,,,,,,,,,,,,,,,,,,,,,,,,,,,,,,,,,,,,,,,,,,,,,,,,,,,,,,,
,8665,BAC,13/05/2003,001,2023-05-25_18h26.57.087,OS3_Mult_verification,2022.2.4,MacIntel,59.97361161,,,64,1.5508,1,"[""6"",""4"",""return""]","[0.9143999999910619,1.3878999999910633,1.5212999999970123]",0,2,2,28,1,64,,,,,,,,,,,,,,,,,,,,,,,,,,,,,,,,,,,,,,,,,,,,,,,,,,,,,,,,,,,,,,,,,,,,,,,,,,,,,,,,,,,,,,,,,,,,,,,,,,,,,,,,,,,,,,,,,,,,,,,,,,,,,,,,,,,,,,,,,,,,,,,,,,,,,,,,,,,,,,,,,
,8665,BAC,13/05/2003,001,2023-05-25_18h26.57.087,OS3_Mult_verification,2022.2.4,MacIntel,59.97361161,,,4,1.65,0,"[""4"",""return""]","[1.1859999999999928,1.6190999999940345]",0,3,3,6,1,14,,,,,,,,,,,,,,,,,,,,,,,,,,,,,,,,,,,,,,,,,,,,,,,,,,,,,,,,,,,,,,,,,,,,,,,,,,,,,,,,,,,,,,,,,,,,,,,,,,,,,,,,,,,,,,,,,,,,,,,,,,,,,,,,,,,,,,,,,,,,,,,,,,,,,,,,,,,,,,,,,
,8665,BAC,13/05/2003,001,2023-05-25_18h26.57.087,OS3_Mult_verification,2022.2.4,MacIntel,59.97361161,,,72,2.5198,1,"[""7"",""2"",""return""]","[1.6502000000029824,2.266100000008933,2.4827000000029784]",0,4,4,29,1,72,,,,,,,,,,,,,,,,,,,,,,,,,,,,,,,,,,,,,,,,,,,,,,,,,,,,,,,,,,,,,,,,,,,,,,,,,,,,,,,,,,,,,,,,,,,,,,,,,,,,,,,,,,,,,,,,,,,,,,,,,,,,,,,,,,,,,,,,,,,,,,,,,,,,,,,,,,,,,,,,,
,8665,BAC,13/05/2003,001,2023-05-25_18h26.57.087,OS3_Mult_verification,2022.2.4,MacIntel,59.97361161,,,32,1.1996,1,"[""3"",""2"",""return""]","[0.8335000000000008,1.0607000000029814,1.1640999999940362]",0,5,5,17,1,32,,,,,,,,,,,,,,,,,,,,,,,,,,,,,,,,,,,,,,,,,,,,,,,,,,,,,,,,,,,,,,,,,,,,,,,,,,,,,,,,,,,,,,,,,,,,,,,,,,,,,,,,,,,,,,,,,,,,,,,,,,,,,,,,,,,,,,,,,,,,,,,,,,,,,,,,,,,,,,,,,
,8665,BAC,13/05/2003,001,2023-05-25_18h26.57.087,OS3_Mult_verification,2022.2.4,MacIntel,59.97361161,,,8,1.3172,1,"[""8"",""return""]","[1.1515999999940476,1.2811999999880896]",0,6,6,2,1,8,,,,,,,,,,,,,,,,,,,,,,,,,,,,,,,,,,,,,,,,,,,,,,,,,,,,,,,,,,,,,,,,,,,,,,,,,,,,,,,,,,,,,,,,,,,,,,,,,,,,,,,,,,,,,,,,,,,,,,,,,,,,,,,,,,,,,,,,,,,,,,,,,,,,,,,,,,,,,,,,,
,8665,BAC,13/05/2003,001,2023-05-25_18h26.57.087,OS3_Mult_verification,2022.2.4,MacIntel,59.97361161,,,63,1.5838,1,"[""6"",""3"",""return""]","[1.019299999997017,1.4369999999999976,1.5453999999910621]",0,7,7,27,1,63,,,,,,,,,,,,,,,,,,,,,,,,,,,,,,,,,,,,,,,,,,,,,,,,,,,,,,,,,,,,,,,,,,,,,,,,,,,,,,,,,,,,,,,,,,,,,,,,,,,,,,,,,,,,,,,,,,,,,,,,,,,,,,,,,,,,,,,,,,,,,,,,,,,,,,,,,,,,,,,,,
,8665,BAC,13/05/2003,001,2023-05-25_18h26.57.087,OS3_Mult_verification,2022.2.4,MacIntel,59.97361161,,,48,1.5003,1,"[""4"",""8"",""return""]","[0.9230000000000018,1.307099999994037,1.4612000000029752]",0,8,8,23,1,48,,,,,,,,,,,,,,,,,,,,,,,,,,,,,,,,,,,,,,,,,,,,,,,,,,,,,,,,,,,,,,,,,,,,,,,,,,,,,,,,,,,,,,,,,,,,,,,,,,,,,,,,,,,,,,,,,,,,,,,,,,,,,,,,,,,,,,,,,,,,,,,,,,,,,,,,,,,,,,,,,
,8665,BAC,13/05/2003,001,2023-05-25_18h26.57.087,OS3_Mult_verification,2022.2.4,MacIntel,59.97361161,,,4,0.8802,1,"[""4"",""return""]","[0.7422999999970159,0.8403999999910639]",0,9,9,0,1,4,,,,,,,,,,,,,,,,,,,,,,,,,,,,,,,,,,,,,,,,,,,,,,,,,,,,,,,,,,,,,,,,,,,,,,,,,,,,,,,,,,,,,,,,,,,,,,,,,,,,,,,,,,,,,,,,,,,,,,,,,,,,,,,,,,,,,,,,,,,,,,,,,,,,,,,,,,,,,,,,,
,8665,BAC,13/05/2003,001,2023-05-25_18h26.57.087,OS3_Mult_verification,2022.2.4,MacIntel,59.97361161,,,21,1.1836,1,"[""2"",""1"",""return""]","[0.8341000000089309,0.9166000000089412,1.1454999999999984]",0,10,10,11,1,21,,,,,,,,,,,,,,,,,,,,,,,,,,,,,,,,,,,,,,,,,,,,,,,,,,,,,,,,,,,,,,,,,,,,,,,,,,,,,,,,,,,,,,,,,,,,,,,,,,,,,,,,,,,,,,,,,,,,,,,,,,,,,,,,,,,,,,,,,,,,,,,,,,,,,,,,,,,,,,,,,
,8665,BAC,13/05/2003,001,2023-05-25_18h26.57.087,OS3_Mult_verification,2022.2.4,MacIntel,59.97361161,,,81,2.0846,1,"[""8"",""1"",""return""]","[1.2837000000029803,1.7692000000029822,2.0484000000059552]",0,11,11,30,1,81,,,,,,,,,,,,,,,,,,,,,,,,,,,,,,,,,,,,,,,,,,,,,,,,,,,,,,,,,,,,,,,,,,,,,,,,,,,,,,,,,,,,,,,,,,,,,,,,,,,,,,,,,,,,,,,,,,,,,,,,,,,,,,,,,,,,,,,,,,,,,,,,,,,,,,,,,,,,,,,,,
,8665,BAC,13/05/2003,001,2023-05-25_18h26.57.087,OS3_Mult_verification,2022.2.4,MacIntel,59.97361161,,,9,1.2663,1,"[""9"",""return""]","[1.0284000000059592,1.2315000000000111]",0,12,12,3,1,9,,,,,,,,,,,,,,,,,,,,,,,,,,,,,,,,,,,,,,,,,,,,,,,,,,,,,,,,,,,,,,,,,,,,,,,,,,,,,,,,,,,,,,,,,,,,,,,,,,,,,,,,,,,,,,,,,,,,,,,,,,,,,,,,,,,,,,,,,,,,,,,,,,,,,,,,,,,,,,,,,
,8665,BAC,13/05/2003,001,2023-05-25_18h26.57.087,OS3_Mult_verification,2022.2.4,MacIntel,59.97361161,,,6,1.1171,1,"[""6"",""return""]","[0.9489000000059633,1.0824000000059613]",0,13,13,1,1,6,,,,,,,,,,,,,,,,,,,,,,,,,,,,,,,,,,,,,,,,,,,,,,,,,,,,,,,,,,,,,,,,,,,,,,,,,,,,,,,,,,,,,,,,,,,,,,,,,,,,,,,,,,,,,,,,,,,,,,,,,,,,,,,,,,,,,,,,,,,,,,,,,,,,,,,,,,,,,,,,,
,8665,BAC,13/05/2003,001,2023-05-25_18h26.57.087,OS3_Mult_verification,2022.2.4,MacIntel,59.97361161,,,18,1.4484,1,"[""1"",""8"",""return""]","[0.8652999999970206,1.2607000000029842,1.411299999997027]",0,14,14,9,1,18,,,,,,,,,,,,,,,,,,,,,,,,,,,,,,,,,,,,,,,,,,,,,,,,,,,,,,,,,,,,,,,,,,,,,,,,,,,,,,,,,,,,,,,,,,,,,,,,,,,,,,,,,,,,,,,,,,,,,,,,,,,,,,,,,,,,,,,,,,,,,,,,,,,,,,,,,,,,,,,,,
,8665,BAC,13/05/2003,001,2023-05-25_18h26.57.087,OS3_Mult_verification,2022.2.4,MacIntel,59.97361161,,,40,1.4148,1,"[""4"",""0"",""return""]","[0.9141000000089434,1.2650000000000006,1.3769000000059606]",0,15,15,20,1,40,,,,,,,,,,,,,,,,,,,,,,,,,,,,,,,,,,,,,,,,,,,,,,,,,,,,,,,,,,,,,,,,,,,,,,,,,,,,,,,,,,,,,,,,,,,,,,,,,,,,,,,,,,,,,,,,,,,,,,,,,,,,,,,,,,,,,,,,,,,,,,,,,,,,,,,,,,,,,,,,,
,8665,BAC,13/05/2003,001,2023-05-25_18h26.57.087,OS3_Mult_verification,2022.2.4,MacIntel,59.97361161,,,45,1.1989,1,"[""4"",""5"",""return""]","[0.8840999999940493,1.0807000000029916,1.162099999994041]",0,16,16,22,1,45,,,,,,,,,,,,,,,,,,,,,,,,,,,,,,,,,,,,,,,,,,,,,,,,,,,,,,,,,,,,,,,,,,,,,,,,,,,,,,,,,,,,,,,,,,,,,,,,,,,,,,,,,,,,,,,,,,,,,,,,,,,,,,,,,,,,,,,,,,,,,,,,,,,,,,,,,,,,,,,,,
,8665,BAC,13/05/2003,001,2023-05-25_18h26.57.087,OS3_Mult_verification,2022.2.4,MacIntel,59.97361161,,,25,1.2835,1,"[""2"",""5"",""return""]","[0.9379000000059534,1.1624999999999943,1.247700000002979]",0,17,17,13,1,25,,,,,,,,,,,,,,,,,,,,,,,,,,,,,,,,,,,,,,,,,,,,,,,,,,,,,,,,,,,,,,,,,,,,,,,,,,,,,,,,,,,,,,,,,,,,,,,,,,,,,,,,,,,,,,,,,,,,,,,,,,,,,,,,,,,,,,,,,,,,,,,,,,,,,,,,,,,,,,,,,
,8665,BAC,13/05/2003,001,2023-05-25_18h26.57.087,OS3_Mult_verification,2022.2.4,MacIntel,59.97361161,,,36,1.2332,1,"[""3"",""6"",""return""]","[0.797200000002988,1.105000000000004,1.1983000000119262]",0,18,18,19,1,36,,,,,,,,,,,,,,,,,,,,,,,,,,,,,,,,,,,,,,,,,,,,,,,,,,,,,,,,,,,,,,,,,,,,,,,,,,,,,,,,,,,,,,,,,,,,,,,,,,,,,,,,,,,,,,,,,,,,,,,,,,,,,,,,,,,,,,,,,,,,,,,,,,,,,,,,,,,,,,,,,
,8665,BAC,13/05/2003,001,2023-05-25_18h26.57.087,OS3_Mult_verification,2022.2.4,MacIntel,59.97361161,,,20,1.5008,1,"[""2"",""0"",""return""]","[0.9861000000089319,1.318700000002977,1.4642999999970243]",0,19,19,10,1,20,,,,,,,,,,,,,,,,,,,,,,,,,,,,,,,,,,,,,,,,,,,,,,,,,,,,,,,,,,,,,,,,,,,,,,,,,,,,,,,,,,,,,,,,,,,,,,,,,,,,,,,,,,,,,,,,,,,,,,,,,,,,,,,,,,,,,,,,,,,,,,,,,,,,,,,,,,,,,,,,,
,8665,BAC,13/05/2003,001,2023-05-25_18h26.57.087,OS3_Mult_verification,2022.2.4,MacIntel,59.97361161,,,30,1.6057,1,"[""3"",""0"",""return""]","[0.7796000000089407,1.3940000000000055,1.5809000000059683]",0,20,20,16,1,30,,,,,,,,,,,,,,,,,,,,,,,,,,,,,,,,,,,,,,,,,,,,,,,,,,,,,,,,,,,,,,,,,,,,,,,,,,,,,,,,,,,,,,,,,,,,,,,,,,,,,,,,,,,,,,,,,,,,,,,,,,,,,,,,,,,,,,,,,,,,,,,,,,,,,,,,,,,,,,,,,
,8665,BAC,13/05/2003,001,2023-05-25_18h26.57.087,OS3_Mult_verification,2022.2.4,MacIntel,59.97361161,,,27,1.6342,1,"[""2"",""7"",""return""]","[0.9106000000089409,1.3795000000000073,1.5989000000059548]",0,21,21,14,1,27,,,,,,,,,,,,,,,,,,,,,,,,,,,,,,,,,,,,,,,,,,,,,,,,,,,,,,,,,,,,,,,,,,,,,,,,,,,,,,,,,,,,,,,,,,,,,,,,,,,,,,,,,,,,,,,,,,,,,,,,,,,,,,,,,,,,,,,,,,,,,,,,,,,,,,,,,,,,,,,,,
,8665,BAC,13/05/2003,001,2023-05-25_18h26.57.087,OS3_Mult_verification,2022.2.4,MacIntel,59.97361161,,,49,1.4168,1,"[""4"",""9"",""return""]","[0.7816000000089502,1.2621000000089566,1.3782999999970116]",0,22,22,24,1,49,,,,,,,,,,,,,,,,,,,,,,,,,,,,,,,,,,,,,,,,,,,,,,,,,,,,,,,,,,,,,,,,,,,,,,,,,,,,,,,,,,,,,,,,,,,,,,,,,,,,,,,,,,,,,,,,,,,,,,,,,,,,,,,,,,,,,,,,,,,,,,,,,,,,,,,,,,,,,,,,,
,8665,BAC,13/05/2003,001,2023-05-25_18h26.57.087,OS3_Mult_verification,2022.2.4,MacIntel,59.97361161,,,42,1.4665,1,"[""4"",""2"",""return""]","[1.0497999999970204,1.2657999999970286,1.4292999999970277]",0,23,23,21,1,42,,,,,,,,,,,,,,,,,,,,,,,,,,,,,,,,,,,,,,,,,,,,,,,,,,,,,,,,,,,,,,,,,,,,,,,,,,,,,,,,,,,,,,,,,,,,,,,,,,,,,,,,,,,,,,,,,,,,,,,,,,,,,,,,,,,,,,,,,,,,,,,,,,,,,,,,,,,,,,,,,
,8665,BAC,13/05/2003,001,2023-05-25_18h26.57.087,OS3_Mult_verification,2022.2.4,MacIntel,59.97361161,,,24,1.1992,1,"[""2"",""4"",""return""]","[0.713499999999982,0.935099999994037,1.1614000000059548]",0,24,24,12,1,24,,,,,,,,,,,,,,,,,,,,,,,,,,,,,,,,,,,,,,,,,,,,,,,,,,,,,,,,,,,,,,,,,,,,,,,,,,,,,,,,,,,,,,,,,,,,,,,,,,,,,,,,,,,,,,,,,,,,,,,,,,,,,,,,,,,,,,,,,,,,,,,,,,,,,,,,,,,,,,,,,
,8665,BAC,13/05/2003,001,2023-05-25_18h26.57.087,OS3_Mult_verification,2022.2.4,MacIntel,59.97361161,,,56,1.4836,1,"[""5"",""6"",""return""]","[1.1123999999910836,1.2798999999910734,1.448399999991068]",0,25,25,26,1,56,,,,,,,,,,,,,,,,,,,,,,,,,,,,,,,,,,,,,,,,,,,,,,,,,,,,,,,,,,,,,,,,,,,,,,,,,,,,,,,,,,,,,,,,,,,,,,,,,,,,,,,,,,,,,,,,,,,,,,,,,,,,,,,,,,,,,,,,,,,,,,,,,,,,,,,,,,,,,,,,,
,8665,BAC,13/05/2003,001,2023-05-25_18h26.57.087,OS3_Mult_verification,2022.2.4,MacIntel,59.97361161,,,28,1.5508,1,"[""2"",""8"",""return""]","[0.881900000005956,1.3684999999999974,1.5189000000059565]",0,26,26,15,1,28,,,,,,,,,,,,,,,,,,,,,,,,,,,,,,,,,,,,,,,,,,,,,,,,,,,,,,,,,,,,,,,,,,,,,,,,,,,,,,,,,,,,,,,,,,,,,,,,,,,,,,,,,,,,,,,,,,,,,,,,,,,,,,,,,,,,,,,,,,,,,,,,,,,,,,,,,,,,,,,,,
,8665,BAC,13/05/2003,001,2023-05-25_18h26.57.087,OS3_Mult_verification,2022.2.4,MacIntel,59.97361161,,,35,1.6332,1,"[""3"",""5"",""return""]","[1.195999999999998,1.4290999999940368,1.5992999999970152]",0,27,27,18,1,35,,,,,,,,,,,,,,,,,,,,,,,,,,,,,,,,,,,,,,,,,,,,,,,,,,,,,,,,,,,,,,,,,,,,,,,,,,,,,,,,,,,,,,,,,,,,,,,,,,,,,,,,,,,,,,,,,,,,,,,,,,,,,,,,,,,,,,,,,,,,,,,,,,,,,,,,,,,,,,,,,
,8665,BAC,13/05/2003,001,2023-05-25_18h26.57.087,OS3_Mult_verification,2022.2.4,MacIntel,59.97361161,,,10,1.2002,1,"[""1"",""0"",""return""]","[0.6147000000029834,1.0142000000029725,1.1645000000000039]",0,28,28,4,1,10,,,,,,,,,,,,,,,,,,,,,,,,,,,,,,,,,,,,,,,,,,,,,,,,,,,,,,,,,,,,,,,,,,,,,,,,,,,,,,,,,,,,,,,,,,,,,,,,,,,,,,,,,,,,,,,,,,,,,,,,,,,,,,,,,,,,,,,,,,,,,,,,,,,,,,,,,,,,,,,,,
,8665,BAC,13/05/2003,001,2023-05-25_18h26.57.087,OS3_Mult_verification,2022.2.4,MacIntel,59.97361161,,,15,1.6344,1,"[""1"",""5"",""return""]","[0.738200000002962,1.3834000000059632,1.5985000000000014]",0,29,29,7,1,15,,,,,,,,,,,,,,,,,,,,,,,,,,,,,,,,,,,,,,,,,,,,,,,,,,,,,,,,,,,,,,,,,,,,,,,,,,,,,,,,,,,,,,,,,,,,,,,,,,,,,,,,,,,,,,,,,,,,,,,,,,,,,,,,,,,,,,,,,,,,,,,,,,,,,,,,,,,,,,,,,
,8665,BAC,13/05/2003,001,2023-05-25_18h26.57.087,OS3_Mult_verification,2022.2.4,MacIntel,59.97361161,,,54,1.4844,1,"[""5"",""4"",""return""]","[1.081100000008945,1.2391000000089605,1.448400000005961]",0,30,30,25,1,54,,,,,,,,,,,,,,,,,,,,,,,,,,,,,,,,,,,,,,,,,,,,,,,,,,,,,,,,,,,,,,,,,,,,,,,,,,,,,,,,,,,,,,,,,,,,,,,,,,,,,,,,,,,,,,,,,,,,,,,,,,,,,,,,,,,,,,,,,,,,,,,,,,,,,,,,,,,,,,,,,
,8665,BAC,13/05/2003,001,2023-05-25_18h26.57.087,OS3_Mult_verification,2022.2.4,MacIntel,59.97361161,,,30,1.6668,1,"[""3"",""0"",""return""]","[0.9720999999940432,1.4006999999880918,1.636599999994047]",1,0,31,16,1,30,,,,,,,,,,,,,,,,,,,,,,,,,,,,,,,,,,,,,,,,,,,,,,,,,,,,,,,,,,,,,,,,,,,,,,,,,,,,,,,,,,,,,,,,,,,,,,,,,,,,,,,,,,,,,,,,,,,,,,,,,,,,,,,,,,,,,,,,,,,,,,,,,,,,,,,,,,,,,,,,,
,8665,BAC,13/05/2003,001,2023-05-25_18h26.57.087,OS3_Mult_verification,2022.2.4,MacIntel,59.97361161,,,48,1.6505,1,"[""4"",""8"",""return""]","[1.037599999994029,1.4832999999970014,1.6229000000059557]",1,1,32,23,1,48,,,,,,,,,,,,,,,,,,,,,,,,,,,,,,,,,,,,,,,,,,,,,,,,,,,,,,,,,,,,,,,,,,,,,,,,,,,,,,,,,,,,,,,,,,,,,,,,,,,,,,,,,,,,,,,,,,,,,,,,,,,,,,,,,,,,,,,,,,,,,,,,,,,,,,,,,,,,,,,,,
,8665,BAC,13/05/2003,001,2023-05-25_18h26.57.087,OS3_Mult_verification,2022.2.4,MacIntel,59.97361161,,,21,1.1675,1,"[""2"",""1"",""return""]","[0.7802999999970268,0.8830999999940445,1.139700000002989]",1,2,33,11,1,21,,,,,,,,,,,,,,,,,,,,,,,,,,,,,,,,,,,,,,,,,,,,,,,,,,,,,,,,,,,,,,,,,,,,,,,,,,,,,,,,,,,,,,,,,,,,,,,,,,,,,,,,,,,,,,,,,,,,,,,,,,,,,,,,,,,,,,,,,,,,,,,,,,,,,,,,,,,,,,,,,
,8665,BAC,13/05/2003,001,2023-05-25_18h26.57.087,OS3_Mult_verification,2022.2.4,MacIntel,59.97361161,,,54,1.4672,1,"[""5"",""4"",""return""]","[1.0880999999940286,1.2683999999910327,1.4313999999910436]",1,3,34,25,1,54,,,,,,,,,,,,,,,,,,,,,,,,,,,,,,,,,,,,,,,,,,,,,,,,,,,,,,,,,,,,,,,,,,,,,,,,,,,,,,,,,,,,,,,,,,,,,,,,,,,,,,,,,,,,,,,,,,,,,,,,,,,,,,,,,,,,,,,,,,,,,,,,,,,,,,,,,,,,,,,,,
,8665,BAC,13/05/2003,001,2023-05-25_18h26.57.087,OS3_Mult_verification,2022.2.4,MacIntel,59.97361161,,,15,1.2973,1,"[""1"",""5"",""return""]","[0.6944000000059702,1.0799000000059777,1.2612000000029866]",1,4,35,7,1,15,,,,,,,,,,,,,,,,,,,,,,,,,,,,,,,,,,,,,,,,,,,,,,,,,,,,,,,,,,,,,,,,,,,,,,,,,,,,,,,,,,,,,,,,,,,,,,,,,,,,,,,,,,,,,,,,,,,,,,,,,,,,,,,,,,,,,,,,,,,,,,,,,,,,,,,,,,,,,,,,,
,8665,BAC,13/05/2003,001,2023-05-25_18h26.57.087,OS3_Mult_verification,2022.2.4,MacIntel,59.97361161,,,40,1.5338,1,"[""4"",""0"",""return""]","[0.7137000000030014,1.2704999999999984,1.4989000000059605]",1,5,36,20,1,40,,,,,,,,,,,,,,,,,,,,,,,,,,,,,,,,,,,,,,,,,,,,,,,,,,,,,,,,,,,,,,,,,,,,,,,,,,,,,,,,,,,,,,,,,,,,,,,,,,,,,,,,,,,,,,,,,,,,,,,,,,,,,,,,,,,,,,,,,,,,,,,,,,,,,,,,,,,,,,,,,
,8665,BAC,13/05/2003,001,2023-05-25_18h26.57.087,OS3_Mult_verification,2022.2.4,MacIntel,59.97361161,,,18,1.3342,1,"[""1"",""8"",""return""]","[0.7361000000089177,1.1162999999970111,1.2992999999970039]",1,6,37,9,1,18,,,,,,,,,,,,,,,,,,,,,,,,,,,,,,,,,,,,,,,,,,,,,,,,,,,,,,,,,,,,,,,,,,,,,,,,,,,,,,,,,,,,,,,,,,,,,,,,,,,,,,,,,,,,,,,,,,,,,,,,,,,,,,,,,,,,,,,,,,,,,,,,,,,,,,,,,,,,,,,,,
,8665,BAC,13/05/2003,001,2023-05-25_18h26.57.087,OS3_Mult_verification,2022.2.4,MacIntel,59.97361161,,,24,1.2669,1,"[""2"",""4"",""return""]","[0.8456000000089432,1.0667999999970164,1.2276000000089482]",1,7,38,12,1,24,,,,,,,,,,,,,,,,,,,,,,,,,,,,,,,,,,,,,,,,,,,,,,,,,,,,,,,,,,,,,,,,,,,,,,,,,,,,,,,,,,,,,,,,,,,,,,,,,,,,,,,,,,,,,,,,,,,,,,,,,,,,,,,,,,,,,,,,,,,,,,,,,,,,,,,,,,,,,,,,,
,8665,BAC,13/05/2003,001,2023-05-25_18h26.57.087,OS3_Mult_verification,2022.2.4,MacIntel,59.97361161,,,28,1.3679,1,"[""2"",""8"",""return""]","[0.7319999999999993,1.1536000000089643,1.3327000000030012]",1,8,39,15,1,28,,,,,,,,,,,,,,,,,,,,,,,,,,,,,,,,,,,,,,,,,,,,,,,,,,,,,,,,,,,,,,,,,,,,,,,,,,,,,,,,,,,,,,,,,,,,,,,,,,,,,,,,,,,,,,,,,,,,,,,,,,,,,,,,,,,,,,,,,,,,,,,,,,,,,,,,,,,,,,,,,
,8665,BAC,13/05/2003,001,2023-05-25_18h26.57.087,OS3_Mult_verification,2022.2.4,MacIntel,59.97361161,,,12,1.0667,1,"[""1"",""2"",""return""]","[0.6611000000089291,0.8435000000000059,1.0307000000029802]",1,9,40,5,1,12,,,,,,,,,,,,,,,,,,,,,,,,,,,,,,,,,,,,,,,,,,,,,,,,,,,,,,,,,,,,,,,,,,,,,,,,,,,,,,,,,,,,,,,,,,,,,,,,,,,,,,,,,,,,,,,,,,,,,,,,,,,,,,,,,,,,,,,,,,,,,,,,,,,,,,,,,,,,,,,,,
,8665,BAC,13/05/2003,001,2023-05-25_18h26.57.087,OS3_Mult_verification,2022.2.4,MacIntel,59.97361161,,,42,1.2834,1,"[""4"",""2"",""return""]","[0.75,0.9870999999940295,1.250599999994023]",1,10,41,21,1,42,,,,,,,,,,,,,,,,,,,,,,,,,,,,,,,,,,,,,,,,,,,,,,,,,,,,,,,,,,,,,,,,,,,,,,,,,,,,,,,,,,,,,,,,,,,,,,,,,,,,,,,,,,,,,,,,,,,,,,,,,,,,,,,,,,,,,,,,,,,,,,,,,,,,,,,,,,,,,,,,,
,8665,BAC,13/05/2003,001,2023-05-25_18h26.57.087,OS3_Mult_verification,2022.2.4,MacIntel,59.97361161,,,36,1.8495,1,"[""3"",""6"",""return""]","[1.0166999999881057,1.5988999999910618,1.819500000000005]",1,11,42,19,1,36,,,,,,,,,,,,,,,,,,,,,,,,,,,,,,,,,,,,,,,,,,,,,,,,,,,,,,,,,,,,,,,,,,,,,,,,,,,,,,,,,,,,,,,,,,,,,,,,,,,,,,,,,,,,,,,,,,,,,,,,,,,,,,,,,,,,,,,,,,,,,,,,,,,,,,,,,,,,,,,,,
,8665,BAC,13/05/2003,001,2023-05-25_18h26.57.087,OS3_Mult_verification,2022.2.4,MacIntel,59.97361161,,,9,1.3169,1,"[""9"",""return""]","[1.1027999999970177,1.2805999999940525]",1,12,43,3,1,9,,,,,,,,,,,,,,,,,,,,,,,,,,,,,,,,,,,,,,,,,,,,,,,,,,,,,,,,,,,,,,,,,,,,,,,,,,,,,,,,,,,,,,,,,,,,,,,,,,,,,,,,,,,,,,,,,,,,,,,,,,,,,,,,,,,,,,,,,,,,,,,,,,,,,,,,,,,,,,,,,
,8665,BAC,13/05/2003,001,2023-05-25_18h26.57.087,OS3_Mult_verification,2022.2.4,MacIntel,59.97361161,,,20,1.4502,1,"[""2"",""0"",""return""]","[0.8152999999970234,1.2329000000059693,1.4165000000000134]",1,13,44,10,1,20,,,,,,,,,,,,,,,,,,,,,,,,,,,,,,,,,,,,,,,,,,,,,,,,,,,,,,,,,,,,,,,,,,,,,,,,,,,,,,,,,,,,,,,,,,,,,,,,,,,,,,,,,,,,,,,,,,,,,,,,,,,,,,,,,,,,,,,,,,,,,,,,,,,,,,,,,,,,,,,,,
,8665,BAC,13/05/2003,001,2023-05-25_18h26.57.087,OS3_Mult_verification,2022.2.4,MacIntel,59.97361161,,,64,1.5841,1,"[""6"",""4"",""return""]","[0.9847000000029595,1.330900000005954,1.5499000000059482]",1,14,45,28,1,64,,,,,,,,,,,,,,,,,,,,,,,,,,,,,,,,,,,,,,,,,,,,,,,,,,,,,,,,,,,,,,,,,,,,,,,,,,,,,,,,,,,,,,,,,,,,,,,,,,,,,,,,,,,,,,,,,,,,,,,,,,,,,,,,,,,,,,,,,,,,,,,,,,,,,,,,,,,,,,,,,
,8665,BAC,13/05/2003,001,2023-05-25_18h26.57.087,OS3_Mult_verification,2022.2.4,MacIntel,59.97361161,,,10,1.334,1,"[""1"",""0"",""return""]","[0.5969000000059737,1.1138000000119348,1.3011000000089439]",1,15,46,4,1,10,,,,,,,,,,,,,,,,,,,,,,,,,,,,,,,,,,,,,,,,,,,,,,,,,,,,,,,,,,,,,,,,,,,,,,,,,,,,,,,,,,,,,,,,,,,,,,,,,,,,,,,,,,,,,,,,,,,,,,,,,,,,,,,,,,,,,,,,,,,,,,,,,,,,,,,,,,,,,,,,,
,8665,BAC,13/05/2003,001,2023-05-25_18h26.57.087,OS3_Mult_verification,2022.2.4,MacIntel,59.97361161,,,4,1.2506,1,"[""4"",""return""]","[0.9483000000119262,1.2166000000089525]",1,16,47,0,1,4,,,,,,,,,,,,,,,,,,,,,,,,,,,,,,,,,,,,,,,,,,,,,,,,,,,,,,,,,,,,,,,,,,,,,,,,,,,,,,,,,,,,,,,,,,,,,,,,,,,,,,,,,,,,,,,,,,,,,,,,,,,,,,,,,,,,,,,,,,,,,,,,,,,,,,,,,,,,,,,,,
,8665,BAC,13/05/2003,001,2023-05-25_18h26.57.087,OS3_Mult_verification,2022.2.4,MacIntel,59.97361161,,,2,1.1174,0,"[""2"",""return""]","[0.8645999999940557,1.0840000000000032]",1,17,48,13,1,25,,,,,,,,,,,,,,,,,,,,,,,,,,,,,,,,,,,,,,,,,,,,,,,,,,,,,,,,,,,,,,,,,,,,,,,,,,,,,,,,,,,,,,,,,,,,,,,,,,,,,,,,,,,,,,,,,,,,,,,,,,,,,,,,,,,,,,,,,,,,,,,,,,,,,,,,,,,,,,,,,
,8665,BAC,13/05/2003,001,2023-05-25_18h26.57.087,OS3_Mult_verification,2022.2.4,MacIntel,59.97361161,,,63,2.1509,1,"[""6"",""3"",""return""]","[1.4635999999940452,1.9481999999881054,2.118099999994058]",1,18,49,27,1,63,,,,,,,,,,,,,,,,,,,,,,,,,,,,,,,,,,,,,,,,,,,,,,,,,,,,,,,,,,,,,,,,,,,,,,,,,,,,,,,,,,,,,,,,,,,,,,,,,,,,,,,,,,,,,,,,,,,,,,,,,,,,,,,,,,,,,,,,,,,,,,,,,,,,,,,,,,,,,,,,,
,8665,BAC,13/05/2003,001,2023-05-25_18h26.57.087,OS3_Mult_verification,2022.2.4,MacIntel,59.97361161,,,35,1.6002,1,"[""3"",""5"",""return""]","[0.9627999999970029,1.3474000000059618,1.5667999999970164]",1,19,50,18,1,35,,,,,,,,,,,,,,,,,,,,,,,,,,,,,,,,,,,,,,,,,,,,,,,,,,,,,,,,,,,,,,,,,,,,,,,,,,,,,,,,,,,,,,,,,,,,,,,,,,,,,,,,,,,,,,,,,,,,,,,,,,,,,,,,,,,,,,,,,,,,,,,,,,,,,,,,,,,,,,,,,
,8665,BAC,13/05/2003,001,2023-05-25_18h26.57.087,OS3_Mult_verification,2022.2.4,MacIntel,59.97361161,,,16,1.4848,1,"[""1"",""6"",""return""]","[0.766799999997005,1.268600000008945,1.4519999999999982]",1,20,51,8,1,16,,,,,,,,,,,,,,,,,,,,,,,,,,,,,,,,,,,,,,,,,,,,,,,,,,,,,,,,,,,,,,,,,,,,,,,,,,,,,,,,,,,,,,,,,,,,,,,,,,,,,,,,,,,,,,,,,,,,,,,,,,,,,,,,,,,,,,,,,,,,,,,,,,,,,,,,,,,,,,,,,
,8665,BAC,13/05/2003,001,2023-05-25_18h26.57.087,OS3_Mult_verification,2022.2.4,MacIntel,59.97361161,,,32,1.234,1,"[""3"",""2"",""return""]","[0.8474999999999966,1.019200000002968,1.1992000000029748]",1,21,52,17,1,32,,,,,,,,,,,,,,,,,,,,,,,,,,,,,,,,,,,,,,,,,,,,,,,,,,,,,,,,,,,,,,,,,,,,,,,,,,,,,,,,,,,,,,,,,,,,,,,,,,,,,,,,,,,,,,,,,,,,,,,,,,,,,,,,,,,,,,,,,,,,,,,,,,,,,,,,,,,,,,,,,
,8665,BAC,13/05/2003,001,2023-05-25_18h26.57.087,OS3_Mult_verification,2022.2.4,MacIntel,59.97361161,,,72,2.251,1,"[""7"",""2"",""return""]","[1.4490000000000123,1.983200000002995,2.2183000000119364]",1,22,53,29,1,72,,,,,,,,,,,,,,,,,,,,,,,,,,,,,,,,,,,,,,,,,,,,,,,,,,,,,,,,,,,,,,,,,,,,,,,,,,,,,,,,,,,,,,,,,,,,,,,,,,,,,,,,,,,,,,,,,,,,,,,,,,,,,,,,,,,,,,,,,,,,,,,,,,,,,,,,,,,,,,,,,
,8665,BAC,13/05/2003,001,2023-05-25_18h26.57.087,OS3_Mult_verification,2022.2.4,MacIntel,59.97361161,,,6,1.3353,1,"[""6"",""return""]","[1.1475999999940427,1.3022999999970466]",1,23,54,1,1,6,,,,,,,,,,,,,,,,,,,,,,,,,,,,,,,,,,,,,,,,,,,,,,,,,,,,,,,,,,,,,,,,,,,,,,,,,,,,,,,,,,,,,,,,,,,,,,,,,,,,,,,,,,,,,,,,,,,,,,,,,,,,,,,,,,,,,,,,,,,,,,,,,,,,,,,,,,,,,,,,,
,8665,BAC,13/05/2003,001,2023-05-25_18h26.57.087,OS3_Mult_verification,2022.2.4,MacIntel,59.97361161,,,81,2.2502,1,"[""8"",""1"",""return""]","[1.4298999999910507,1.933499999999981,2.2217999999970175]",1,24,55,30,1,81,,,,,,,,,,,,,,,,,,,,,,,,,,,,,,,,,,,,,,,,,,,,,,,,,,,,,,,,,,,,,,,,,,,,,,,,,,,,,,,,,,,,,,,,,,,,,,,,,,,,,,,,,,,,,,,,,,,,,,,,,,,,,,,,,,,,,,,,,,,,,,,,,,,,,,,,,,,,,,,,,
,8665,BAC,13/05/2003,001,2023-05-25_18h26.57.087,OS3_Mult_verification,2022.2.4,MacIntel,59.97361161,,,56,2.6521,1,"[""4"",""backspace"",""5"",""6"",""return""]","[0.9472000000029936,1.7862000000029923,2.1677000000029807,2.3639000000059696,2.616700000002993]",1,25,56,26,1,56,,,,,,,,,,,,,,,,,,,,,,,,,,,,,,,,,,,,,,,,,,,,,,,,,,,,,,,,,,,,,,,,,,,,,,,,,,,,,,,,,,,,,,,,,,,,,,,,,,,,,,,,,,,,,,,,,,,,,,,,,,,,,,,,,,,,,,,,,,,,,,,,,,,,,,,,,,,,,,,,,
,8665,BAC,13/05/2003,001,2023-05-25_18h26.57.087,OS3_Mult_verification,2022.2.4,MacIntel,59.97361161,,,14,1.3998,1,"[""1"",""4"",""return""]","[0.8135999999940395,1.1969999999999743,1.3653999999910411]",1,26,57,6,1,14,,,,,,,,,,,,,,,,,,,,,,,,,,,,,,,,,,,,,,,,,,,,,,,,,,,,,,,,,,,,,,,,,,,,,,,,,,,,,,,,,,,,,,,,,,,,,,,,,,,,,,,,,,,,,,,,,,,,,,,,,,,,,,,,,,,,,,,,,,,,,,,,,,,,,,,,,,,,,,,,,
,8665,BAC,13/05/2003,001,2023-05-25_18h26.57.087,OS3_Mult_verification,2022.2.4,MacIntel,59.97361161,,,8,1.4517,1,"[""8"",""return""]","[1.0510000000000161,1.417599999994053]",1,27,58,2,1,8,,,,,,,,,,,,,,,,,,,,,,,,,,,,,,,,,,,,,,,,,,,,,,,,,,,,,,,,,,,,,,,,,,,,,,,,,,,,,,,,,,,,,,,,,,,,,,,,,,,,,,,,,,,,,,,,,,,,,,,,,,,,,,,,,,,,,,,,,,,,,,,,,,,,,,,,,,,,,,,,,
,8665,BAC,13/05/2003,001,2023-05-25_18h26.57.087,OS3_Mult_verification,2022.2.4,MacIntel,59.97361161,,,45,1.5499,1,"[""4"",""5"",""return""]","[1.1517999999970243,1.3189000000059536,1.5150000000000148]",1,28,59,22,1,45,,,,,,,,,,,,,,,,,,,,,,,,,,,,,,,,,,,,,,,,,,,,,,,,,,,,,,,,,,,,,,,,,,,,,,,,,,,,,,,,,,,,,,,,,,,,,,,,,,,,,,,,,,,,,,,,,,,,,,,,,,,,,,,,,,,,,,,,,,,,,,,,,,,,,,,,,,,,,,,,,
,8665,BAC,13/05/2003,001,2023-05-25_18h26.57.087,OS3_Mult_verification,2022.2.4,MacIntel,59.97361161,,,27,1.8846,1,"[""2"",""7"",""return""]","[0.9199000000059812,1.6311000000089564,1.8530000000000086]",1,29,60,14,1,27,,,,,,,,,,,,,,,,,,,,,,,,,,,,,,,,,,,,,,,,,,,,,,,,,,,,,,,,,,,,,,,,,,,,,,,,,,,,,,,,,,,,,,,,,,,,,,,,,,,,,,,,,,,,,,,,,,,,,,,,,,,,,,,,,,,,,,,,,,,,,,,,,,,,,,,,,,,,,,,,,
,8665,BAC,13/05/2003,001,2023-05-25_18h26.57.087,OS3_Mult_verification,2022.2.4,MacIntel,59.97361161,,,49,1.5009,1,"[""4"",""9"",""return""]","[0.7787999999970339,1.2345000000000255,1.4665000000000248]",1,30,61,24,1,49,,,,,,,,,,,,,,,,,,,,,,,,,,,,,,,,,,,,,,,,,,,,,,,,,,,,,,,,,,,,,,,,,,,,,,,,,,,,,,,,,,,,,,,,,,,,,,,,,,,,,,,,,,,,,,,,,,,,,,,,,,,,,,,,,,,,,,,,,,,,,,,,,,,,,,,,,,,,,,,,,
,8665,BAC,13/05/2003,001,2023-05-25_18h26.57.087,OS3_Mult_verification,2022.2.4,MacIntel,59.97361161,,,,,,,,,,,,,,space,3.0143,,,,,,,,,,,,,,,,,,,,,,,,,,,,,,,,,,,,,,,,,,,,,,,,,,,,,,,,,,,,,,,,,,,,,,,,,,,,,,,,,,,,,,,,,,,,,,,,,,,,,,,,,,,,,,,,,,,,,,,,,,,,,,,,,,,,,,,,,,,,,,,,,,,,,,,,,,,,,,,
,8665,BAC,13/05/2003,001,2023-05-25_18h26.57.087,OS3_Mult_verification,2022.2.4,MacIntel,59.97361161,,,,,,,,,,,,,,,,,,,,,,,,,,,,,,,,,,,,,,,,,,,,,,,,,,,,,,,,,,,,,,,,,,,,,,,,,,,,,,,,,,,,,,,,,,,,,,,,,,,,,,,,,,,,,,,,,,,,,,,,,,,,,,,,,,,,,,,,,,,,,,,,,,,,,,,,,,,,,,,,,,,,,,,,,,,,,,
,8665,BAC,13/05/2003,001,2023-05-25_18h26.57.087,OS3_Mult_verification,2022.2.4,MacIntel,59.97361161,,,,,,,,,,,,,,,,space,2.9075,,,,,,,,,,,,,,,,,,,,,,,,,,,,,,,,,,,,,,,,,,,,,,,,,,,,,,,,,,,,,,,,,,,,,,,,,,,,,,,,,,,,,,,,,,,,,,,,,,,,,,,,,,,,,,,,,,,,,,,,,,,,,,,,,,,,,,,,,,,,,,,,,,,,,,,,,,,,,
,8665,BAC,13/05/2003,001,2023-05-25_18h26.57.087,OS3_Mult_verification,2022.2.4,MacIntel,59.97361161,,,,,,,,,,,,,,,,,,20,2.5427,1,"[""2"",""0"",""return""]","[1.5488999999910504,1.6698999999910598,2.2465999999940323]",0,0,0,1,1,2 × 10 =,20,,,,,,,,,,,,,,,,,,,,,,,,,,,,,,,,,,,,,,,,,,,,,,,,,,,,,,,,,,,,,,,,,,,,,,,,,,,,,,,,,,,,,,,,,,,,,,,,,,,,,,,,,,,,,,,,,,,,,,,,,,,,,,,,,,,,,,,,,,,,,,,,,
,8665,BAC,13/05/2003,001,2023-05-25_18h26.57.087,OS3_Mult_verification,2022.2.4,MacIntel,59.97361161,,,,,,,,,,,,,,,,,,7,1.7083,1,"[""7"",""return""]","[1.2213999999910357,1.407099999994017]",0,1,1,0,1,1 × 7 =,7,,,,,,,,,,,,,,,,,,,,,,,,,,,,,,,,,,,,,,,,,,,,,,,,,,,,,,,,,,,,,,,,,,,,,,,,,,,,,,,,,,,,,,,,,,,,,,,,,,,,,,,,,,,,,,,,,,,,,,,,,,,,,,,,,,,,,,,,,,,,,,,,,
,8665,BAC,13/05/2003,001,2023-05-25_18h26.57.087,OS3_Mult_verification,2022.2.4,MacIntel,59.97361161,,,,,,,,,,,,,,,,,,22,1.5671,1,"[""2"",""2"",""return""]","[0.9507000000029961,1.0640999999940561,1.2807999999970434]",0,2,2,2,1,2 × 11 =,22,,,,,,,,,,,,,,,,,,,,,,,,,,,,,,,,,,,,,,,,,,,,,,,,,,,,,,,,,,,,,,,,,,,,,,,,,,,,,,,,,,,,,,,,,,,,,,,,,,,,,,,,,,,,,,,,,,,,,,,,,,,,,,,,,,,,,,,,,,,,,,,,,
,8665,BAC,13/05/2003,001,2023-05-25_18h26.57.087,OS3_Mult_verification,2022.2.4,MacIntel,59.97361161,,,,,,,,,,,,,,,,,,,,,,,,,,,,,,,,,,,,,,,,,,,,,,,,,,,,,,,,,,,,,,,,,,,,,,,,,,,,,,,,,,,,,,,,,,,,,,,,,,,,,,,,,,,,,,,,,,,,,,,,,,,,,,,,,,,,,,,,,,,,,,,,,,,,,,,,,,,,,,,,,,,,,,,,,,,,,,
,8665,BAC,13/05/2003,001,2023-05-25_18h26.57.087,OS3_Mult_verification,2022.2.4,MacIntel,59.97361161,,,,,,,,,,,,,,,,,,,,,,,,,,,,,,,,,,,,,,,,,,,,,,,,,,,,,,,,,,,,,,,,,,,,,,,,,,,,,,,,,,,,,,,,,,,,,,,,,,,,,,,,,,,,,,,,,,,,,,,,,,,,,,,,,,,,,,,,,,,,,,,,,,,,,,,,,,,,,,,,,,,,,,,,,,,,,,
,8665,BAC,13/05/2003,001,2023-05-25_18h26.57.087,OS3_Mult_verification,2022.2.4,MacIntel,59.97361161,,,,,,,,,,,,,,,,,,6,2.1468,1,"[""6"",""return""]","[1.520099999994045,1.8525999999940268]",,,,,,2 × 3 =,6,0,0,0,0,1,,,,,,,,,,,,,,,,,,,,,,,,,,,,,,,,,,,,,,,,,,,,,,,,,,,,,,,,,,,,,,,,,,,,,,,,,,,,,,,,,,,,,,,,,,,,,,,,,,,,,,,,,,,,,,,,,,,,,,,,,,,,,,,,,,,,,,,,,,,,
,8665,BAC,13/05/2003,001,2023-05-25_18h26.57.087,OS3_Mult_verification,2022.2.4,MacIntel,59.97361161,,,,,,,,,,,,,,,,,,40,2.1178,1,"[""4"",""0"",""return""]","[1.1834000000059177,1.6382999999970025,1.836500000000001]",,,,,,5 × 8 =,40,0,1,1,1,1,,,,,,,,,,,,,,,,,,,,,,,,,,,,,,,,,,,,,,,,,,,,,,,,,,,,,,,,,,,,,,,,,,,,,,,,,,,,,,,,,,,,,,,,,,,,,,,,,,,,,,,,,,,,,,,,,,,,,,,,,,,,,,,,,,,,,,,,,,,,
,8665,BAC,13/05/2003,001,2023-05-25_18h26.57.087,OS3_Mult_verification,2022.2.4,MacIntel,59.97361161,,,,,,,,,,,,,,,,,,12,2.7531,1,"[""1"",""2"",""return""]","[1.0808999999910611,1.163899999991088,2.448699999988065]",,,,,,3 × 4 =,12,0,2,2,2,1,,,,,,,,,,,,,,,,,,,,,,,,,,,,,,,,,,,,,,,,,,,,,,,,,,,,,,,,,,,,,,,,,,,,,,,,,,,,,,,,,,,,,,,,,,,,,,,,,,,,,,,,,,,,,,,,,,,,,,,,,,,,,,,,,,,,,,,,,,,,
,8665,BAC,13/05/2003,001,2023-05-25_18h26.57.087,OS3_Mult_verification,2022.2.4,MacIntel,59.97361161,,,,,,,,,,,,,,,,,,15,1.5147,1,"[""1"",""5"",""return""]","[0.8496000000089339,1.099999999999966,1.2154000000059568]",,,,,,5 × 3 =,15,0,3,3,3,1,,,,,,,,,,,,,,,,,,,,,,,,,,,,,,,,,,,,,,,,,,,,,,,,,,,,,,,,,,,,,,,,,,,,,,,,,,,,,,,,,,,,,,,,,,,,,,,,,,,,,,,,,,,,,,,,,,,,,,,,,,,,,,,,,,,,,,,,,,,,
,8665,BAC,13/05/2003,001,2023-05-25_18h26.57.087,OS3_Mult_verification,2022.2.4,MacIntel,59.97361161,,,,,,,,,,,,,,,,,,8,2.2009,1,"[""8"",""return""]","[1.7337000000029548,1.9142000000029498]",,,,,,2 × 4 =,8,0,4,4,4,1,,,,,,,,,,,,,,,,,,,,,,,,,,,,,,,,,,,,,,,,,,,,,,,,,,,,,,,,,,,,,,,,,,,,,,,,,,,,,,,,,,,,,,,,,,,,,,,,,,,,,,,,,,,,,,,,,,,,,,,,,,,,,,,,,,,,,,,,,,,,
,8665,BAC,13/05/2003,001,2023-05-25_18h26.57.087,OS3_Mult_verification,2022.2.4,MacIntel,59.97361161,,,,,,,,,,,,,,,,,,4,1.6356,1,"[""4"",""return""]","[1.0994000000059145,1.3476000000089243]",,,,,,2 × 2 =,4,0,5,5,5,1,,,,,,,,,,,,,,,,,,,,,,,,,,,,,,,,,,,,,,,,,,,,,,,,,,,,,,,,,,,,,,,,,,,,,,,,,,,,,,,,,,,,,,,,,,,,,,,,,,,,,,,,,,,,,,,,,,,,,,,,,,,,,,,,,,,,,,,,,,,,
,8665,BAC,13/05/2003,001,2023-05-25_18h26.57.087,OS3_Mult_verification,2022.2.4,MacIntel,59.97361161,,,,,,,,,,,,,,,,,,20,2.6646,1,"[""2"",""0"",""return""]","[1.7324000000059527,2.116299999997011,2.3672999999969875]",,,,,,4 × 5 =,20,0,6,6,6,1,,,,,,,,,,,,,,,,,,,,,,,,,,,,,,,,,,,,,,,,,,,,,,,,,,,,,,,,,,,,,,,,,,,,,,,,,,,,,,,,,,,,,,,,,,,,,,,,,,,,,,,,,,,,,,,,,,,,,,,,,,,,,,,,,,,,,,,,,,,,
,8665,BAC,13/05/2003,001,2023-05-25_18h26.57.087,OS3_Mult_verification,2022.2.4,MacIntel,59.97361161,,,,,,,,,,,,,,,,,,9,1.7858,1,"[""9"",""return""]","[1.302500000000009,1.479899999991062]",,,,,,3 × 3 =,9,0,7,7,7,1,,,,,,,,,,,,,,,,,,,,,,,,,,,,,,,,,,,,,,,,,,,,,,,,,,,,,,,,,,,,,,,,,,,,,,,,,,,,,,,,,,,,,,,,,,,,,,,,,,,,,,,,,,,,,,,,,,,,,,,,,,,,,,,,,,,,,,,,,,,,
,8665,BAC,13/05/2003,001,2023-05-25_18h26.57.087,OS3_Mult_verification,2022.2.4,MacIntel,59.97361161,,,,,,,,,,,,,,,,,,10,1.7319,1,"[""1"",""0"",""return""]","[0.8634000000059245,1.2637000000029843,1.4320999999940227]",,,,,,5 × 2 =,10,0,8,8,8,1,,,,,,,,,,,,,,,,,,,,,,,,,,,,,,,,,,,,,,,,,,,,,,,,,,,,,,,,,,,,,,,,,,,,,,,,,,,,,,,,,,,,,,,,,,,,,,,,,,,,,,,,,,,,,,,,,,,,,,,,,,,,,,,,,,,,,,,,,,,,
,8665,BAC,13/05/2003,001,2023-05-25_18h26.57.087,OS3_Mult_verification,2022.2.4,MacIntel,59.97361161,,,,,,,,,,,,,,,,,,16,3.005,1,"[""1"",""6"",""return""]","[2.0364999999999895,2.4362999999970043,2.715799999996989]",,,,,,4 × 4 =,16,0,9,9,9,1,,,,,,,,,,,,,,,,,,,,,,,,,,,,,,,,,,,,,,,,,,,,,,,,,,,,,,,,,,,,,,,,,,,,,,,,,,,,,,,,,,,,,,,,,,,,,,,,,,,,,,,,,,,,,,,,,,,,,,,,,,,,,,,,,,,,,,,,,,,,
,8665,BAC,13/05/2003,001,2023-05-25_18h26.57.087,OS3_Mult_verification,2022.2.4,MacIntel,59.97361161,,,,,,,,,,,,,,,,,,24,4.2026,1,"[""2"",""4"",""return""]","[2.380199999988122,2.6295000000000073,3.914299999997013]",,,,,,8 × 3 =,24,0,10,10,10,1,,,,,,,,,,,,,,,,,,,,,,,,,,,,,,,,,,,,,,,,,,,,,,,,,,,,,,,,,,,,,,,,,,,,,,,,,,,,,,,,,,,,,,,,,,,,,,,,,,,,,,,,,,,,,,,,,,,,,,,,,,,,,,,,,,,,,,,,,,,,
,8665,BAC,13/05/2003,001,2023-05-25_18h26.57.087,OS3_Mult_verification,2022.2.4,MacIntel,59.97361161,,,,,,,,,,,,,,,,,,30,2.1255,1,"[""3"",""0"",""return""]","[1.2057000000029916,1.6679000000059432,1.8399000000059686]",,,,,,6 × 5 =,30,0,11,11,11,1,,,,,,,,,,,,,,,,,,,,,,,,,,,,,,,,,,,,,,,,,,,,,,,,,,,,,,,,,,,,,,,,,,,,,,,,,,,,,,,,,,,,,,,,,,,,,,,,,,,,,,,,,,,,,,,,,,,,,,,,,,,,,,,,,,,,,,,,,,,,
,8665,BAC,13/05/2003,001,2023-05-25_18h26.57.087,OS3_Mult_verification,2022.2.4,MacIntel,59.97361161,,,,,,,,,,,,,,,,,,14,1.6331,1,"[""1"",""4"",""return""]","[0.9687000000029684,1.2177999999969984,1.3324999999999818]",,,,,,7 × 2 =,14,0,12,12,12,1,,,,,,,,,,,,,,,,,,,,,,,,,,,,,,,,,,,,,,,,,,,,,,,,,,,,,,,,,,,,,,,,,,,,,,,,,,,,,,,,,,,,,,,,,,,,,,,,,,,,,,,,,,,,,,,,,,,,,,,,,,,,,,,,,,,,,,,,,,,,
,8665,BAC,13/05/2003,001,2023-05-25_18h26.57.087,OS3_Mult_verification,2022.2.4,MacIntel,59.97361161,,,,,,,,,,,,,,,,,,27,4.6516,1,"[""2"",""7"",""return""]","[2.767099999994059,3.932699999988074,4.349399999991078]",,,,,,3 × 9 =,27,0,13,13,13,1,,,,,,,,,,,,,,,,,,,,,,,,,,,,,,,,,,,,,,,,,,,,,,,,,,,,,,,,,,,,,,,,,,,,,,,,,,,,,,,,,,,,,,,,,,,,,,,,,,,,,,,,,,,,,,,,,,,,,,,,,,,,,,,,,,,,,,,,,,,,
,8665,BAC,13/05/2003,001,2023-05-25_18h26.57.087,OS3_Mult_verification,2022.2.4,MacIntel,59.97361161,,,,,,,,,,,,,,,,,,16,2.4086,1,"[""1"",""6"",""return""]","[1.5985000000000014,1.9797000000029925,2.1222999999970398]",,,,,,2 × 8 =,16,0,14,14,14,1,,,,,,,,,,,,,,,,,,,,,,,,,,,,,,,,,,,,,,,,,,,,,,,,,,,,,,,,,,,,,,,,,,,,,,,,,,,,,,,,,,,,,,,,,,,,,,,,,,,,,,,,,,,,,,,,,,,,,,,,,,,,,,,,,,,,,,,,,,,,
,8665,BAC,13/05/2003,001,2023-05-25_18h26.57.087,OS3_Mult_verification,2022.2.4,MacIntel,59.97361161,,,,,,,,,,,,,,,,,,24,2.1681,1,"[""2"",""4"",""return""]","[1.5033999999910748,1.7157000000029825,1.867099999994025]",,,,,,4 × 6 =,24,0,15,15,15,1,,,,,,,,,,,,,,,,,,,,,,,,,,,,,,,,,,,,,,,,,,,,,,,,,,,,,,,,,,,,,,,,,,,,,,,,,,,,,,,,,,,,,,,,,,,,,,,,,,,,,,,,,,,,,,,,,,,,,,,,,,,,,,,,,,,,,,,,,,,,
,8665,BAC,13/05/2003,001,2023-05-25_18h26.57.087,OS3_Mult_verification,2022.2.4,MacIntel,59.97361161,,,,,,,,,,,,,,,,,,21,2.4996,1,"[""2"",""1"",""return""]","[1.7671000000088952,1.872800000011921,2.1983000000118977]",,,,,,7 × 3 =,21,0,16,16,16,1,,,,,,,,,,,,,,,,,,,,,,,,,,,,,,,,,,,,,,,,,,,,,,,,,,,,,,,,,,,,,,,,,,,,,,,,,,,,,,,,,,,,,,,,,,,,,,,,,,,,,,,,,,,,,,,,,,,,,,,,,,,,,,,,,,,,,,,,,,,,
,8665,BAC,13/05/2003,001,2023-05-25_18h26.57.087,OS3_Mult_verification,2022.2.4,MacIntel,59.97361161,,,,,,,,,,,,,,,,,,27,3.2432,1,"[""2"",""7"",""return""]","[2.1318000000119355,2.7654999999999745,2.9529999999999745]",,,,,,9 × 3 =,27,0,17,17,17,1,,,,,,,,,,,,,,,,,,,,,,,,,,,,,,,,,,,,,,,,,,,,,,,,,,,,,,,,,,,,,,,,,,,,,,,,,,,,,,,,,,,,,,,,,,,,,,,,,,,,,,,,,,,,,,,,,,,,,,,,,,,,,,,,,,,,,,,,,,,,
,8665,BAC,13/05/2003,001,2023-05-25_18h26.57.087,OS3_Mult_verification,2022.2.4,MacIntel,59.97361161,,,,,,,,,,,,,,,,,,28,4.4856,1,"[""2"",""8"",""return""]","[2.38510000000889,3.620600000008892,4.183600000008937]",,,,,,4 × 7 =,28,0,18,18,18,1,,,,,,,,,,,,,,,,,,,,,,,,,,,,,,,,,,,,,,,,,,,,,,,,,,,,,,,,,,,,,,,,,,,,,,,,,,,,,,,,,,,,,,,,,,,,,,,,,,,,,,,,,,,,,,,,,,,,,,,,,,,,,,,,,,,,,,,,,,,,
,8665,BAC,13/05/2003,001,2023-05-25_18h26.57.087,OS3_Mult_verification,2022.2.4,MacIntel,59.97361161,,,,,,,,,,,,,,,,,,18,2.0071,1,"[""1"",""8"",""return""]","[1.1701000000089152,1.5841000000089025,1.7209000000059405]",,,,,,2 × 9 =,18,0,19,19,19,1,,,,,,,,,,,,,,,,,,,,,,,,,,,,,,,,,,,,,,,,,,,,,,,,,,,,,,,,,,,,,,,,,,,,,,,,,,,,,,,,,,,,,,,,,,,,,,,,,,,,,,,,,,,,,,,,,,,,,,,,,,,,,,,,,,,,,,,,,,,,
,8665,BAC,13/05/2003,001,2023-05-25_18h26.57.087,OS3_Mult_verification,2022.2.4,MacIntel,59.97361161,,,,,,,,,,,,,,,,,,72,15.4409,1,"[""7"",""2"",""return""]","[14.488500000000045,14.55689999999106,15.151599999994062]",,,,,,9 × 8 =,72,0,20,20,20,1,,,,,,,,,,,,,,,,,,,,,,,,,,,,,,,,,,,,,,,,,,,,,,,,,,,,,,,,,,,,,,,,,,,,,,,,,,,,,,,,,,,,,,,,,,,,,,,,,,,,,,,,,,,,,,,,,,,,,,,,,,,,,,,,,,,,,,,,,,,,
,8665,BAC,13/05/2003,001,2023-05-25_18h26.57.087,OS3_Mult_verification,2022.2.4,MacIntel,59.97361161,,,,,,,,,,,,,,,,,,42,4.0437,1,"[""4"",""2"",""return""]","[3.4010000000000105,3.533200000002978,3.7505999999940514]",,,,,,7 × 6 =,42,0,21,21,21,1,,,,,,,,,,,,,,,,,,,,,,,,,,,,,,,,,,,,,,,,,,,,,,,,,,,,,,,,,,,,,,,,,,,,,,,,,,,,,,,,,,,,,,,,,,,,,,,,,,,,,,,,,,,,,,,,,,,,,,,,,,,,,,,,,,,,,,,,,,,,
,8665,BAC,13/05/2003,001,2023-05-25_18h26.57.087,OS3_Mult_verification,2022.2.4,MacIntel,59.97361161,,,,,,,,,,,,,,,,,,54,9.7789,1,"[""5"",""4"",""return""]","[9.039099999993994,9.1875,9.486099999993996]",,,,,,6 × 9 =,54,0,22,22,22,1,,,,,,,,,,,,,,,,,,,,,,,,,,,,,,,,,,,,,,,,,,,,,,,,,,,,,,,,,,,,,,,,,,,,,,,,,,,,,,,,,,,,,,,,,,,,,,,,,,,,,,,,,,,,,,,,,,,,,,,,,,,,,,,,,,,,,,,,,,,,
,8665,BAC,13/05/2003,001,2023-05-25_18h26.57.087,OS3_Mult_verification,2022.2.4,MacIntel,59.97361161,,,,,,,,,,,,,,,,,,45,3.2255,1,"[""4"",""5"",""return""]","[2.1339000000059514,2.424500000000023,2.936700000002986]",,,,,,9 × 5 =,45,0,23,23,23,1,,,,,,,,,,,,,,,,,,,,,,,,,,,,,,,,,,,,,,,,,,,,,,,,,,,,,,,,,,,,,,,,,,,,,,,,,,,,,,,,,,,,,,,,,,,,,,,,,,,,,,,,,,,,,,,,,,,,,,,,,,,,,,,,,,,,,,,,,,,,
,8665,BAC,13/05/2003,001,2023-05-25_18h26.57.087,OS3_Mult_verification,2022.2.4,MacIntel,59.97361161,,,,,,,,,,,,,,,,,,,6.428,0,,,,,,,,8 × 7 =,56,0,24,24,24,1,,,,,,,,,,,,,,,,,,,,,,,,,,,,,,,,,,,,,,,,,,,,,,,,,,,,,,,,,,,,,,,,,,,,,,,,,,,,,,,,,,,,,,,,,,,,,,,,,,,,,,,,,,,,,,,,,,,,,,,,,,,,,,,,,,,,,,,,,,,,
,8665,BAC,13/05/2003,001,2023-05-25_18h26.57.087,OS3_Mult_verification,2022.2.4,MacIntel,59.97361161,,,,,,,,,,,,,,,,space,1.2331,,,,,,,,,,,,,,,,,,TRUE,3.385,-0.016376495,-0.339072571,1,0,0,0,0,0,1,1,practice trial,,3,3,,,,,,,,,,,,,,,,,,,,,,,,,,,,,,,,,,,,,,,,,,,,,,,,,,,,,,,,,,,,,,,,,,,,,,,,,,,,,,,,,,,,,,,,,,,,,,,,,,,,,,,,,,,,,,,,,,,,,,,,,,,,
,8665,BAC,13/05/2003,001,2023-05-25_18h26.57.087,OS3_Mult_verification,2022.2.4,MacIntel,59.97361161,,,,,,,,,,,,,,,,,,,,,,,,,,,,,,,,,,,TRUE,2.7565,-0.050841141,-0.339016876,1,0,0,0,1,1,2,1,practice trial,,3,3,,,,,,,,,,,,,,,,,,,,,,,,,,,,,,,,,,,,,,,,,,,,,,,,,,,,,,,,,,,,,,,,,,,,,,,,,,,,,,,,,,,,,,,,,,,,,,,,,,,,,,,,,,,,,,,,,,,,,,,,,,,,
,8665,BAC,13/05/2003,001,2023-05-25_18h26.57.087,OS3_Mult_verification,2022.2.4,MacIntel,59.97361161,,,,,,,,,,,,,,,,,,,,,,,,,,,,,,,,,,,TRUE,2.852,-0.011255341,-0.337096939,1,0,0,0,2,2,0,1,practice trial,,3,3,,,,,,,,,,,,,,,,,,,,,,,,,,,,,,,,,,,,,,,,,,,,,,,,,,,,,,,,,,,,,,,,,,,,,,,,,,,,,,,,,,,,,,,,,,,,,,,,,,,,,,,,,,,,,,,,,,,,,,,,,,,,
,8665,BAC,13/05/2003,001,2023-05-25_18h26.57.087,OS3_Mult_verification,2022.2.4,MacIntel,59.97361161,,,,,,,,,,,,,,,,,,,,,,,,,,,,,,,,,,,TRUE,1.6064,-0.02103096,-0.36488739,1,0,0,,,,,,Trial #1,,2,2,0,0,0,0,1,2,,,,,,,,,,,,,,,,,,,,,,,,,,,,,,,,,,,,,,,,,,,,,,,,,,,,,,,,,,,,,,,,,,,,,,,,,,,,,,,,,,,,,,,,,,,,,,,,,,,,,,,,,,,,,,,,,,,,,,
,8665,BAC,13/05/2003,001,2023-05-25_18h26.57.087,OS3_Mult_verification,2022.2.4,MacIntel,59.97361161,,,,,,,,,,,,,,,,,,,,,,,,,,,,,,,,,,,TRUE,1.3205,-0.0097995,-0.355182495,1,0,0,,,,,,Trial #1,,2,2,0,1,1,1,1,2,,,,,,,,,,,,,,,,,,,,,,,,,,,,,,,,,,,,,,,,,,,,,,,,,,,,,,,,,,,,,,,,,,,,,,,,,,,,,,,,,,,,,,,,,,,,,,,,,,,,,,,,,,,,,,,,,,,,,,
,8665,BAC,13/05/2003,001,2023-05-25_18h26.57.087,OS3_Mult_verification,2022.2.4,MacIntel,59.97361161,,,,,,,,,,,,,,,,,,,,,,,,,,,,,,,,,,,TRUE,1.3354,-0.078344574,-0.330137177,1,0,0,,,,,,Trial #1,,2,2,0,2,2,2,1,2,,,,,,,,,,,,,,,,,,,,,,,,,,,,,,,,,,,,,,,,,,,,,,,,,,,,,,,,,,,,,,,,,,,,,,,,,,,,,,,,,,,,,,,,,,,,,,,,,,,,,,,,,,,,,,,,,,,,,,
,8665,BAC,13/05/2003,001,2023-05-25_18h26.57.087,OS3_Mult_verification,2022.2.4,MacIntel,59.97361161,,,,,,,,,,,,,,,,,,,,,,,,,,,,,,,,,,,TRUE,1.448,0.039818268,-0.353317413,1,0,0,,,,,,Trial #2,,3,3,0,0,0,0,1,3,,,,,,,,,,,,,,,,,,,,,,,,,,,,,,,,,,,,,,,,,,,,,,,,,,,,,,,,,,,,,,,,,,,,,,,,,,,,,,,,,,,,,,,,,,,,,,,,,,,,,,,,,,,,,,,,,,,,,,
,8665,BAC,13/05/2003,001,2023-05-25_18h26.57.087,OS3_Mult_verification,2022.2.4,MacIntel,59.97361161,,,,,,,,,,,,,,,,,,,,,,,,,,,,,,,,,,,TRUE,1.7315,0.001320648,-0.341250153,1,0,0,,,,,,Trial #2,,3,3,0,1,1,1,1,3,,,,,,,,,,,,,,,,,,,,,,,,,,,,,,,,,,,,,,,,,,,,,,,,,,,,,,,,,,,,,,,,,,,,,,,,,,,,,,,,,,,,,,,,,,,,,,,,,,,,,,,,,,,,,,,,,,,,,,
,8665,BAC,13/05/2003,001,2023-05-25_18h26.57.087,OS3_Mult_verification,2022.2.4,MacIntel,59.97361161,,,,,,,,,,,,,,,,,,,,,,,,,,,,,,,,,,,TRUE,1.9861,-0.071787109,-0.365729904,1,0,0,,,,,,Trial #2,,3,3,0,2,2,2,1,3,,,,,,,,,,,,,,,,,,,,,,,,,,,,,,,,,,,,,,,,,,,,,,,,,,,,,,,,,,,,,,,,,,,,,,,,,,,,,,,,,,,,,,,,,,,,,,,,,,,,,,,,,,,,,,,,,,,,,,
,8665,BAC,13/05/2003,001,2023-05-25_18h26.57.087,OS3_Mult_verification,2022.2.4,MacIntel,59.97361161,,,,,,,,,,,,,,,,,,,,,,,,,,,,,,,,,,,TRUE,2.2229,-0.046663513,-0.328519135,1,0,0,,,,,,Trial #3,,3,3,0,0,0,0,1,4,,,,,,,,,,,,,,,,,,,,,,,,,,,,,,,,,,,,,,,,,,,,,,,,,,,,,,,,,,,,,,,,,,,,,,,,,,,,,,,,,,,,,,,,,,,,,,,,,,,,,,,,,,,,,,,,,,,,,,
,8665,BAC,13/05/2003,001,2023-05-25_18h26.57.087,OS3_Mult_verification,2022.2.4,MacIntel,59.97361161,,,,,,,,,,,,,,,,,,,,,,,,,,,,,,,,,,,TRUE,3.051,-0.05046257,-0.352673187,1,0,0,,,,,,Trial #3,,3,3,0,1,1,1,1,4,,,,,,,,,,,,,,,,,,,,,,,,,,,,,,,,,,,,,,,,,,,,,,,,,,,,,,,,,,,,,,,,,,,,,,,,,,,,,,,,,,,,,,,,,,,,,,,,,,,,,,,,,,,,,,,,,,,,,,
,8665,BAC,13/05/2003,001,2023-05-25_18h26.57.087,OS3_Mult_verification,2022.2.4,MacIntel,59.97361161,,,,,,,,,,,,,,,,,,,,,,,,,,,,,,,,,,,TRUE,2.1491,-0.039664917,-0.33256546,1,0,0,,,,,,Trial #3,,3,3,0,2,2,2,1,4,,,,,,,,,,,,,,,,,,,,,,,,,,,,,,,,,,,,,,,,,,,,,,,,,,,,,,,,,,,,,,,,,,,,,,,,,,,,,,,,,,,,,,,,,,,,,,,,,,,,,,,,,,,,,,,,,,,,,,
,8665,BAC,13/05/2003,001,2023-05-25_18h26.57.087,OS3_Mult_verification,2022.2.4,MacIntel,59.97361161,,,,,,,,,,,,,,,,,,,,,,,,,,,,,,,,,,,TRUE,2.6713,-0.038130035,-0.326695709,1,0,0,,,,,,Trial #4,,4,4,0,0,0,0,1,5,,,,,,,,,,,,,,,,,,,,,,,,,,,,,,,,,,,,,,,,,,,,,,,,,,,,,,,,,,,,,,,,,,,,,,,,,,,,,,,,,,,,,,,,,,,,,,,,,,,,,,,,,,,,,,,,,,,,,,
,8665,BAC,13/05/2003,001,2023-05-25_18h26.57.087,OS3_Mult_verification,2022.2.4,MacIntel,59.97361161,,,,,,,,,,,,,,,,,,,,,,,,,,,,,,,,,,,TRUE,2.8496,-0.129812546,-0.339059143,1,0,0,,,,,,Trial #4,,4,4,0,1,1,1,1,5,,,,,,,,,,,,,,,,,,,,,,,,,,,,,,,,,,,,,,,,,,,,,,,,,,,,,,,,,,,,,,,,,,,,,,,,,,,,,,,,,,,,,,,,,,,,,,,,,,,,,,,,,,,,,,,,,,,,,,
,8665,BAC,13/05/2003,001,2023-05-25_18h26.57.087,OS3_Mult_verification,2022.2.4,MacIntel,59.97361161,,,,,,,,,,,,,,,,,,,,,,,,,,,,,,,,,,,TRUE,2.617,-0.026340714,-0.35758522,1,0,0,,,,,,Trial #4,,4,4,0,2,2,2,1,5,,,,,,,,,,,,,,,,,,,,,,,,,,,,,,,,,,,,,,,,,,,,,,,,,,,,,,,,,,,,,,,,,,,,,,,,,,,,,,,,,,,,,,,,,,,,,,,,,,,,,,,,,,,,,,,,,,,,,,
,8665,BAC,13/05/2003,001,2023-05-25_18h26.57.087,OS3_Mult_verification,2022.2.4,MacIntel,59.97361161,,,,,,,,,,,,,,,,,,,,,,,,,,,,,,,,,,,TRUE,3.7174,-0.071507874,-0.335855331,1,0,0,,,,,,Trial #5,,4,4,0,0,0,0,1,6,,,,,,,,,,,,,,,,,,,,,,,,,,,,,,,,,,,,,,,,,,,,,,,,,,,,,,,,,,,,,,,,,,,,,,,,,,,,,,,,,,,,,,,,,,,,,,,,,,,,,,,,,,,,,,,,,,,,,,
,8665,BAC,13/05/2003,001,2023-05-25_18h26.57.087,OS3_Mult_verification,2022.2.4,MacIntel,59.97361161,,,,,,,,,,,,,,,,,,,,,,,,,,,,,,,,,,,TRUE,3.1349,0.012232132,-0.343405304,1,0,0,,,,,,Trial #5,,4,4,0,1,1,1,1,6,,,,,,,,,,,,,,,,,,,,,,,,,,,,,,,,,,,,,,,,,,,,,,,,,,,,,,,,,,,,,,,,,,,,,,,,,,,,,,,,,,,,,,,,,,,,,,,,,,,,,,,,,,,,,,,,,,,,,,
,8665,BAC,13/05/2003,001,2023-05-25_18h26.57.087,OS3_Mult_verification,2022.2.4,MacIntel,59.97361161,,,,,,,,,,,,,,,,,,,,,,,,,,,,,,,,,,,TRUE,2.8832,-0.065850906,-0.321287537,1,0,0,,,,,,Trial #5,,4,4,0,2,2,2,1,6,,,,,,,,,,,,,,,,,,,,,,,,,,,,,,,,,,,,,,,,,,,,,,,,,,,,,,,,,,,,,,,,,,,,,,,,,,,,,,,,,,,,,,,,,,,,,,,,,,,,,,,,,,,,,,,,,,,,,,
,8665,BAC,13/05/2003,001,2023-05-25_18h26.57.087,OS3_Mult_verification,2022.2.4,MacIntel,59.97361161,,,,,,,,,,,,,,,,,,,,,,,,,,,,,,,,,,,TRUE,3.5399,0.012711029,-0.33453743,1,0,0,,,,,,Trial #6,,4,4,0,0,0,0,1,7,,,,,,,,,,,,,,,,,,,,,,,,,,,,,,,,,,,,,,,,,,,,,,,,,,,,,,,,,,,,,,,,,,,,,,,,,,,,,,,,,,,,,,,,,,,,,,,,,,,,,,,,,,,,,,,,,,,,,,
,8665,BAC,13/05/2003,001,2023-05-25_18h26.57.087,OS3_Mult_verification,2022.2.4,MacIntel,59.97361161,,,,,,,,,,,,,,,,,,,,,,,,,,,,,,,,,,,TRUE,3.7167,-0.106500244,-0.348538055,1,0,0,,,,,,Trial #6,,4,4,0,1,1,1,1,7,,,,,,,,,,,,,,,,,,,,,,,,,,,,,,,,,,,,,,,,,,,,,,,,,,,,,,,,,,,,,,,,,,,,,,,,,,,,,,,,,,,,,,,,,,,,,,,,,,,,,,,,,,,,,,,,,,,,,,
,8665,BAC,13/05/2003,001,2023-05-25_18h26.57.087,OS3_Mult_verification,2022.2.4,MacIntel,59.97361161,,,,,,,,,,,,,,,,,,,,,,,,,,,,,,,,,,,TRUE,4.5989,-0.02011795,-0.363746185,1,0,0,,,,,,Trial #6,,4,4,0,2,2,2,1,7,,,,,,,,,,,,,,,,,,,,,,,,,,,,,,,,,,,,,,,,,,,,,,,,,,,,,,,,,,,,,,,,,,,,,,,,,,,,,,,,,,,,,,,,,,,,,,,,,,,,,,,,,,,,,,,,,,,,,,
,8665,BAC,13/05/2003,001,2023-05-25_18h26.57.087,OS3_Mult_verification,2022.2.4,MacIntel,59.97361161,,,,,,,,,,,,,,,,,,,,,,,,,,,,,,,,,,,TRUE,5.3036,0.003624344,-0.361874924,1,0,0,,,,,,Trial #7,,4,4,0,0,0,0,1,8,,,,,,,,,,,,,,,,,,,,,,,,,,,,,,,,,,,,,,,,,,,,,,,,,,,,,,,,,,,,,,,,,,,,,,,,,,,,,,,,,,,,,,,,,,,,,,,,,,,,,,,,,,,,,,,,,,,,,,
,8665,BAC,13/05/2003,001,2023-05-25_18h26.57.087,OS3_Mult_verification,2022.2.4,MacIntel,59.97361161,,,,,,,,,,,,,,,,,,,,,,,,,,,,,,,,,,,TRUE,4.7556,-0.021408081,-0.332371216,1,0,0,,,,,,Trial #7,,4,4,0,1,1,1,1,8,,,,,,,,,,,,,,,,,,,,,,,,,,,,,,,,,,,,,,,,,,,,,,,,,,,,,,,,,,,,,,,,,,,,,,,,,,,,,,,,,,,,,,,,,,,,,,,,,,,,,,,,,,,,,,,,,,,,,,
,8665,BAC,13/05/2003,001,2023-05-25_18h26.57.087,OS3_Mult_verification,2022.2.4,MacIntel,59.97361161,,,,,,,,,,,,,,,,,,,,,,,,,,,,,,,,,,,TRUE,4.387,-0.06281517,-0.341918869,1,0,0,,,,,,Trial #7,,4,4,0,2,2,2,1,8,,,,,,,,,,,,,,,,,,,,,,,,,,,,,,,,,,,,,,,,,,,,,,,,,,,,,,,,,,,,,,,,,,,,,,,,,,,,,,,,,,,,,,,,,,,,,,,,,,,,,,,,,,,,,,,,,,,,,,
,8665,BAC,13/05/2003,001,2023-05-25_18h26.57.087,OS3_Mult_verification,2022.2.4,MacIntel,59.97361161,,,,,,,,,,,,,,,,,,,,,,,,,,,,,,,,,,,TRUE,7.7757,-0.07549675,-0.368373489,1,0,0,,,,,,Trial #8,,5,5,0,0,0,0,1,9,,,,,,,,,,,,,,,,,,,,,,,,,,,,,,,,,,,,,,,,,,,,,,,,,,,,,,,,,,,,,,,,,,,,,,,,,,,,,,,,,,,,,,,,,,,,,,,,,,,,,,,,,,,,,,,,,,,,,,
,8665,BAC,13/05/2003,001,2023-05-25_18h26.57.087,OS3_Mult_verification,2022.2.4,MacIntel,59.97361161,,,,,,,,,,,,,,,,,,,,,,,,,,,,,,,,,,,FALSE,5.2993,0.050487518,-0.332809677,1,0,0,,,,,,Trial #8,,5,5,0,1,1,1,1,9,,,,,,,,,,,,,,,,,,,,,,,,,,,,,,,,,,,,,,,,,,,,,,,,,,,,,,,,,,,,,,,,,,,,,,,,,,,,,,,,,,,,,,,,,,,,,,,,,,,,,,,,,,,,,,,,,,,,,,
,8665,BAC,13/05/2003,001,2023-05-25_18h26.57.087,OS3_Mult_verification,2022.2.4,MacIntel,59.97361161,,,,,,,,,,,,,,,,,,,,,,,,,,,,,,,,,,,FALSE,3.8855,-0.069936066,-0.379423218,1,0,0,,,,,,Trial #8,,5,5,0,2,2,2,1,9,,,,,,,,,,,,,,,,,,,,,,,,,,,,,,,,,,,,,,,,,,,,,,,,,,,,,,,,,,,,,,,,,,,,,,,,,,,,,,,,,,,,,,,,,,,,,,,,,,,,,,,,,,,,,,,,,,,,,,
,8665,BAC,13/05/2003,001,2023-05-25_18h26.57.087,OS3_Mult_verification,2022.2.4,MacIntel,59.97361161,,,,,,,,,,,,,,,,,,,,,,,,,,,,,,,,,,,,,,,,,,,,,,,,,,,,,,,,,0,0,0,0,1,,,,,,,,,,,,,,,,,,,,,,,,,,,,,,,,,,,,,,,,,,,,,,,,,,,,,,,,,,,,,,,,,,,,,,,,,,,,,,,,,,,,,,,,,,,,,,,,,,,,,,,,,,,,,,,,,
,8665,BAC,13/05/2003,001,2023-05-25_18h26.57.087,OS3_Mult_verification,2022.2.4,MacIntel,59.97361161,,,,,,,,,,,,,,,,,,,,,,,,,,,,,,,,,,,,,,,,,,,,,,,,,,,,,,,,,,,,,,0,0,0,0,1,0,1,0,,,,,,,,,,,,,,,,,,,,,,,,,,,,,,,,,,,,,,,,,,,,,,,,,,,,,,,,,,,,,,,,,,,,,,,,,,,,,,,,,,,,,,,,,,,,,,,,,,,,,,,,,
,8665,BAC,13/05/2003,001,2023-05-25_18h26.57.087,OS3_Mult_verification,2022.2.4,MacIntel,59.97361161,,,,,,,,,,,,,,,,space,1.189,,,,,,,,,,,,,,,,,,,,,,,,,,,,,,,,,,,,,,,,,,,,,,,,,,,,,right,1,0.9699,0,0,0,2,1,practice,9,9,9 | 9,0,0.05,0.065,neutral,right,,,,,,,,,,,,,,,,,,,,,,,,,,,,,,,,,,,,,,,,,,,,,,,,,,,,,,,,,,,,,,,,,,,,,,,,,,,,,,,,,,,,,,,,
,8665,BAC,13/05/2003,001,2023-05-25_18h26.57.087,OS3_Mult_verification,2022.2.4,MacIntel,59.97361161,,,,,,,,,,,,,,,,,,,,,,,,,,,,,,,,,,,,,,,,,,,,,,,,,,,,,,,,,,,,,,,,,,,,,,left,1,1.0455,0,1,1,0,1,practice,9,8,9 | 8,1,0.065,0.05,congruent,left,,,,,,,,,,,,,,,,,,,,,,,,,,,,,,,,,,,,,,,,,,,,,,,,,,,,,,,,,,,,,,,,,,,,,,,,,,,,,,,,,,,,,,,,
,8665,BAC,13/05/2003,001,2023-05-25_18h26.57.087,OS3_Mult_verification,2022.2.4,MacIntel,59.97361161,,,,,,,,,,,,,,,,,,,,,,,,,,,,,,,,,,,,,,,,,,,,,,,,,,,,,,,,,,,,,,,,,,,,,,right,1,0.731,0,2,2,1,1,practice,4,3,4 | 3,1,0.05,0.065,incongruent,right,,,,,,,,,,,,,,,,,,,,,,,,,,,,,,,,,,,,,,,,,,,,,,,,,,,,,,,,,,,,,,,,,,,,,,,,,,,,,,,,,,,,,,,,
,8665,BAC,13/05/2003,001,2023-05-25_18h26.57.087,OS3_Mult_verification,2022.2.4,MacIntel,59.97361161,,,,,,,,,,,,,,,,,,,,,,,,,,,,,,,,,,,,,,,,,,,,,,,,,,,,,,,,,,,,,,,,,,,,,,right,1,0.6178,,,,,,physical,4,3,4 | 3,1,0.05,0.065,incongruent,right,0,0,0,29,1,,,,,,,,,,,,,,,,,,,,,,,,,,,,,,,,,,,,,,,,,,,,,,,,,,,,,,,,,,,,,,,,,,,,,,,,,,,,,,,,,,,
,8665,BAC,13/05/2003,001,2023-05-25_18h26.57.087,OS3_Mult_verification,2022.2.4,MacIntel,59.97361161,,,,,,,,,,,,,,,,,,,,,,,,,,,,,,,,,,,,,,,,,,,,,,,,,,,,,,,,,,,,,,,,,,,,,,right,1,0.7342,,,,,,physical,3,8,3 | 8,5,0.05,0.065,congruent,right,0,1,1,18,1,,,,,,,,,,,,,,,,,,,,,,,,,,,,,,,,,,,,,,,,,,,,,,,,,,,,,,,,,,,,,,,,,,,,,,,,,,,,,,,,,,,
,8665,BAC,13/05/2003,001,2023-05-25_18h26.57.087,OS3_Mult_verification,2022.2.4,MacIntel,59.97361161,,,,,,,,,,,,,,,,,,,,,,,,,,,,,,,,,,,,,,,,,,,,,,,,,,,,,,,,,,,,,,,,,,,,,,left,1,0.5156,,,,,,physical,8,3,8 | 3,5,0.065,0.05,congruent,left,0,2,2,22,1,,,,,,,,,,,,,,,,,,,,,,,,,,,,,,,,,,,,,,,,,,,,,,,,,,,,,,,,,,,,,,,,,,,,,,,,,,,,,,,,,,,
,8665,BAC,13/05/2003,001,2023-05-25_18h26.57.087,OS3_Mult_verification,2022.2.4,MacIntel,59.97361161,,,,,,,,,,,,,,,,,,,,,,,,,,,,,,,,,,,,,,,,,,,,,,,,,,,,,,,,,,,,,,,,,,,,,,left,1,0.4768,,,,,,physical,6,1,6 | 1,5,0.065,0.05,congruent,left,0,3,3,20,1,,,,,,,,,,,,,,,,,,,,,,,,,,,,,,,,,,,,,,,,,,,,,,,,,,,,,,,,,,,,,,,,,,,,,,,,,,,,,,,,,,,
,8665,BAC,13/05/2003,001,2023-05-25_18h26.57.087,OS3_Mult_verification,2022.2.4,MacIntel,59.97361161,,,,,,,,,,,,,,,,,,,,,,,,,,,,,,,,,,,,,,,,,,,,,,,,,,,,,,,,,,,,,,,,,,,,,,left,1,0.5224,,,,,,physical,7,9,7 | 9,2,0.065,0.05,incongruent,left,0,4,4,35,1,,,,,,,,,,,,,,,,,,,,,,,,,,,,,,,,,,,,,,,,,,,,,,,,,,,,,,,,,,,,,,,,,,,,,,,,,,,,,,,,,,,
,8665,BAC,13/05/2003,001,2023-05-25_18h26.57.087,OS3_Mult_verification,2022.2.4,MacIntel,59.97361161,,,,,,,,,,,,,,,,,,,,,,,,,,,,,,,,,,,,,,,,,,,,,,,,,,,,,,,,,,,,,,,,,,,,,,left,1,0.6161,,,,,,physical,4,3,4 | 3,1,0.065,0.05,congruent,left,0,5,5,5,1,,,,,,,,,,,,,,,,,,,,,,,,,,,,,,,,,,,,,,,,,,,,,,,,,,,,,,,,,,,,,,,,,,,,,,,,,,,,,,,,,,,
,8665,BAC,13/05/2003,001,2023-05-25_18h26.57.087,OS3_Mult_verification,2022.2.4,MacIntel,59.97361161,,,,,,,,,,,,,,,,,,,,,,,,,,,,,,,,,,,,,,,,,,,,,,,,,,,,,,,,,,,,,,,,,,,,,,left,1,0.8271,,,,,,physical,7,6,7 | 6,1,0.065,0.05,congruent,left,0,6,6,6,1,,,,,,,,,,,,,,,,,,,,,,,,,,,,,,,,,,,,,,,,,,,,,,,,,,,,,,,,,,,,,,,,,,,,,,,,,,,,,,,,,,,
,8665,BAC,13/05/2003,001,2023-05-25_18h26.57.087,OS3_Mult_verification,2022.2.4,MacIntel,59.97361161,,,,,,,,,,,,,,,,,,,,,,,,,,,,,,,,,,,,,,,,,,,,,,,,,,,,,,,,,,,,,,,,,,,,,,right,1,0.6948,,,,,,physical,1,6,1 | 6,5,0.05,0.065,congruent,right,0,7,7,16,1,,,,,,,,,,,,,,,,,,,,,,,,,,,,,,,,,,,,,,,,,,,,,,,,,,,,,,,,,,,,,,,,,,,,,,,,,,,,,,,,,,,
,8665,BAC,13/05/2003,001,2023-05-25_18h26.57.087,OS3_Mult_verification,2022.2.4,MacIntel,59.97361161,,,,,,,,,,,,,,,,,,,,,,,,,,,,,,,,,,,,,,,,,,,,,,,,,,,,,,,,,,,,,,,,,,,,,,right,1,0.5612,,,,,,physical,4,4,4 | 4,0,0.05,0.065,neutral,right,0,8,8,61,1,,,,,,,,,,,,,,,,,,,,,,,,,,,,,,,,,,,,,,,,,,,,,,,,,,,,,,,,,,,,,,,,,,,,,,,,,,,,,,,,,,,
,8665,BAC,13/05/2003,001,2023-05-25_18h26.57.087,OS3_Mult_verification,2022.2.4,MacIntel,59.97361161,,,,,,,,,,,,,,,,,,,,,,,,,,,,,,,,,,,,,,,,,,,,,,,,,,,,,,,,,,,,,,,,,,,,,,right,1,0.5625,,,,,,physical,9,9,9 | 9,0,0.05,0.065,neutral,right,0,9,9,63,1,,,,,,,,,,,,,,,,,,,,,,,,,,,,,,,,,,,,,,,,,,,,,,,,,,,,,,,,,,,,,,,,,,,,,,,,,,,,,,,,,,,
,8665,BAC,13/05/2003,001,2023-05-25_18h26.57.087,OS3_Mult_verification,2022.2.4,MacIntel,59.97361161,,,,,,,,,,,,,,,,,,,,,,,,,,,,,,,,,,,,,,,,,,,,,,,,,,,,,,,,,,,,,,,,,,,,,,right,1,0.596,,,,,,physical,2,2,2 | 2,0,0.05,0.065,neutral,right,0,10,10,57,1,,,,,,,,,,,,,,,,,,,,,,,,,,,,,,,,,,,,,,,,,,,,,,,,,,,,,,,,,,,,,,,,,,,,,,,,,,,,,,,,,,,
,8665,BAC,13/05/2003,001,2023-05-25_18h26.57.087,OS3_Mult_verification,2022.2.4,MacIntel,59.97361161,,,,,,,,,,,,,,,,,,,,,,,,,,,,,,,,,,,,,,,,,,,,,,,,,,,,,,,,,,,,,,,,,,,,,,left,1,0.6268,,,,,,physical,3,8,3 | 8,5,0.065,0.05,incongruent,left,0,11,11,42,1,,,,,,,,,,,,,,,,,,,,,,,,,,,,,,,,,,,,,,,,,,,,,,,,,,,,,,,,,,,,,,,,,,,,,,,,,,,,,,,,,,,
,8665,BAC,13/05/2003,001,2023-05-25_18h26.57.087,OS3_Mult_verification,2022.2.4,MacIntel,59.97361161,,,,,,,,,,,,,,,,,,,,,,,,,,,,,,,,,,,,,,,,,,,,,,,,,,,,,,,,,,,,,,,,,,,,,,right,1,0.532,,,,,,physical,3,1,3 | 1,2,0.05,0.065,incongruent,right,0,12,12,36,1,,,,,,,,,,,,,,,,,,,,,,,,,,,,,,,,,,,,,,,,,,,,,,,,,,,,,,,,,,,,,,,,,,,,,,,,,,,,,,,,,,,
,8665,BAC,13/05/2003,001,2023-05-25_18h26.57.087,OS3_Mult_verification,2022.2.4,MacIntel,59.97361161,,,,,,,,,,,,,,,,,,,,,,,,,,,,,,,,,,,,,,,,,,,,,,,,,,,,,,,,,,,,,,,,,,,,,,right,1,0.6502,,,,,,physical,8,3,8 | 3,5,0.05,0.065,incongruent,right,0,13,13,46,1,,,,,,,,,,,,,,,,,,,,,,,,,,,,,,,,,,,,,,,,,,,,,,,,,,,,,,,,,,,,,,,,,,,,,,,,,,,,,,,,,,,
,8665,BAC,13/05/2003,001,2023-05-25_18h26.57.087,OS3_Mult_verification,2022.2.4,MacIntel,59.97361161,,,,,,,,,,,,,,,,,,,,,,,,,,,,,,,,,,,,,,,,,,,,,,,,,,,,,,,,,,,,,,,,,,,,,,right,1,0.6468,,,,,,physical,6,7,6 | 7,1,0.05,0.065,congruent,right,0,14,14,2,1,,,,,,,,,,,,,,,,,,,,,,,,,,,,,,,,,,,,,,,,,,,,,,,,,,,,,,,,,,,,,,,,,,,,,,,,,,,,,,,,,,,
,8665,BAC,13/05/2003,001,2023-05-25_18h26.57.087,OS3_Mult_verification,2022.2.4,MacIntel,59.97361161,,,,,,,,,,,,,,,,,,,,,,,,,,,,,,,,,,,,,,,,,,,,,,,,,,,,,,,,,,,,,,,,,,,,,,left,1,0.466,,,,,,physical,3,1,3 | 1,2,0.065,0.05,congruent,left,0,15,15,12,1,,,,,,,,,,,,,,,,,,,,,,,,,,,,,,,,,,,,,,,,,,,,,,,,,,,,,,,,,,,,,,,,,,,,,,,,,,,,,,,,,,,
,8665,BAC,13/05/2003,001,2023-05-25_18h26.57.087,OS3_Mult_verification,2022.2.4,MacIntel,59.97361161,,,,,,,,,,,,,,,,,,,,,,,,,,,,,,,,,,,,,,,,,,,,,,,,,,,,,,,,,,,,,,,,,,,,,,right,1,0.5081,,,,,,physical,1,2,1 | 2,1,0.05,0.065,congruent,right,0,16,16,0,1,,,,,,,,,,,,,,,,,,,,,,,,,,,,,,,,,,,,,,,,,,,,,,,,,,,,,,,,,,,,,,,,,,,,,,,,,,,,,,,,,,,
,8665,BAC,13/05/2003,001,2023-05-25_18h26.57.087,OS3_Mult_verification,2022.2.4,MacIntel,59.97361161,,,,,,,,,,,,,,,,,,,,,,,,,,,,,,,,,,,,,,,,,,,,,,,,,,,,,,,,,,,,,,,,,,,,,,right,1,0.5596,,,,,,physical,3,3,3 | 3,0,0.05,0.065,neutral,right,0,17,17,60,1,,,,,,,,,,,,,,,,,,,,,,,,,,,,,,,,,,,,,,,,,,,,,,,,,,,,,,,,,,,,,,,,,,,,,,,,,,,,,,,,,,,
,8665,BAC,13/05/2003,001,2023-05-25_18h26.57.087,OS3_Mult_verification,2022.2.4,MacIntel,59.97361161,,,,,,,,,,,,,,,,,,,,,,,,,,,,,,,,,,,,,,,,,,,,,,,,,,,,,,,,,,,,,,,,,,,,,,left,1,0.4237,,,,,,physical,2,1,2 | 1,1,0.065,0.05,congruent,left,0,18,18,4,1,,,,,,,,,,,,,,,,,,,,,,,,,,,,,,,,,,,,,,,,,,,,,,,,,,,,,,,,,,,,,,,,,,,,,,,,,,,,,,,,,,,
,8665,BAC,13/05/2003,001,2023-05-25_18h26.57.087,OS3_Mult_verification,2022.2.4,MacIntel,59.97361161,,,,,,,,,,,,,,,,,,,,,,,,,,,,,,,,,,,,,,,,,,,,,,,,,,,,,,,,,,,,,,,,,,,,,,right,1,0.4731,,,,,,physical,8,9,8 | 9,1,0.05,0.065,congruent,right,0,19,19,3,1,,,,,,,,,,,,,,,,,,,,,,,,,,,,,,,,,,,,,,,,,,,,,,,,,,,,,,,,,,,,,,,,,,,,,,,,,,,,,,,,,,,
,8665,BAC,13/05/2003,001,2023-05-25_18h26.57.087,OS3_Mult_verification,2022.2.4,MacIntel,59.97361161,,,,,,,,,,,,,,,,,,,,,,,,,,,,,,,,,,,,,,,,,,,,,,,,,,,,,,,,,,,,,,,,,,,,,,right,1,0.6102,,,,,,physical,7,6,7 | 6,1,0.05,0.065,incongruent,right,0,20,20,30,1,,,,,,,,,,,,,,,,,,,,,,,,,,,,,,,,,,,,,,,,,,,,,,,,,,,,,,,,,,,,,,,,,,,,,,,,,,,,,,,,,,,
,8665,BAC,13/05/2003,001,2023-05-25_18h26.57.087,OS3_Mult_verification,2022.2.4,MacIntel,59.97361161,,,,,,,,,,,,,,,,,,,,,,,,,,,,,,,,,,,,,,,,,,,,,,,,,,,,,,,,,,,,,,,,,,,,,,left,1,0.5283,,,,,,physical,9,8,9 | 8,1,0.065,0.05,congruent,left,0,21,21,7,1,,,,,,,,,,,,,,,,,,,,,,,,,,,,,,,,,,,,,,,,,,,,,,,,,,,,,,,,,,,,,,,,,,,,,,,,,,,,,,,,,,,
,8665,BAC,13/05/2003,001,2023-05-25_18h26.57.087,OS3_Mult_verification,2022.2.4,MacIntel,59.97361161,,,,,,,,,,,,,,,,,,,,,,,,,,,,,,,,,,,,,,,,,,,,,,,,,,,,,,,,,,,,,,,,,,,,,,right,1,0.5162,,,,,,physical,9,9,9 | 9,0,0.05,0.065,neutral,right,0,22,22,71,1,,,,,,,,,,,,,,,,,,,,,,,,,,,,,,,,,,,,,,,,,,,,,,,,,,,,,,,,,,,,,,,,,,,,,,,,,,,,,,,,,,,
,8665,BAC,13/05/2003,001,2023-05-25_18h26.57.087,OS3_Mult_verification,2022.2.4,MacIntel,59.97361161,,,,,,,,,,,,,,,,,,,,,,,,,,,,,,,,,,,,,,,,,,,,,,,,,,,,,,,,,,,,,,,,,,,,,,left,1,0.4124,,,,,,physical,2,2,2 | 2,0,0.065,0.05,neutral,left,0,23,23,52,1,,,,,,,,,,,,,,,,,,,,,,,,,,,,,,,,,,,,,,,,,,,,,,,,,,,,,,,,,,,,,,,,,,,,,,,,,,,,,,,,,,,
,8665,BAC,13/05/2003,001,2023-05-25_18h26.57.087,OS3_Mult_verification,2022.2.4,MacIntel,59.97361161,,,,,,,,,,,,,,,,,,,,,,,,,,,,,,,,,,,,,,,,,,,,,,,,,,,,,,,,,,,,,,,,,,,,,,left,1,0.5467,,,,,,physical,8,6,8 | 6,2,0.065,0.05,congruent,left,0,24,24,14,1,,,,,,,,,,,,,,,,,,,,,,,,,,,,,,,,,,,,,,,,,,,,,,,,,,,,,,,,,,,,,,,,,,,,,,,,,,,,,,,,,,,
,8665,BAC,13/05/2003,001,2023-05-25_18h26.57.087,OS3_Mult_verification,2022.2.4,MacIntel,59.97361161,,,,,,,,,,,,,,,,,,,,,,,,,,,,,,,,,,,,,,,,,,,,,,,,,,,,,,,,,,,,,,,,,,,,,,left,1,0.7112,,,,,,physical,9,4,9 | 4,5,0.065,0.05,congruent,left,0,25,25,23,1,,,,,,,,,,,,,,,,,,,,,,,,,,,,,,,,,,,,,,,,,,,,,,,,,,,,,,,,,,,,,,,,,,,,,,,,,,,,,,,,,,,
,8665,BAC,13/05/2003,001,2023-05-25_18h26.57.087,OS3_Mult_verification,2022.2.4,MacIntel,59.97361161,,,,,,,,,,,,,,,,,,,,,,,,,,,,,,,,,,,,,,,,,,,,,,,,,,,,,,,,,,,,,,,,,,,,,,right,1,0.5503,,,,,,physical,1,1,1 | 1,0,0.05,0.065,neutral,right,0,26,26,56,1,,,,,,,,,,,,,,,,,,,,,,,,,,,,,,,,,,,,,,,,,,,,,,,,,,,,,,,,,,,,,,,,,,,,,,,,,,,,,,,,,,,
,8665,BAC,13/05/2003,001,2023-05-25_18h26.57.087,OS3_Mult_verification,2022.2.4,MacIntel,59.97361161,,,,,,,,,,,,,,,,,,,,,,,,,,,,,,,,,,,,,,,,,,,,,,,,,,,,,,,,,,,,,,,,,,,,,,left,1,0.6052,,,,,,physical,3,3,3 | 3,0,0.065,0.05,neutral,left,0,27,27,66,1,,,,,,,,,,,,,,,,,,,,,,,,,,,,,,,,,,,,,,,,,,,,,,,,,,,,,,,,,,,,,,,,,,,,,,,,,,,,,,,,,,,
,8665,BAC,13/05/2003,001,2023-05-25_18h26.57.087,OS3_Mult_verification,2022.2.4,MacIntel,59.97361161,,,,,,,,,,,,,,,,,,,,,,,,,,,,,,,,,,,,,,,,,,,,,,,,,,,,,,,,,,,,,,,,,,,,,,left,1,0.5423,,,,,,physical,6,6,6 | 6,0,0.065,0.05,neutral,left,0,28,28,50,1,,,,,,,,,,,,,,,,,,,,,,,,,,,,,,,,,,,,,,,,,,,,,,,,,,,,,,,,,,,,,,,,,,,,,,,,,,,,,,,,,,,
,8665,BAC,13/05/2003,001,2023-05-25_18h26.57.087,OS3_Mult_verification,2022.2.4,MacIntel,59.97361161,,,,,,,,,,,,,,,,,,,,,,,,,,,,,,,,,,,,,,,,,,,,,,,,,,,,,,,,,,,,,,,,,,,,,,right,1,0.5155,,,,,,physical,8,8,8 | 8,0,0.05,0.065,neutral,right,0,29,29,62,1,,,,,,,,,,,,,,,,,,,,,,,,,,,,,,,,,,,,,,,,,,,,,,,,,,,,,,,,,,,,,,,,,,,,,,,,,,,,,,,,,,,
,8665,BAC,13/05/2003,001,2023-05-25_18h26.57.087,OS3_Mult_verification,2022.2.4,MacIntel,59.97361161,,,,,,,,,,,,,,,,,,,,,,,,,,,,,,,,,,,,,,,,,,,,,,,,,,,,,,,,,,,,,,,,,,,,,,left,1,0.4929,,,,,,physical,2,4,2 | 4,2,0.065,0.05,incongruent,left,0,30,30,33,1,,,,,,,,,,,,,,,,,,,,,,,,,,,,,,,,,,,,,,,,,,,,,,,,,,,,,,,,,,,,,,,,,,,,,,,,,,,,,,,,,,,
,8665,BAC,13/05/2003,001,2023-05-25_18h26.57.087,OS3_Mult_verification,2022.2.4,MacIntel,59.97361161,,,,,,,,,,,,,,,,,,,,,,,,,,,,,,,,,,,,,,,,,,,,,,,,,,,,,,,,,,,,,,,,,,,,,,left,1,0.51,,,,,,physical,4,9,4 | 9,5,0.065,0.05,incongruent,left,0,31,31,43,1,,,,,,,,,,,,,,,,,,,,,,,,,,,,,,,,,,,,,,,,,,,,,,,,,,,,,,,,,,,,,,,,,,,,,,,,,,,,,,,,,,,
,8665,BAC,13/05/2003,001,2023-05-25_18h26.57.087,OS3_Mult_verification,2022.2.4,MacIntel,59.97361161,,,,,,,,,,,,,,,,,,,,,,,,,,,,,,,,,,,,,,,,,,,,,,,,,,,,,,,,,,,,,,,,,,,,,,right,1,0.5431,,,,,,physical,2,2,2 | 2,0,0.05,0.065,neutral,right,0,32,32,65,1,,,,,,,,,,,,,,,,,,,,,,,,,,,,,,,,,,,,,,,,,,,,,,,,,,,,,,,,,,,,,,,,,,,,,,,,,,,,,,,,,,,
,8665,BAC,13/05/2003,001,2023-05-25_18h26.57.087,OS3_Mult_verification,2022.2.4,MacIntel,59.97361161,,,,,,,,,,,,,,,,,,,,,,,,,,,,,,,,,,,,,,,,,,,,,,,,,,,,,,,,,,,,,,,,,,,,,,right,1,0.6646,,,,,,physical,4,2,4 | 2,2,0.05,0.065,incongruent,right,0,33,33,37,1,,,,,,,,,,,,,,,,,,,,,,,,,,,,,,,,,,,,,,,,,,,,,,,,,,,,,,,,,,,,,,,,,,,,,,,,,,,,,,,,,,,
,8665,BAC,13/05/2003,001,2023-05-25_18h26.57.087,OS3_Mult_verification,2022.2.4,MacIntel,59.97361161,,,,,,,,,,,,,,,,,,,,,,,,,,,,,,,,,,,,,,,,,,,,,,,,,,,,,,,,,,,,,,,,,,,,,,right,1,1.1675,,,,,,physical,9,4,9 | 4,5,0.05,0.065,incongruent,right,0,34,34,47,1,,,,,,,,,,,,,,,,,,,,,,,,,,,,,,,,,,,,,,,,,,,,,,,,,,,,,,,,,,,,,,,,,,,,,,,,,,,,,,,,,,,
,8665,BAC,13/05/2003,001,2023-05-25_18h26.57.087,OS3_Mult_verification,2022.2.4,MacIntel,59.97361161,,,,,,,,,,,,,,,,,,,,,,,,,,,,,,,,,,,,,,,,,,,,,,,,,,,,,,,,,,,,,,,,,,,,,,left,1,0.5114,,,,,,physical,8,8,8 | 8,0,0.065,0.05,neutral,left,0,35,35,51,1,,,,,,,,,,,,,,,,,,,,,,,,,,,,,,,,,,,,,,,,,,,,,,,,,,,,,,,,,,,,,,,,,,,,,,,,,,,,,,,,,,,
,8665,BAC,13/05/2003,001,2023-05-25_18h26.57.087,OS3_Mult_verification,2022.2.4,MacIntel,59.97361161,,,,,,,,,,,,,,,,,,,,,,,,,,,,,,,,,,,,,,,,,,,,,,,,,,,,,,,,,,,,,,,,,,,,,,right,1,0.7583,,,,,,physical,2,7,2 | 7,5,0.05,0.065,congruent,right,0,36,36,17,1,,,,,,,,,,,,,,,,,,,,,,,,,,,,,,,,,,,,,,,,,,,,,,,,,,,,,,,,,,,,,,,,,,,,,,,,,,,,,,,,,,,
,8665,BAC,13/05/2003,001,2023-05-25_18h26.57.087,OS3_Mult_verification,2022.2.4,MacIntel,59.97361161,,,,,,,,,,,,,,,,,,,,,,,,,,,,,,,,,,,,,,,,,,,,,,,,,,,,,,,,,,,,,,,,,,,,,,right,1,0.8003,,,,,,physical,6,1,6 | 1,5,0.05,0.065,incongruent,right,0,37,37,44,1,,,,,,,,,,,,,,,,,,,,,,,,,,,,,,,,,,,,,,,,,,,,,,,,,,,,,,,,,,,,,,,,,,,,,,,,,,,,,,,,,,,
,8665,BAC,13/05/2003,001,2023-05-25_18h26.57.087,OS3_Mult_verification,2022.2.4,MacIntel,59.97361161,,,,,,,,,,,,,,,,,,,,,,,,,,,,,,,,,,,,,,,,,,,,,,,,,,,,,,,,,,,,,,,,,,,,,,right,1,0.8164,,,,,,physical,7,7,7 | 7,0,0.05,0.065,neutral,right,0,38,38,69,1,,,,,,,,,,,,,,,,,,,,,,,,,,,,,,,,,,,,,,,,,,,,,,,,,,,,,,,,,,,,,,,,,,,,,,,,,,,,,,,,,,,
,8665,BAC,13/05/2003,001,2023-05-25_18h26.57.087,OS3_Mult_verification,2022.2.4,MacIntel,59.97361161,,,,,,,,,,,,,,,,,,,,,,,,,,,,,,,,,,,,,,,,,,,,,,,,,,,,,,,,,,,,,,,,,,,,,,right,1,0.6216,,,,,,physical,8,6,8 | 6,2,0.05,0.065,incongruent,right,0,39,39,38,1,,,,,,,,,,,,,,,,,,,,,,,,,,,,,,,,,,,,,,,,,,,,,,,,,,,,,,,,,,,,,,,,,,,,,,,,,,,,,,,,,,,
,8665,BAC,13/05/2003,001,2023-05-25_18h26.57.087,OS3_Mult_verification,2022.2.4,MacIntel,59.97361161,,,,,,,,,,,,,,,,,,,,,,,,,,,,,,,,,,,,,,,,,,,,,,,,,,,,,,,,,,,,,,,,,,,,,,right,1,0.5622,,,,,,physical,7,2,7 | 2,5,0.05,0.065,incongruent,right,0,40,40,45,1,,,,,,,,,,,,,,,,,,,,,,,,,,,,,,,,,,,,,,,,,,,,,,,,,,,,,,,,,,,,,,,,,,,,,,,,,,,,,,,,,,,
,8665,BAC,13/05/2003,001,2023-05-25_18h26.57.087,OS3_Mult_verification,2022.2.4,MacIntel,59.97361161,,,,,,,,,,,,,,,,,,,,,,,,,,,,,,,,,,,,,,,,,,,,,,,,,,,,,,,,,,,,,,,,,,,,,,right,1,1.1526,,,,,,physical,7,9,7 | 9,2,0.05,0.065,congruent,right,0,41,41,11,1,,,,,,,,,,,,,,,,,,,,,,,,,,,,,,,,,,,,,,,,,,,,,,,,,,,,,,,,,,,,,,,,,,,,,,,,,,,,,,,,,,,
,8665,BAC,13/05/2003,001,2023-05-25_18h26.57.087,OS3_Mult_verification,2022.2.4,MacIntel,59.97361161,,,,,,,,,,,,,,,,,,,,,,,,,,,,,,,,,,,,,,,,,,,,,,,,,,,,,,,,,,,,,,,,,,,,,,right,1,0.5726,,,,,,physical,3,4,3 | 4,1,0.05,0.065,congruent,right,0,42,42,1,1,,,,,,,,,,,,,,,,,,,,,,,,,,,,,,,,,,,,,,,,,,,,,,,,,,,,,,,,,,,,,,,,,,,,,,,,,,,,,,,,,,,
,8665,BAC,13/05/2003,001,2023-05-25_18h26.57.087,OS3_Mult_verification,2022.2.4,MacIntel,59.97361161,,,,,,,,,,,,,,,,,,,,,,,,,,,,,,,,,,,,,,,,,,,,,,,,,,,,,,,,,,,,,,,,,,,,,,right,1,0.6446,,,,,,physical,6,8,6 | 8,2,0.05,0.065,congruent,right,0,43,43,10,1,,,,,,,,,,,,,,,,,,,,,,,,,,,,,,,,,,,,,,,,,,,,,,,,,,,,,,,,,,,,,,,,,,,,,,,,,,,,,,,,,,,
,8665,BAC,13/05/2003,001,2023-05-25_18h26.57.087,OS3_Mult_verification,2022.2.4,MacIntel,59.97361161,,,,,,,,,,,,,,,,,,,,,,,,,,,,,,,,,,,,,,,,,,,,,,,,,,,,,,,,,,,,,,,,,,,,,,right,1,0.6006,,,,,,physical,6,6,6 | 6,0,0.05,0.065,neutral,right,0,44,44,58,1,,,,,,,,,,,,,,,,,,,,,,,,,,,,,,,,,,,,,,,,,,,,,,,,,,,,,,,,,,,,,,,,,,,,,,,,,,,,,,,,,,,
,8665,BAC,13/05/2003,001,2023-05-25_18h26.57.087,OS3_Mult_verification,2022.2.4,MacIntel,59.97361161,,,,,,,,,,,,,,,,,,,,,,,,,,,,,,,,,,,,,,,,,,,,,,,,,,,,,,,,,,,,,,,,,,,,,,right,1,0.5052,,,,,,physical,4,4,4 | 4,0,0.05,0.065,neutral,right,0,45,45,67,1,,,,,,,,,,,,,,,,,,,,,,,,,,,,,,,,,,,,,,,,,,,,,,,,,,,,,,,,,,,,,,,,,,,,,,,,,,,,,,,,,,,
,8665,BAC,13/05/2003,001,2023-05-25_18h26.57.087,OS3_Mult_verification,2022.2.4,MacIntel,59.97361161,,,,,,,,,,,,,,,,,,,,,,,,,,,,,,,,,,,,,,,,,,,,,,,,,,,,,,,,,,,,,,,,,,,,,,right,1,0.5223,,,,,,physical,2,1,2 | 1,1,0.05,0.065,incongruent,right,0,46,46,28,1,,,,,,,,,,,,,,,,,,,,,,,,,,,,,,,,,,,,,,,,,,,,,,,,,,,,,,,,,,,,,,,,,,,,,,,,,,,,,,,,,,,
,8665,BAC,13/05/2003,001,2023-05-25_18h26.57.087,OS3_Mult_verification,2022.2.4,MacIntel,59.97361161,,,,,,,,,,,,,,,,,,,,,,,,,,,,,,,,,,,,,,,,,,,,,,,,,,,,,,,,,,,,,,,,,,,,,,left,1,0.5683,,,,,,physical,6,6,6 | 6,0,0.065,0.05,neutral,left,0,47,47,68,1,,,,,,,,,,,,,,,,,,,,,,,,,,,,,,,,,,,,,,,,,,,,,,,,,,,,,,,,,,,,,,,,,,,,,,,,,,,,,,,,,,,
,8665,BAC,13/05/2003,001,2023-05-25_18h26.57.087,OS3_Mult_verification,2022.2.4,MacIntel,59.97361161,,,,,,,,,,,,,,,,,,,,,,,,,,,,,,,,,,,,,,,,,,,,,,,,,,,,,,,,,,,,,,,,,,,,,,right,1,0.5455,,,,,,physical,2,4,2 | 4,2,0.05,0.065,congruent,right,0,48,48,9,1,,,,,,,,,,,,,,,,,,,,,,,,,,,,,,,,,,,,,,,,,,,,,,,,,,,,,,,,,,,,,,,,,,,,,,,,,,,,,,,,,,,
,8665,BAC,13/05/2003,001,2023-05-25_18h26.57.087,OS3_Mult_verification,2022.2.4,MacIntel,59.97361161,,,,,,,,,,,,,,,,,,,,,,,,,,,,,,,,,,,,,,,,,,,,,,,,,,,,,,,,,,,,,,,,,,,,,,right,1,1.5462,,,,,,physical,9,7,9 | 7,2,0.05,0.065,incongruent,right,0,49,49,39,1,,,,,,,,,,,,,,,,,,,,,,,,,,,,,,,,,,,,,,,,,,,,,,,,,,,,,,,,,,,,,,,,,,,,,,,,,,,,,,,,,,,
,8665,BAC,13/05/2003,001,2023-05-25_18h26.57.087,OS3_Mult_verification,2022.2.4,MacIntel,59.97361161,,,,,,,,,,,,,,,,,,,,,,,,,,,,,,,,,,,,,,,,,,,,,,,,,,,,,,,,,,,,,,,,,,,,,,left,1,0.5941,,,,,,physical,1,1,1 | 1,0,0.065,0.05,neutral,left,0,50,50,64,1,,,,,,,,,,,,,,,,,,,,,,,,,,,,,,,,,,,,,,,,,,,,,,,,,,,,,,,,,,,,,,,,,,,,,,,,,,,,,,,,,,,
,8665,BAC,13/05/2003,001,2023-05-25_18h26.57.087,OS3_Mult_verification,2022.2.4,MacIntel,59.97361161,,,,,,,,,,,,,,,,,,,,,,,,,,,,,,,,,,,,,,,,,,,,,,,,,,,,,,,,,,,,,,,,,,,,,,left,1,0.9301,,,,,,physical,9,7,9 | 7,2,0.065,0.05,congruent,left,0,51,51,15,1,,,,,,,,,,,,,,,,,,,,,,,,,,,,,,,,,,,,,,,,,,,,,,,,,,,,,,,,,,,,,,,,,,,,,,,,,,,,,,,,,,,
,8665,BAC,13/05/2003,001,2023-05-25_18h26.57.087,OS3_Mult_verification,2022.2.4,MacIntel,59.97361161,,,,,,,,,,,,,,,,,,,,,,,,,,,,,,,,,,,,,,,,,,,,,,,,,,,,,,,,,,,,,,,,,,,,,,left,1,0.516,,,,,,physical,7,2,7 | 2,5,0.065,0.05,congruent,left,0,52,52,21,1,,,,,,,,,,,,,,,,,,,,,,,,,,,,,,,,,,,,,,,,,,,,,,,,,,,,,,,,,,,,,,,,,,,,,,,,,,,,,,,,,,,
,8665,BAC,13/05/2003,001,2023-05-25_18h26.57.087,OS3_Mult_verification,2022.2.4,MacIntel,59.97361161,,,,,,,,,,,,,,,,,,,,,,,,,,,,,,,,,,,,,,,,,,,,,,,,,,,,,,,,,,,,,,,,,,,,,,left,1,0.4795,,,,,,physical,6,8,6 | 8,2,0.065,0.05,incongruent,left,0,53,53,34,1,,,,,,,,,,,,,,,,,,,,,,,,,,,,,,,,,,,,,,,,,,,,,,,,,,,,,,,,,,,,,,,,,,,,,,,,,,,,,,,,,,,
,8665,BAC,13/05/2003,001,2023-05-25_18h26.57.087,OS3_Mult_verification,2022.2.4,MacIntel,59.97361161,,,,,,,,,,,,,,,,,,,,,,,,,,,,,,,,,,,,,,,,,,,,,,,,,,,,,,,,,,,,,,,,,,,,,,left,1,0.3859,,,,,,physical,6,7,6 | 7,1,0.065,0.05,incongruent,left,0,54,54,26,1,,,,,,,,,,,,,,,,,,,,,,,,,,,,,,,,,,,,,,,,,,,,,,,,,,,,,,,,,,,,,,,,,,,,,,,,,,,,,,,,,,,
,8665,BAC,13/05/2003,001,2023-05-25_18h26.57.087,OS3_Mult_verification,2022.2.4,MacIntel,59.97361161,,,,,,,,,,,,,,,,,,,,,,,,,,,,,,,,,,,,,,,,,,,,,,,,,,,,,,,,,,,,,,,,,,,,,,left,1,0.7215,,,,,,physical,8,9,8 | 9,1,0.065,0.05,incongruent,left,0,55,55,27,1,,,,,,,,,,,,,,,,,,,,,,,,,,,,,,,,,,,,,,,,,,,,,,,,,,,,,,,,,,,,,,,,,,,,,,,,,,,,,,,,,,,
,8665,BAC,13/05/2003,001,2023-05-25_18h26.57.087,OS3_Mult_verification,2022.2.4,MacIntel,59.97361161,,,,,,,,,,,,,,,,,,,,,,,,,,,,,,,,,,,,,,,,,,,,,,,,,,,,,,,,,,,,,,,,,,,,,,left,1,0.7497,,,,,,physical,8,8,8 | 8,0,0.065,0.05,neutral,left,0,56,56,70,1,,,,,,,,,,,,,,,,,,,,,,,,,,,,,,,,,,,,,,,,,,,,,,,,,,,,,,,,,,,,,,,,,,,,,,,,,,,,,,,,,,,
,8665,BAC,13/05/2003,001,2023-05-25_18h26.57.087,OS3_Mult_verification,2022.2.4,MacIntel,59.97361161,,,,,,,,,,,,,,,,,,,,,,,,,,,,,,,,,,,,,,,,,,,,,,,,,,,,,,,,,,,,,,,,,,,,,,left,1,0.5296,,,,,,physical,2,7,2 | 7,5,0.065,0.05,incongruent,left,0,57,57,41,1,,,,,,,,,,,,,,,,,,,,,,,,,,,,,,,,,,,,,,,,,,,,,,,,,,,,,,,,,,,,,,,,,,,,,,,,,,,,,,,,,,,
,8665,BAC,13/05/2003,001,2023-05-25_18h26.57.087,OS3_Mult_verification,2022.2.4,MacIntel,59.97361161,,,,,,,,,,,,,,,,,,,,,,,,,,,,,,,,,,,,,,,,,,,,,,,,,,,,,,,,,,,,,,,,,,,,,,left,1,0.6567,,,,,,physical,3,4,3 | 4,1,0.065,0.05,incongruent,left,0,58,58,25,1,,,,,,,,,,,,,,,,,,,,,,,,,,,,,,,,,,,,,,,,,,,,,,,,,,,,,,,,,,,,,,,,,,,,,,,,,,,,,,,,,,,
,8665,BAC,13/05/2003,001,2023-05-25_18h26.57.087,OS3_Mult_verification,2022.2.4,MacIntel,59.97361161,,,,,,,,,,,,,,,,,,,,,,,,,,,,,,,,,,,,,,,,,,,,,,,,,,,,,,,,,,,,,,,,,,,,,,left,1,0.5804,,,,,,physical,1,1,1 | 1,0,0.065,0.05,neutral,left,0,59,59,48,1,,,,,,,,,,,,,,,,,,,,,,,,,,,,,,,,,,,,,,,,,,,,,,,,,,,,,,,,,,,,,,,,,,,,,,,,,,,,,,,,,,,
,8665,BAC,13/05/2003,001,2023-05-25_18h26.57.087,OS3_Mult_verification,2022.2.4,MacIntel,59.97361161,,,,,,,,,,,,,,,,,,,,,,,,,,,,,,,,,,,,,,,,,,,,,,,,,,,,,,,,,,,,,,,,,,,,,,left,1,0.5487,,,,,,physical,1,2,1 | 2,1,0.065,0.05,incongruent,left,0,60,60,24,1,,,,,,,,,,,,,,,,,,,,,,,,,,,,,,,,,,,,,,,,,,,,,,,,,,,,,,,,,,,,,,,,,,,,,,,,,,,,,,,,,,,
,8665,BAC,13/05/2003,001,2023-05-25_18h26.57.087,OS3_Mult_verification,2022.2.4,MacIntel,59.97361161,,,,,,,,,,,,,,,,,,,,,,,,,,,,,,,,,,,,,,,,,,,,,,,,,,,,,,,,,,,,,,,,,,,,,,left,1,0.416,,,,,,physical,1,3,1 | 3,2,0.065,0.05,incongruent,left,0,61,61,32,1,,,,,,,,,,,,,,,,,,,,,,,,,,,,,,,,,,,,,,,,,,,,,,,,,,,,,,,,,,,,,,,,,,,,,,,,,,,,,,,,,,,
,8665,BAC,13/05/2003,001,2023-05-25_18h26.57.087,OS3_Mult_verification,2022.2.4,MacIntel,59.97361161,,,,,,,,,,,,,,,,,,,,,,,,,,,,,,,,,,,,,,,,,,,,,,,,,,,,,,,,,,,,,,,,,,,,,,right,1,0.7729,,,,,,physical,1,3,1 | 3,2,0.05,0.065,congruent,right,0,62,62,8,1,,,,,,,,,,,,,,,,,,,,,,,,,,,,,,,,,,,,,,,,,,,,,,,,,,,,,,,,,,,,,,,,,,,,,,,,,,,,,,,,,,,
,8665,BAC,13/05/2003,001,2023-05-25_18h26.57.087,OS3_Mult_verification,2022.2.4,MacIntel,59.97361161,,,,,,,,,,,,,,,,,,,,,,,,,,,,,,,,,,,,,,,,,,,,,,,,,,,,,,,,,,,,,,,,,,,,,,left,1,0.6464,,,,,,physical,1,6,1 | 6,5,0.065,0.05,incongruent,left,0,63,63,40,1,,,,,,,,,,,,,,,,,,,,,,,,,,,,,,,,,,,,,,,,,,,,,,,,,,,,,,,,,,,,,,,,,,,,,,,,,,,,,,,,,,,
,8665,BAC,13/05/2003,001,2023-05-25_18h26.57.087,OS3_Mult_verification,2022.2.4,MacIntel,59.97361161,,,,,,,,,,,,,,,,,,,,,,,,,,,,,,,,,,,,,,,,,,,,,,,,,,,,,,,,,,,,,,,,,,,,,,right,1,0.6425,,,,,,physical,7,7,7 | 7,0,0.05,0.065,neutral,right,0,64,64,59,1,,,,,,,,,,,,,,,,,,,,,,,,,,,,,,,,,,,,,,,,,,,,,,,,,,,,,,,,,,,,,,,,,,,,,,,,,,,,,,,,,,,
,8665,BAC,13/05/2003,001,2023-05-25_18h26.57.087,OS3_Mult_verification,2022.2.4,MacIntel,59.97361161,,,,,,,,,,,,,,,,,,,,,,,,,,,,,,,,,,,,,,,,,,,,,,,,,,,,,,,,,,,,,,,,,,,,,,right,1,0.6441,,,,,,physical,4,9,4 | 9,5,0.05,0.065,congruent,right,0,65,65,19,1,,,,,,,,,,,,,,,,,,,,,,,,,,,,,,,,,,,,,,,,,,,,,,,,,,,,,,,,,,,,,,,,,,,,,,,,,,,,,,,,,,,
,8665,BAC,13/05/2003,001,2023-05-25_18h26.57.087,OS3_Mult_verification,2022.2.4,MacIntel,59.97361161,,,,,,,,,,,,,,,,,,,,,,,,,,,,,,,,,,,,,,,,,,,,,,,,,,,,,,,,,,,,,,,,,,,,,,left,1,0.5436,,,,,,physical,4,4,4 | 4,0,0.065,0.05,neutral,left,0,66,66,53,1,,,,,,,,,,,,,,,,,,,,,,,,,,,,,,,,,,,,,,,,,,,,,,,,,,,,,,,,,,,,,,,,,,,,,,,,,,,,,,,,,,,
,8665,BAC,13/05/2003,001,2023-05-25_18h26.57.087,OS3_Mult_verification,2022.2.4,MacIntel,59.97361161,,,,,,,,,,,,,,,,,,,,,,,,,,,,,,,,,,,,,,,,,,,,,,,,,,,,,,,,,,,,,,,,,,,,,,left,1,0.522,,,,,,physical,7,7,7 | 7,0,0.065,0.05,neutral,left,0,67,67,54,1,,,,,,,,,,,,,,,,,,,,,,,,,,,,,,,,,,,,,,,,,,,,,,,,,,,,,,,,,,,,,,,,,,,,,,,,,,,,,,,,,,,
,8665,BAC,13/05/2003,001,2023-05-25_18h26.57.087,OS3_Mult_verification,2022.2.4,MacIntel,59.97361161,,,,,,,,,,,,,,,,,,,,,,,,,,,,,,,,,,,,,,,,,,,,,,,,,,,,,,,,,,,,,,,,,,,,,,left,1,0.781,,,,,,physical,9,9,9 | 9,0,0.065,0.05,neutral,left,0,68,68,55,1,,,,,,,,,,,,,,,,,,,,,,,,,,,,,,,,,,,,,,,,,,,,,,,,,,,,,,,,,,,,,,,,,,,,,,,,,,,,,,,,,,,
,8665,BAC,13/05/2003,001,2023-05-25_18h26.57.087,OS3_Mult_verification,2022.2.4,MacIntel,59.97361161,,,,,,,,,,,,,,,,,,,,,,,,,,,,,,,,,,,,,,,,,,,,,,,,,,,,,,,,,,,,,,,,,,,,,,left,1,0.8332,,,,,,physical,4,2,4 | 2,2,0.065,0.05,congruent,left,0,69,69,13,1,,,,,,,,,,,,,,,,,,,,,,,,,,,,,,,,,,,,,,,,,,,,,,,,,,,,,,,,,,,,,,,,,,,,,,,,,,,,,,,,,,,
,8665,BAC,13/05/2003,001,2023-05-25_18h26.57.087,OS3_Mult_verification,2022.2.4,MacIntel,59.97361161,,,,,,,,,,,,,,,,,,,,,,,,,,,,,,,,,,,,,,,,,,,,,,,,,,,,,,,,,,,,,,,,,,,,,,left,1,0.6318,,,,,,physical,3,3,3 | 3,0,0.065,0.05,neutral,left,0,70,70,49,1,,,,,,,,,,,,,,,,,,,,,,,,,,,,,,,,,,,,,,,,,,,,,,,,,,,,,,,,,,,,,,,,,,,,,,,,,,,,,,,,,,,
,8665,BAC,13/05/2003,001,2023-05-25_18h26.57.087,OS3_Mult_verification,2022.2.4,MacIntel,59.97361161,,,,,,,,,,,,,,,,,,,,,,,,,,,,,,,,,,,,,,,,,,,,,,,,,,,,,,,,,,,,,,,,,,,,,,right,1,0.522,,,,,,physical,9,8,9 | 8,1,0.05,0.065,incongruent,right,0,71,71,31,1,,,,,,,,,,,,,,,,,,,,,,,,,,,,,,,,,,,,,,,,,,,,,,,,,,,,,,,,,,,,,,,,,,,,,,,,,,,,,,,,,,,
,8665,BAC,13/05/2003,001,2023-05-25_18h26.57.087,OS3_Mult_verification,2022.2.4,MacIntel,59.97361161,,,,,,,,,,,,,,,,,,,,,,,,,,,,,,,,,,,,,,,,,,,,,,,,,,,,,,,,,,,,,,,,,,,,,,,,,,,,,,,,,,,,,,,,,,,,0,0,0,1,1,stroop_stim/physical.xlsx,stroop_stim/prac_physical.xlsx,PHYSICALLY larger (larger font size).,images/physicallyLarger.png,,,,,,,,,,,,,,,,,,,,,,,,,,,,,,,,,,,,,,,,,,,,,,,,,,,,,,,,,,,,,,,,,,,,,,,,,,
,8665,BAC,13/05/2003,001,2023-05-25_18h26.57.087,OS3_Mult_verification,2022.2.4,MacIntel,59.97361161,,,,,,,,,,,,,,,,space,1.3989,,,,,,,,,,,,,,,,,,,,,,,,,,,,,,,,,,,,,,,,,,,,,,,,,,,,,right,1,1.0951,0,0,0,1,1,practice,7,8,7 | 8,1,0.065,0.05,incongruent,right,,,,,,,,,,,,,,,,,,,,,,,,,,,,,,,,,,,,,,,,,,,,,,,,,,,,,,,,,,,,,,,,,,,,,,,,,,,,,,,,,,,,,,,,
,8665,BAC,13/05/2003,001,2023-05-25_18h26.57.087,OS3_Mult_verification,2022.2.4,MacIntel,59.97361161,,,,,,,,,,,,,,,,,,,,,,,,,,,,,,,,,,,,,,,,,,,,,,,,,,,,,,,,,,,,,,,,,,,,,,right,1,0.5655,0,1,1,0,1,practice,1,2,1 | 2,1,0.05,0.065,congruent,right,,,,,,,,,,,,,,,,,,,,,,,,,,,,,,,,,,,,,,,,,,,,,,,,,,,,,,,,,,,,,,,,,,,,,,,,,,,,,,,,,,,,,,,,
,8665,BAC,13/05/2003,001,2023-05-25_18h26.57.087,OS3_Mult_verification,2022.2.4,MacIntel,59.97361161,,,,,,,,,,,,,,,,,,,,,,,,,,,,,,,,,,,,,,,,,,,,,,,,,,,,,,,,,,,,,,,,,,,,,,right,1,0.7443,0,2,2,2,1,practice,4,9,4 | 9,5,0.06,0.06,neutral,right,,,,,,,,,,,,,,,,,,,,,,,,,,,,,,,,,,,,,,,,,,,,,,,,,,,,,,,,,,,,,,,,,,,,,,,,,,,,,,,,,,,,,,,,
,8665,BAC,13/05/2003,001,2023-05-25_18h26.57.087,OS3_Mult_verification,2022.2.4,MacIntel,59.97361161,,,,,,,,,,,,,,,,,,,,,,,,,,,,,,,,,,,,,,,,,,,,,,,,,,,,,,,,,,,,,,,,,,,,,,left,1,0.8286,,,,,,magnitude,9,7,9 | 7,2,0.065,0.05,congruent,left,0,0,0,15,1,,,,,,,,,,,,,,,,,,,,,,,,,,,,,,,,,,,,,,,,,,,,,,,,,,,,,,,,,,,,,,,,,,,,,,,,,,,,,,,,,,,
,8665,BAC,13/05/2003,001,2023-05-25_18h26.57.087,OS3_Mult_verification,2022.2.4,MacIntel,59.97361161,,,,,,,,,,,,,,,,,,,,,,,,,,,,,,,,,,,,,,,,,,,,,,,,,,,,,,,,,,,,,,,,,,,,,,left,1,0.814,,,,,,magnitude,6,1,6 | 1,5,0.05,0.065,incongruent,left,0,1,1,44,1,,,,,,,,,,,,,,,,,,,,,,,,,,,,,,,,,,,,,,,,,,,,,,,,,,,,,,,,,,,,,,,,,,,,,,,,,,,,,,,,,,,
,8665,BAC,13/05/2003,001,2023-05-25_18h26.57.087,OS3_Mult_verification,2022.2.4,MacIntel,59.97361161,,,,,,,,,,,,,,,,,,,,,,,,,,,,,,,,,,,,,,,,,,,,,,,,,,,,,,,,,,,,,,,,,,,,,,left,1,0.5937,,,,,,magnitude,4,3,4 | 3,1,0.065,0.05,congruent,left,0,2,2,5,1,,,,,,,,,,,,,,,,,,,,,,,,,,,,,,,,,,,,,,,,,,,,,,,,,,,,,,,,,,,,,,,,,,,,,,,,,,,,,,,,,,,
,8665,BAC,13/05/2003,001,2023-05-25_18h26.57.087,OS3_Mult_verification,2022.2.4,MacIntel,59.97361161,,,,,,,,,,,,,,,,,,,,,,,,,,,,,,,,,,,,,,,,,,,,,,,,,,,,,,,,,,,,,,,,,,,,,,left,1,0.5454,,,,,,magnitude,7,2,7 | 2,5,0.065,0.05,congruent,left,0,3,3,21,1,,,,,,,,,,,,,,,,,,,,,,,,,,,,,,,,,,,,,,,,,,,,,,,,,,,,,,,,,,,,,,,,,,,,,,,,,,,,,,,,,,,
,8665,BAC,13/05/2003,001,2023-05-25_18h26.57.087,OS3_Mult_verification,2022.2.4,MacIntel,59.97361161,,,,,,,,,,,,,,,,,,,,,,,,,,,,,,,,,,,,,,,,,,,,,,,,,,,,,,,,,,,,,,,,,,,,,,left,1,0.7167,,,,,,magnitude,7,6,7 | 6,1,0.065,0.05,congruent,left,0,4,4,6,1,,,,,,,,,,,,,,,,,,,,,,,,,,,,,,,,,,,,,,,,,,,,,,,,,,,,,,,,,,,,,,,,,,,,,,,,,,,,,,,,,,,
,8665,BAC,13/05/2003,001,2023-05-25_18h26.57.087,OS3_Mult_verification,2022.2.4,MacIntel,59.97361161,,,,,,,,,,,,,,,,,,,,,,,,,,,,,,,,,,,,,,,,,,,,,,,,,,,,,,,,,,,,,,,,,,,,,,right,1,0.524,,,,,,magnitude,2,7,2 | 7,5,0.06,0.06,neutral,right,0,5,5,65,1,,,,,,,,,,,,,,,,,,,,,,,,,,,,,,,,,,,,,,,,,,,,,,,,,,,,,,,,,,,,,,,,,,,,,,,,,,,,,,,,,,,
,8665,BAC,13/05/2003,001,2023-05-25_18h26.57.087,OS3_Mult_verification,2022.2.4,MacIntel,59.97361161,,,,,,,,,,,,,,,,,,,,,,,,,,,,,,,,,,,,,,,,,,,,,,,,,,,,,,,,,,,,,,,,,,,,,,right,1,0.8274,,,,,,magnitude,4,9,4 | 9,5,0.06,0.06,neutral,right,0,6,6,67,1,,,,,,,,,,,,,,,,,,,,,,,,,,,,,,,,,,,,,,,,,,,,,,,,,,,,,,,,,,,,,,,,,,,,,,,,,,,,,,,,,,,
,8665,BAC,13/05/2003,001,2023-05-25_18h26.57.087,OS3_Mult_verification,2022.2.4,MacIntel,59.97361161,,,,,,,,,,,,,,,,,,,,,,,,,,,,,,,,,,,,,,,,,,,,,,,,,,,,,,,,,,,,,,,,,,,,,,left,1,0.5617,,,,,,magnitude,8,3,8 | 3,5,0.065,0.05,congruent,left,0,7,7,22,1,,,,,,,,,,,,,,,,,,,,,,,,,,,,,,,,,,,,,,,,,,,,,,,,,,,,,,,,,,,,,,,,,,,,,,,,,,,,,,,,,,,
,8665,BAC,13/05/2003,001,2023-05-25_18h26.57.087,OS3_Mult_verification,2022.2.4,MacIntel,59.97361161,,,,,,,,,,,,,,,,,,,,,,,,,,,,,,,,,,,,,,,,,,,,,,,,,,,,,,,,,,,,,,,,,,,,,,right,1,0.8301,,,,,,magnitude,1,3,1 | 3,2,0.065,0.05,incongruent,right,0,8,8,32,1,,,,,,,,,,,,,,,,,,,,,,,,,,,,,,,,,,,,,,,,,,,,,,,,,,,,,,,,,,,,,,,,,,,,,,,,,,,,,,,,,,,
,8665,BAC,13/05/2003,001,2023-05-25_18h26.57.087,OS3_Mult_verification,2022.2.4,MacIntel,59.97361161,,,,,,,,,,,,,,,,,,,,,,,,,,,,,,,,,,,,,,,,,,,,,,,,,,,,,,,,,,,,,,,,,,,,,,right,1,1.0942,,,,,,magnitude,3,4,3 | 4,1,0.06,0.06,neutral,right,0,9,9,49,1,,,,,,,,,,,,,,,,,,,,,,,,,,,,,,,,,,,,,,,,,,,,,,,,,,,,,,,,,,,,,,,,,,,,,,,,,,,,,,,,,,,
,8665,BAC,13/05/2003,001,2023-05-25_18h26.57.087,OS3_Mult_verification,2022.2.4,MacIntel,59.97361161,,,,,,,,,,,,,,,,,,,,,,,,,,,,,,,,,,,,,,,,,,,,,,,,,,,,,,,,,,,,,,,,,,,,,,left,0,0.782,,,,,,magnitude,7,9,7 | 9,2,0.065,0.05,incongruent,right,0,10,10,35,1,,,,,,,,,,,,,,,,,,,,,,,,,,,,,,,,,,,,,,,,,,,,,,,,,,,,,,,,,,,,,,,,,,,,,,,,,,,,,,,,,,,
,8665,BAC,13/05/2003,001,2023-05-25_18h26.57.087,OS3_Mult_verification,2022.2.4,MacIntel,59.97361161,,,,,,,,,,,,,,,,,,,,,,,,,,,,,,,,,,,,,,,,,,,,,,,,,,,,,,,,,,,,,,,,,,,,,,right,1,0.9422,,,,,,magnitude,2,7,2 | 7,5,0.065,0.05,incongruent,right,0,11,11,41,1,,,,,,,,,,,,,,,,,,,,,,,,,,,,,,,,,,,,,,,,,,,,,,,,,,,,,,,,,,,,,,,,,,,,,,,,,,,,,,,,,,,
,8665,BAC,13/05/2003,001,2023-05-25_18h26.57.087,OS3_Mult_verification,2022.2.4,MacIntel,59.97361161,,,,,,,,,,,,,,,,,,,,,,,,,,,,,,,,,,,,,,,,,,,,,,,,,,,,,,,,,,,,,,,,,,,,,,left,1,0.9033,,,,,,magnitude,2,1,2 | 1,1,0.06,0.06,neutral,left,0,12,12,52,1,,,,,,,,,,,,,,,,,,,,,,,,,,,,,,,,,,,,,,,,,,,,,,,,,,,,,,,,,,,,,,,,,,,,,,,,,,,,,,,,,,,
,8665,BAC,13/05/2003,001,2023-05-25_18h26.57.087,OS3_Mult_verification,2022.2.4,MacIntel,59.97361161,,,,,,,,,,,,,,,,,,,,,,,,,,,,,,,,,,,,,,,,,,,,,,,,,,,,,,,,,,,,,,,,,,,,,,left,1,0.8706,,,,,,magnitude,7,6,7 | 6,1,0.05,0.065,incongruent,left,0,13,13,30,1,,,,,,,,,,,,,,,,,,,,,,,,,,,,,,,,,,,,,,,,,,,,,,,,,,,,,,,,,,,,,,,,,,,,,,,,,,,,,,,,,,,
,8665,BAC,13/05/2003,001,2023-05-25_18h26.57.087,OS3_Mult_verification,2022.2.4,MacIntel,59.97361161,,,,,,,,,,,,,,,,,,,,,,,,,,,,,,,,,,,,,,,,,,,,,,,,,,,,,,,,,,,,,,,,,,,,,,left,1,1.0309,,,,,,magnitude,3,1,3 | 1,2,0.05,0.065,incongruent,left,0,14,14,36,1,,,,,,,,,,,,,,,,,,,,,,,,,,,,,,,,,,,,,,,,,,,,,,,,,,,,,,,,,,,,,,,,,,,,,,,,,,,,,,,,,,,
,8665,BAC,13/05/2003,001,2023-05-25_18h26.57.087,OS3_Mult_verification,2022.2.4,MacIntel,59.97361161,,,,,,,,,,,,,,,,,,,,,,,,,,,,,,,,,,,,,,,,,,,,,,,,,,,,,,,,,,,,,,,,,,,,,,right,1,0.9494,,,,,,magnitude,1,2,1 | 2,1,0.065,0.05,incongruent,right,0,15,15,24,1,,,,,,,,,,,,,,,,,,,,,,,,,,,,,,,,,,,,,,,,,,,,,,,,,,,,,,,,,,,,,,,,,,,,,,,,,,,,,,,,,,,
,8665,BAC,13/05/2003,001,2023-05-25_18h26.57.087,OS3_Mult_verification,2022.2.4,MacIntel,59.97361161,,,,,,,,,,,,,,,,,,,,,,,,,,,,,,,,,,,,,,,,,,,,,,,,,,,,,,,,,,,,,,,,,,,,,,left,1,1.3453,,,,,,magnitude,8,3,8 | 3,5,0.06,0.06,neutral,left,0,16,16,70,1,,,,,,,,,,,,,,,,,,,,,,,,,,,,,,,,,,,,,,,,,,,,,,,,,,,,,,,,,,,,,,,,,,,,,,,,,,,,,,,,,,,
,8665,BAC,13/05/2003,001,2023-05-25_18h26.57.087,OS3_Mult_verification,2022.2.4,MacIntel,59.97361161,,,,,,,,,,,,,,,,,,,,,,,,,,,,,,,,,,,,,,,,,,,,,,,,,,,,,,,,,,,,,,,,,,,,,,left,1,0.6124,,,,,,magnitude,7,2,7 | 2,5,0.06,0.06,neutral,left,0,17,17,69,1,,,,,,,,,,,,,,,,,,,,,,,,,,,,,,,,,,,,,,,,,,,,,,,,,,,,,,,,,,,,,,,,,,,,,,,,,,,,,,,,,,,
,8665,BAC,13/05/2003,001,2023-05-25_18h26.57.087,OS3_Mult_verification,2022.2.4,MacIntel,59.97361161,,,,,,,,,,,,,,,,,,,,,,,,,,,,,,,,,,,,,,,,,,,,,,,,,,,,,,,,,,,,,,,,,,,,,,right,1,0.5124,,,,,,magnitude,1,3,1 | 3,2,0.05,0.065,congruent,right,0,18,18,8,1,,,,,,,,,,,,,,,,,,,,,,,,,,,,,,,,,,,,,,,,,,,,,,,,,,,,,,,,,,,,,,,,,,,,,,,,,,,,,,,,,,,
,8665,BAC,13/05/2003,001,2023-05-25_18h26.57.087,OS3_Mult_verification,2022.2.4,MacIntel,59.97361161,,,,,,,,,,,,,,,,,,,,,,,,,,,,,,,,,,,,,,,,,,,,,,,,,,,,,,,,,,,,,,,,,,,,,,right,1,0.5285,,,,,,magnitude,1,6,1 | 6,5,0.06,0.06,neutral,right,0,19,19,64,1,,,,,,,,,,,,,,,,,,,,,,,,,,,,,,,,,,,,,,,,,,,,,,,,,,,,,,,,,,,,,,,,,,,,,,,,,,,,,,,,,,,
,8665,BAC,13/05/2003,001,2023-05-25_18h26.57.087,OS3_Mult_verification,2022.2.4,MacIntel,59.97361161,,,,,,,,,,,,,,,,,,,,,,,,,,,,,,,,,,,,,,,,,,,,,,,,,,,,,,,,,,,,,,,,,,,,,,left,1,0.8323,,,,,,magnitude,9,8,9 | 8,1,0.06,0.06,neutral,left,0,20,20,55,1,,,,,,,,,,,,,,,,,,,,,,,,,,,,,,,,,,,,,,,,,,,,,,,,,,,,,,,,,,,,,,,,,,,,,,,,,,,,,,,,,,,
,8665,BAC,13/05/2003,001,2023-05-25_18h26.57.087,OS3_Mult_verification,2022.2.4,MacIntel,59.97361161,,,,,,,,,,,,,,,,,,,,,,,,,,,,,,,,,,,,,,,,,,,,,,,,,,,,,,,,,,,,,,,,,,,,,,left,1,0.6422,,,,,,magnitude,6,1,6 | 1,5,0.065,0.05,congruent,left,0,21,21,20,1,,,,,,,,,,,,,,,,,,,,,,,,,,,,,,,,,,,,,,,,,,,,,,,,,,,,,,,,,,,,,,,,,,,,,,,,,,,,,,,,,,,
,8665,BAC,13/05/2003,001,2023-05-25_18h26.57.087,OS3_Mult_verification,2022.2.4,MacIntel,59.97361161,,,,,,,,,,,,,,,,,,,,,,,,,,,,,,,,,,,,,,,,,,,,,,,,,,,,,,,,,,,,,,,,,,,,,,right,1,0.813,,,,,,magnitude,4,9,4 | 9,5,0.05,0.065,congruent,right,0,22,22,19,1,,,,,,,,,,,,,,,,,,,,,,,,,,,,,,,,,,,,,,,,,,,,,,,,,,,,,,,,,,,,,,,,,,,,,,,,,,,,,,,,,,,
,8665,BAC,13/05/2003,001,2023-05-25_18h26.57.087,OS3_Mult_verification,2022.2.4,MacIntel,59.97361161,,,,,,,,,,,,,,,,,,,,,,,,,,,,,,,,,,,,,,,,,,,,,,,,,,,,,,,,,,,,,,,,,,,,,,right,1,0.6818,,,,,,magnitude,2,7,2 | 7,5,0.05,0.065,congruent,right,0,23,23,17,1,,,,,,,,,,,,,,,,,,,,,,,,,,,,,,,,,,,,,,,,,,,,,,,,,,,,,,,,,,,,,,,,,,,,,,,,,,,,,,,,,,,
,8665,BAC,13/05/2003,001,2023-05-25_18h26.57.087,OS3_Mult_verification,2022.2.4,MacIntel,59.97361161,,,,,,,,,,,,,,,,,,,,,,,,,,,,,,,,,,,,,,,,,,,,,,,,,,,,,,,,,,,,,,,,,,,,,,left,1,0.5024,,,,,,magnitude,2,1,2 | 1,1,0.065,0.05,congruent,left,0,24,24,4,1,,,,,,,,,,,,,,,,,,,,,,,,,,,,,,,,,,,,,,,,,,,,,,,,,,,,,,,,,,,,,,,,,,,,,,,,,,,,,,,,,,,
,8665,BAC,13/05/2003,001,2023-05-25_18h26.57.087,OS3_Mult_verification,2022.2.4,MacIntel,59.97361161,,,,,,,,,,,,,,,,,,,,,,,,,,,,,,,,,,,,,,,,,,,,,,,,,,,,,,,,,,,,,,,,,,,,,,left,1,0.8123,,,,,,magnitude,3,1,3 | 1,2,0.06,0.06,neutral,left,0,25,25,60,1,,,,,,,,,,,,,,,,,,,,,,,,,,,,,,,,,,,,,,,,,,,,,,,,,,,,,,,,,,,,,,,,,,,,,,,,,,,,,,,,,,,
,8665,BAC,13/05/2003,001,2023-05-25_18h26.57.087,OS3_Mult_verification,2022.2.4,MacIntel,59.97361161,,,,,,,,,,,,,,,,,,,,,,,,,,,,,,,,,,,,,,,,,,,,,,,,,,,,,,,,,,,,,,,,,,,,,,right,1,0.7411,,,,,,magnitude,6,8,6 | 8,2,0.05,0.065,congruent,right,0,26,26,10,1,,,,,,,,,,,,,,,,,,,,,,,,,,,,,,,,,,,,,,,,,,,,,,,,,,,,,,,,,,,,,,,,,,,,,,,,,,,,,,,,,,,
,8665,BAC,13/05/2003,001,2023-05-25_18h26.57.087,OS3_Mult_verification,2022.2.4,MacIntel,59.97361161,,,,,,,,,,,,,,,,,,,,,,,,,,,,,,,,,,,,,,,,,,,,,,,,,,,,,,,,,,,,,,,,,,,,,,right,1,0.9631,,,,,,magnitude,8,9,8 | 9,1,0.05,0.065,congruent,right,0,27,27,3,1,,,,,,,,,,,,,,,,,,,,,,,,,,,,,,,,,,,,,,,,,,,,,,,,,,,,,,,,,,,,,,,,,,,,,,,,,,,,,,,,,,,
,8665,BAC,13/05/2003,001,2023-05-25_18h26.57.087,OS3_Mult_verification,2022.2.4,MacIntel,59.97361161,,,,,,,,,,,,,,,,,,,,,,,,,,,,,,,,,,,,,,,,,,,,,,,,,,,,,,,,,,,,,,,,,,,,,,left,1,0.9826,,,,,,magnitude,8,6,8 | 6,2,0.065,0.05,congruent,left,0,28,28,14,1,,,,,,,,,,,,,,,,,,,,,,,,,,,,,,,,,,,,,,,,,,,,,,,,,,,,,,,,,,,,,,,,,,,,,,,,,,,,,,,,,,,
,8665,BAC,13/05/2003,001,2023-05-25_18h26.57.087,OS3_Mult_verification,2022.2.4,MacIntel,59.97361161,,,,,,,,,,,,,,,,,,,,,,,,,,,,,,,,,,,,,,,,,,,,,,,,,,,,,,,,,,,,,,,,,,,,,,left,0,0.86,,,,,,magnitude,3,4,3 | 4,1,0.065,0.05,incongruent,right,0,29,29,25,1,,,,,,,,,,,,,,,,,,,,,,,,,,,,,,,,,,,,,,,,,,,,,,,,,,,,,,,,,,,,,,,,,,,,,,,,,,,,,,,,,,,
,8665,BAC,13/05/2003,001,2023-05-25_18h26.57.087,OS3_Mult_verification,2022.2.4,MacIntel,59.97361161,,,,,,,,,,,,,,,,,,,,,,,,,,,,,,,,,,,,,,,,,,,,,,,,,,,,,,,,,,,,,,,,,,,,,,right,1,1.2856,,,,,,magnitude,7,9,7 | 9,2,0.05,0.065,congruent,right,0,30,30,11,1,,,,,,,,,,,,,,,,,,,,,,,,,,,,,,,,,,,,,,,,,,,,,,,,,,,,,,,,,,,,,,,,,,,,,,,,,,,,,,,,,,,
,8665,BAC,13/05/2003,001,2023-05-25_18h26.57.087,OS3_Mult_verification,2022.2.4,MacIntel,59.97361161,,,,,,,,,,,,,,,,,,,,,,,,,,,,,,,,,,,,,,,,,,,,,,,,,,,,,,,,,,,,,,,,,,,,,,left,1,0.7927,,,,,,magnitude,4,2,4 | 2,2,0.05,0.065,incongruent,left,0,31,31,37,1,,,,,,,,,,,,,,,,,,,,,,,,,,,,,,,,,,,,,,,,,,,,,,,,,,,,,,,,,,,,,,,,,,,,,,,,,,,,,,,,,,,
,8665,BAC,13/05/2003,001,2023-05-25_18h26.57.087,OS3_Mult_verification,2022.2.4,MacIntel,59.97361161,,,,,,,,,,,,,,,,,,,,,,,,,,,,,,,,,,,,,,,,,,,,,,,,,,,,,,,,,,,,,,,,,,,,,,left,1,0.6065,,,,,,magnitude,4,2,4 | 2,2,0.065,0.05,congruent,left,0,32,32,13,1,,,,,,,,,,,,,,,,,,,,,,,,,,,,,,,,,,,,,,,,,,,,,,,,,,,,,,,,,,,,,,,,,,,,,,,,,,,,,,,,,,,
,8665,BAC,13/05/2003,001,2023-05-25_18h26.57.087,OS3_Mult_verification,2022.2.4,MacIntel,59.97361161,,,,,,,,,,,,,,,,,,,,,,,,,,,,,,,,,,,,,,,,,,,,,,,,,,,,,,,,,,,,,,,,,,,,,,right,1,1.1668,,,,,,magnitude,1,3,1 | 3,2,0.06,0.06,neutral,right,0,33,33,56,1,,,,,,,,,,,,,,,,,,,,,,,,,,,,,,,,,,,,,,,,,,,,,,,,,,,,,,,,,,,,,,,,,,,,,,,,,,,,,,,,,,,
,8665,BAC,13/05/2003,001,2023-05-25_18h26.57.087,OS3_Mult_verification,2022.2.4,MacIntel,59.97361161,,,,,,,,,,,,,,,,,,,,,,,,,,,,,,,,,,,,,,,,,,,,,,,,,,,,,,,,,,,,,,,,,,,,,,left,1,0.883,,,,,,magnitude,8,3,8 | 3,5,0.05,0.065,incongruent,left,0,34,34,46,1,,,,,,,,,,,,,,,,,,,,,,,,,,,,,,,,,,,,,,,,,,,,,,,,,,,,,,,,,,,,,,,,,,,,,,,,,,,,,,,,,,,
,8665,BAC,13/05/2003,001,2023-05-25_18h26.57.087,OS3_Mult_verification,2022.2.4,MacIntel,59.97361161,,,,,,,,,,,,,,,,,,,,,,,,,,,,,,,,,,,,,,,,,,,,,,,,,,,,,,,,,,,,,,,,,,,,,,right,1,0.6319,,,,,,magnitude,1,6,1 | 6,5,0.05,0.065,congruent,right,0,35,35,16,1,,,,,,,,,,,,,,,,,,,,,,,,,,,,,,,,,,,,,,,,,,,,,,,,,,,,,,,,,,,,,,,,,,,,,,,,,,,,,,,,,,,
,8665,BAC,13/05/2003,001,2023-05-25_18h26.57.087,OS3_Mult_verification,2022.2.4,MacIntel,59.97361161,,,,,,,,,,,,,,,,,,,,,,,,,,,,,,,,,,,,,,,,,,,,,,,,,,,,,,,,,,,,,,,,,,,,,,right,1,1.3127,,,,,,magnitude,1,2,1 | 2,1,0.06,0.06,neutral,right,0,36,36,48,1,,,,,,,,,,,,,,,,,,,,,,,,,,,,,,,,,,,,,,,,,,,,,,,,,,,,,,,,,,,,,,,,,,,,,,,,,,,,,,,,,,,
,8665,BAC,13/05/2003,001,2023-05-25_18h26.57.087,OS3_Mult_verification,2022.2.4,MacIntel,59.97361161,,,,,,,,,,,,,,,,,,,,,,,,,,,,,,,,,,,,,,,,,,,,,,,,,,,,,,,,,,,,,,,,,,,,,,right,1,0.9471,,,,,,magnitude,2,4,2 | 4,2,0.065,0.05,incongruent,right,0,37,37,33,1,,,,,,,,,,,,,,,,,,,,,,,,,,,,,,,,,,,,,,,,,,,,,,,,,,,,,,,,,,,,,,,,,,,,,,,,,,,,,,,,,,,
,8665,BAC,13/05/2003,001,2023-05-25_18h26.57.087,OS3_Mult_verification,2022.2.4,MacIntel,59.97361161,,,,,,,,,,,,,,,,,,,,,,,,,,,,,,,,,,,,,,,,,,,,,,,,,,,,,,,,,,,,,,,,,,,,,,left,1,0.581,,,,,,magnitude,4,3,4 | 3,1,0.05,0.065,incongruent,left,0,38,38,29,1,,,,,,,,,,,,,,,,,,,,,,,,,,,,,,,,,,,,,,,,,,,,,,,,,,,,,,,,,,,,,,,,,,,,,,,,,,,,,,,,,,,
,8665,BAC,13/05/2003,001,2023-05-25_18h26.57.087,OS3_Mult_verification,2022.2.4,MacIntel,59.97361161,,,,,,,,,,,,,,,,,,,,,,,,,,,,,,,,,,,,,,,,,,,,,,,,,,,,,,,,,,,,,,,,,,,,,,right,1,0.7313,,,,,,magnitude,3,8,3 | 8,5,0.06,0.06,neutral,right,0,39,39,66,1,,,,,,,,,,,,,,,,,,,,,,,,,,,,,,,,,,,,,,,,,,,,,,,,,,,,,,,,,,,,,,,,,,,,,,,,,,,,,,,,,,,
,8665,BAC,13/05/2003,001,2023-05-25_18h26.57.087,OS3_Mult_verification,2022.2.4,MacIntel,59.97361161,,,,,,,,,,,,,,,,,,,,,,,,,,,,,,,,,,,,,,,,,,,,,,,,,,,,,,,,,,,,,,,,,,,,,,right,1,0.6004,,,,,,magnitude,1,2,1 | 2,1,0.05,0.065,congruent,right,0,40,40,0,1,,,,,,,,,,,,,,,,,,,,,,,,,,,,,,,,,,,,,,,,,,,,,,,,,,,,,,,,,,,,,,,,,,,,,,,,,,,,,,,,,,,
,8665,BAC,13/05/2003,001,2023-05-25_18h26.57.087,OS3_Mult_verification,2022.2.4,MacIntel,59.97361161,,,,,,,,,,,,,,,,,,,,,,,,,,,,,,,,,,,,,,,,,,,,,,,,,,,,,,,,,,,,,,,,,,,,,,left,1,1.1663,,,,,,magnitude,7,2,7 | 2,5,0.05,0.065,incongruent,left,0,41,41,45,1,,,,,,,,,,,,,,,,,,,,,,,,,,,,,,,,,,,,,,,,,,,,,,,,,,,,,,,,,,,,,,,,,,,,,,,,,,,,,,,,,,,
,8665,BAC,13/05/2003,001,2023-05-25_18h26.57.087,OS3_Mult_verification,2022.2.4,MacIntel,59.97361161,,,,,,,,,,,,,,,,,,,,,,,,,,,,,,,,,,,,,,,,,,,,,,,,,,,,,,,,,,,,,,,,,,,,,,right,1,0.9495,,,,,,magnitude,8,9,8 | 9,1,0.06,0.06,neutral,right,0,42,42,51,1,,,,,,,,,,,,,,,,,,,,,,,,,,,,,,,,,,,,,,,,,,,,,,,,,,,,,,,,,,,,,,,,,,,,,,,,,,,,,,,,,,,
,8665,BAC,13/05/2003,001,2023-05-25_18h26.57.087,OS3_Mult_verification,2022.2.4,MacIntel,59.97361161,,,,,,,,,,,,,,,,,,,,,,,,,,,,,,,,,,,,,,,,,,,,,,,,,,,,,,,,,,,,,,,,,,,,,,right,1,0.5829,,,,,,magnitude,2,4,2 | 4,2,0.05,0.065,congruent,right,0,43,43,9,1,,,,,,,,,,,,,,,,,,,,,,,,,,,,,,,,,,,,,,,,,,,,,,,,,,,,,,,,,,,,,,,,,,,,,,,,,,,,,,,,,,,
,8665,BAC,13/05/2003,001,2023-05-25_18h26.57.087,OS3_Mult_verification,2022.2.4,MacIntel,59.97361161,,,,,,,,,,,,,,,,,,,,,,,,,,,,,,,,,,,,,,,,,,,,,,,,,,,,,,,,,,,,,,,,,,,,,,right,1,0.8282,,,,,,magnitude,8,9,8 | 9,1,0.065,0.05,incongruent,right,0,44,44,27,1,,,,,,,,,,,,,,,,,,,,,,,,,,,,,,,,,,,,,,,,,,,,,,,,,,,,,,,,,,,,,,,,,,,,,,,,,,,,,,,,,,,
,8665,BAC,13/05/2003,001,2023-05-25_18h26.57.087,OS3_Mult_verification,2022.2.4,MacIntel,59.97361161,,,,,,,,,,,,,,,,,,,,,,,,,,,,,,,,,,,,,,,,,,,,,,,,,,,,,,,,,,,,,,,,,,,,,,left,1,0.8928,,,,,,magnitude,4,3,4 | 3,1,0.06,0.06,neutral,left,0,45,45,53,1,,,,,,,,,,,,,,,,,,,,,,,,,,,,,,,,,,,,,,,,,,,,,,,,,,,,,,,,,,,,,,,,,,,,,,,,,,,,,,,,,,,
,8665,BAC,13/05/2003,001,2023-05-25_18h26.57.087,OS3_Mult_verification,2022.2.4,MacIntel,59.97361161,,,,,,,,,,,,,,,,,,,,,,,,,,,,,,,,,,,,,,,,,,,,,,,,,,,,,,,,,,,,,,,,,,,,,,right,1,0.6895,,,,,,magnitude,4,9,4 | 9,5,0.065,0.05,incongruent,right,0,46,46,43,1,,,,,,,,,,,,,,,,,,,,,,,,,,,,,,,,,,,,,,,,,,,,,,,,,,,,,,,,,,,,,,,,,,,,,,,,,,,,,,,,,,,
,8665,BAC,13/05/2003,001,2023-05-25_18h26.57.087,OS3_Mult_verification,2022.2.4,MacIntel,59.97361161,,,,,,,,,,,,,,,,,,,,,,,,,,,,,,,,,,,,,,,,,,,,,,,,,,,,,,,,,,,,,,,,,,,,,,right,1,0.6085,,,,,,magnitude,6,8,6 | 8,2,0.06,0.06,neutral,right,0,47,47,58,1,,,,,,,,,,,,,,,,,,,,,,,,,,,,,,,,,,,,,,,,,,,,,,,,,,,,,,,,,,,,,,,,,,,,,,,,,,,,,,,,,,,
,8665,BAC,13/05/2003,001,2023-05-25_18h26.57.087,OS3_Mult_verification,2022.2.4,MacIntel,59.97361161,,,,,,,,,,,,,,,,,,,,,,,,,,,,,,,,,,,,,,,,,,,,,,,,,,,,,,,,,,,,,,,,,,,,,,right,1,0.4568,,,,,,magnitude,6,8,6 | 8,2,0.065,0.05,incongruent,right,0,48,48,34,1,,,,,,,,,,,,,,,,,,,,,,,,,,,,,,,,,,,,,,,,,,,,,,,,,,,,,,,,,,,,,,,,,,,,,,,,,,,,,,,,,,,
,8665,BAC,13/05/2003,001,2023-05-25_18h26.57.087,OS3_Mult_verification,2022.2.4,MacIntel,59.97361161,,,,,,,,,,,,,,,,,,,,,,,,,,,,,,,,,,,,,,,,,,,,,,,,,,,,,,,,,,,,,,,,,,,,,,right,1,0.5469,,,,,,magnitude,3,8,3 | 8,5,0.05,0.065,congruent,right,0,49,49,18,1,,,,,,,,,,,,,,,,,,,,,,,,,,,,,,,,,,,,,,,,,,,,,,,,,,,,,,,,,,,,,,,,,,,,,,,,,,,,,,,,,,,
,8665,BAC,13/05/2003,001,2023-05-25_18h26.57.087,OS3_Mult_verification,2022.2.4,MacIntel,59.97361161,,,,,,,,,,,,,,,,,,,,,,,,,,,,,,,,,,,,,,,,,,,,,,,,,,,,,,,,,,,,,,,,,,,,,,left,1,0.6175,,,,,,magnitude,3,1,3 | 1,2,0.065,0.05,congruent,left,0,50,50,12,1,,,,,,,,,,,,,,,,,,,,,,,,,,,,,,,,,,,,,,,,,,,,,,,,,,,,,,,,,,,,,,,,,,,,,,,,,,,,,,,,,,,
,8665,BAC,13/05/2003,001,2023-05-25_18h26.57.087,OS3_Mult_verification,2022.2.4,MacIntel,59.97361161,,,,,,,,,,,,,,,,,,,,,,,,,,,,,,,,,,,,,,,,,,,,,,,,,,,,,,,,,,,,,,,,,,,,,,right,1,1.2602,,,,,,magnitude,6,7,6 | 7,1,0.05,0.065,congruent,right,0,51,51,2,1,,,,,,,,,,,,,,,,,,,,,,,,,,,,,,,,,,,,,,,,,,,,,,,,,,,,,,,,,,,,,,,,,,,,,,,,,,,,,,,,,,,
,8665,BAC,13/05/2003,001,2023-05-25_18h26.57.087,OS3_Mult_verification,2022.2.4,MacIntel,59.97361161,,,,,,,,,,,,,,,,,,,,,,,,,,,,,,,,,,,,,,,,,,,,,,,,,,,,,,,,,,,,,,,,,,,,,,right,1,0.6812,,,,,,magnitude,2,4,2 | 4,2,0.06,0.06,neutral,right,0,52,52,57,1,,,,,,,,,,,,,,,,,,,,,,,,,,,,,,,,,,,,,,,,,,,,,,,,,,,,,,,,,,,,,,,,,,,,,,,,,,,,,,,,,,,
,8665,BAC,13/05/2003,001,2023-05-25_18h26.57.087,OS3_Mult_verification,2022.2.4,MacIntel,59.97361161,,,,,,,,,,,,,,,,,,,,,,,,,,,,,,,,,,,,,,,,,,,,,,,,,,,,,,,,,,,,,,,,,,,,,,right,1,0.9109,,,,,,magnitude,3,8,3 | 8,5,0.065,0.05,incongruent,right,0,53,53,42,1,,,,,,,,,,,,,,,,,,,,,,,,,,,,,,,,,,,,,,,,,,,,,,,,,,,,,,,,,,,,,,,,,,,,,,,,,,,,,,,,,,,
,8665,BAC,13/05/2003,001,2023-05-25_18h26.57.087,OS3_Mult_verification,2022.2.4,MacIntel,59.97361161,,,,,,,,,,,,,,,,,,,,,,,,,,,,,,,,,,,,,,,,,,,,,,,,,,,,,,,,,,,,,,,,,,,,,,left,1,0.5798,,,,,,magnitude,9,8,9 | 8,1,0.065,0.05,congruent,left,0,54,54,7,1,,,,,,,,,,,,,,,,,,,,,,,,,,,,,,,,,,,,,,,,,,,,,,,,,,,,,,,,,,,,,,,,,,,,,,,,,,,,,,,,,,,
,8665,BAC,13/05/2003,001,2023-05-25_18h26.57.087,OS3_Mult_verification,2022.2.4,MacIntel,59.97361161,,,,,,,,,,,,,,,,,,,,,,,,,,,,,,,,,,,,,,,,,,,,,,,,,,,,,,,,,,,,,,,,,,,,,,right,1,1.01,,,,,,magnitude,1,6,1 | 6,5,0.065,0.05,incongruent,right,0,55,55,40,1,,,,,,,,,,,,,,,,,,,,,,,,,,,,,,,,,,,,,,,,,,,,,,,,,,,,,,,,,,,,,,,,,,,,,,,,,,,,,,,,,,,
,8665,BAC,13/05/2003,001,2023-05-25_18h26.57.087,OS3_Mult_verification,2022.2.4,MacIntel,59.97361161,,,,,,,,,,,,,,,,,,,,,,,,,,,,,,,,,,,,,,,,,,,,,,,,,,,,,,,,,,,,,,,,,,,,,,left,1,0.6805,,,,,,magnitude,9,4,9 | 4,5,0.06,0.06,neutral,left,0,56,56,71,1,,,,,,,,,,,,,,,,,,,,,,,,,,,,,,,,,,,,,,,,,,,,,,,,,,,,,,,,,,,,,,,,,,,,,,,,,,,,,,,,,,,
,8665,BAC,13/05/2003,001,2023-05-25_18h26.57.087,OS3_Mult_verification,2022.2.4,MacIntel,59.97361161,,,,,,,,,,,,,,,,,,,,,,,,,,,,,,,,,,,,,,,,,,,,,,,,,,,,,,,,,,,,,,,,,,,,,,right,1,0.722,,,,,,magnitude,6,7,6 | 7,1,0.065,0.05,incongruent,right,0,57,57,26,1,,,,,,,,,,,,,,,,,,,,,,,,,,,,,,,,,,,,,,,,,,,,,,,,,,,,,,,,,,,,,,,,,,,,,,,,,,,,,,,,,,,
,8665,BAC,13/05/2003,001,2023-05-25_18h26.57.087,OS3_Mult_verification,2022.2.4,MacIntel,59.97361161,,,,,,,,,,,,,,,,,,,,,,,,,,,,,,,,,,,,,,,,,,,,,,,,,,,,,,,,,,,,,,,,,,,,,,right,1,0.4768,,,,,,magnitude,6,7,6 | 7,1,0.06,0.06,neutral,right,0,58,58,50,1,,,,,,,,,,,,,,,,,,,,,,,,,,,,,,,,,,,,,,,,,,,,,,,,,,,,,,,,,,,,,,,,,,,,,,,,,,,,,,,,,,,
,8665,BAC,13/05/2003,001,2023-05-25_18h26.57.087,OS3_Mult_verification,2022.2.4,MacIntel,59.97361161,,,,,,,,,,,,,,,,,,,,,,,,,,,,,,,,,,,,,,,,,,,,,,,,,,,,,,,,,,,,,,,,,,,,,,right,0,0.5799,,,,,,magnitude,9,7,9 | 7,2,0.06,0.06,neutral,left,0,59,59,63,1,,,,,,,,,,,,,,,,,,,,,,,,,,,,,,,,,,,,,,,,,,,,,,,,,,,,,,,,,,,,,,,,,,,,,,,,,,,,,,,,,,,
,8665,BAC,13/05/2003,001,2023-05-25_18h26.57.087,OS3_Mult_verification,2022.2.4,MacIntel,59.97361161,,,,,,,,,,,,,,,,,,,,,,,,,,,,,,,,,,,,,,,,,,,,,,,,,,,,,,,,,,,,,,,,,,,,,,left,1,0.5954,,,,,,magnitude,9,4,9 | 4,5,0.065,0.05,congruent,left,0,60,60,23,1,,,,,,,,,,,,,,,,,,,,,,,,,,,,,,,,,,,,,,,,,,,,,,,,,,,,,,,,,,,,,,,,,,,,,,,,,,,,,,,,,,,
,8665,BAC,13/05/2003,001,2023-05-25_18h26.57.087,OS3_Mult_verification,2022.2.4,MacIntel,59.97361161,,,,,,,,,,,,,,,,,,,,,,,,,,,,,,,,,,,,,,,,,,,,,,,,,,,,,,,,,,,,,,,,,,,,,,left,1,1.0657,,,,,,magnitude,6,1,6 | 1,5,0.06,0.06,neutral,left,0,61,61,68,1,,,,,,,,,,,,,,,,,,,,,,,,,,,,,,,,,,,,,,,,,,,,,,,,,,,,,,,,,,,,,,,,,,,,,,,,,,,,,,,,,,,
,8665,BAC,13/05/2003,001,2023-05-25_18h26.57.087,OS3_Mult_verification,2022.2.4,MacIntel,59.97361161,,,,,,,,,,,,,,,,,,,,,,,,,,,,,,,,,,,,,,,,,,,,,,,,,,,,,,,,,,,,,,,,,,,,,,left,1,1.0655,,,,,,magnitude,9,4,9 | 4,5,0.05,0.065,incongruent,left,0,62,62,47,1,,,,,,,,,,,,,,,,,,,,,,,,,,,,,,,,,,,,,,,,,,,,,,,,,,,,,,,,,,,,,,,,,,,,,,,,,,,,,,,,,,,
,8665,BAC,13/05/2003,001,2023-05-25_18h26.57.087,OS3_Mult_verification,2022.2.4,MacIntel,59.97361161,,,,,,,,,,,,,,,,,,,,,,,,,,,,,,,,,,,,,,,,,,,,,,,,,,,,,,,,,,,,,,,,,,,,,,left,1,0.9439,,,,,,magnitude,2,1,2 | 1,1,0.05,0.065,incongruent,left,0,63,63,28,1,,,,,,,,,,,,,,,,,,,,,,,,,,,,,,,,,,,,,,,,,,,,,,,,,,,,,,,,,,,,,,,,,,,,,,,,,,,,,,,,,,,
,8665,BAC,13/05/2003,001,2023-05-25_18h26.57.087,OS3_Mult_verification,2022.2.4,MacIntel,59.97361161,,,,,,,,,,,,,,,,,,,,,,,,,,,,,,,,,,,,,,,,,,,,,,,,,,,,,,,,,,,,,,,,,,,,,,right,1,0.8095,,,,,,magnitude,7,9,7 | 9,2,0.06,0.06,neutral,right,0,64,64,59,1,,,,,,,,,,,,,,,,,,,,,,,,,,,,,,,,,,,,,,,,,,,,,,,,,,,,,,,,,,,,,,,,,,,,,,,,,,,,,,,,,,,
,8665,BAC,13/05/2003,001,2023-05-25_18h26.57.087,OS3_Mult_verification,2022.2.4,MacIntel,59.97361161,,,,,,,,,,,,,,,,,,,,,,,,,,,,,,,,,,,,,,,,,,,,,,,,,,,,,,,,,,,,,,,,,,,,,,left,1,1.2312,,,,,,magnitude,7,6,7 | 6,1,0.06,0.06,neutral,left,0,65,65,54,1,,,,,,,,,,,,,,,,,,,,,,,,,,,,,,,,,,,,,,,,,,,,,,,,,,,,,,,,,,,,,,,,,,,,,,,,,,,,,,,,,,,
,8665,BAC,13/05/2003,001,2023-05-25_18h26.57.087,OS3_Mult_verification,2022.2.4,MacIntel,59.97361161,,,,,,,,,,,,,,,,,,,,,,,,,,,,,,,,,,,,,,,,,,,,,,,,,,,,,,,,,,,,,,,,,,,,,,left,1,0.8021,,,,,,magnitude,8,6,8 | 6,2,0.06,0.06,neutral,left,0,66,66,62,1,,,,,,,,,,,,,,,,,,,,,,,,,,,,,,,,,,,,,,,,,,,,,,,,,,,,,,,,,,,,,,,,,,,,,,,,,,,,,,,,,,,
,8665,BAC,13/05/2003,001,2023-05-25_18h26.57.087,OS3_Mult_verification,2022.2.4,MacIntel,59.97361161,,,,,,,,,,,,,,,,,,,,,,,,,,,,,,,,,,,,,,,,,,,,,,,,,,,,,,,,,,,,,,,,,,,,,,left,1,0.7662,,,,,,magnitude,9,7,9 | 7,2,0.05,0.065,incongruent,left,0,67,67,39,1,,,,,,,,,,,,,,,,,,,,,,,,,,,,,,,,,,,,,,,,,,,,,,,,,,,,,,,,,,,,,,,,,,,,,,,,,,,,,,,,,,,
,8665,BAC,13/05/2003,001,2023-05-25_18h26.57.087,OS3_Mult_verification,2022.2.4,MacIntel,59.97361161,,,,,,,,,,,,,,,,,,,,,,,,,,,,,,,,,,,,,,,,,,,,,,,,,,,,,,,,,,,,,,,,,,,,,,left,1,0.9979,,,,,,magnitude,9,8,9 | 8,1,0.05,0.065,incongruent,left,0,68,68,31,1,,,,,,,,,,,,,,,,,,,,,,,,,,,,,,,,,,,,,,,,,,,,,,,,,,,,,,,,,,,,,,,,,,,,,,,,,,,,,,,,,,,
,8665,BAC,13/05/2003,001,2023-05-25_18h26.57.087,OS3_Mult_verification,2022.2.4,MacIntel,59.97361161,,,,,,,,,,,,,,,,,,,,,,,,,,,,,,,,,,,,,,,,,,,,,,,,,,,,,,,,,,,,,,,,,,,,,,right,1,1.2558,,,,,,magnitude,3,4,3 | 4,1,0.05,0.065,congruent,right,0,69,69,1,1,,,,,,,,,,,,,,,,,,,,,,,,,,,,,,,,,,,,,,,,,,,,,,,,,,,,,,,,,,,,,,,,,,,,,,,,,,,,,,,,,,,
,8665,BAC,13/05/2003,001,2023-05-25_18h26.57.087,OS3_Mult_verification,2022.2.4,MacIntel,59.97361161,,,,,,,,,,,,,,,,,,,,,,,,,,,,,,,,,,,,,,,,,,,,,,,,,,,,,,,,,,,,,,,,,,,,,,left,1,0.5937,,,,,,magnitude,4,2,4 | 2,2,0.06,0.06,neutral,left,0,70,70,61,1,,,,,,,,,,,,,,,,,,,,,,,,,,,,,,,,,,,,,,,,,,,,,,,,,,,,,,,,,,,,,,,,,,,,,,,,,,,,,,,,,,,
,8665,BAC,13/05/2003,001,2023-05-25_18h26.57.087,OS3_Mult_verification,2022.2.4,MacIntel,59.97361161,,,,,,,,,,,,,,,,,,,,,,,,,,,,,,,,,,,,,,,,,,,,,,,,,,,,,,,,,,,,,,,,,,,,,,left,1,0.973,,,,,,magnitude,8,6,8 | 6,2,0.05,0.065,incongruent,left,0,71,71,38,1,,,,,,,,,,,,,,,,,,,,,,,,,,,,,,,,,,,,,,,,,,,,,,,,,,,,,,,,,,,,,,,,,,,,,,,,,,,,,,,,,,,
,8665,BAC,13/05/2003,001,2023-05-25_18h26.57.087,OS3_Mult_verification,2022.2.4,MacIntel,59.97361161,,,,,,,,,,,,,,,,,,,,,,,,,,,,,,,,,,,,,,,,,,,,,,,,,,,,,,,,,,,,,,,,,,,,,,,,,,,,,,,,,,,,,,,,,,,,0,1,1,0,1,stroop_stim/magnitude.xlsx,stroop_stim/prac_magnitude.xlsx,NUMERICALLY larger (larger coefficient).,images/numericallyLarger.png,,,,,,,,,,,,,,,,,,,,,,,,,,,,,,,,,,,,,,,,,,,,,,,,,,,,,,,,,,,,,,,,,,,,,,,,,,
,8665,BAC,13/05/2003,001,2023-05-25_18h26.57.087,OS3_Mult_verification,2022.2.4,MacIntel,59.97361161,,,,,,,,,,,,,,,,,,,,,,,,,,,,,,,,,,,,,,,,,,,,,,,,,,,,,,,,,,,,,,,,,,,,,,,,,,,,,,,,,,,,,,,,,,,,,,,,,,,,,0,0,0,0,1,,,,,,,,,,,,,,,,,,,,,,,,,,,,,,,,,,,,,,,,,,,,,,,,,,,,,,,,,,,,,,,,,,,,,
