windowSize,participant,group,DOB (DD/MM/YEAR),session,date,expName,psychopyVersion,OS,frameRate,typing_instr_resp.keys,typing_instr_resp.rt,typing_response,typing_rt,typing_score,typingSpeed_input_resp.keys,typingSpeed_input_resp.rt,typing_speed_trials.thisRepN,typing_speed_trials.thisTrialN,typing_speed_trials.thisN,typing_speed_trials.thisIndex,typing_speed_trials.ran,typing_speed_stim,typing_report_resp.keys,typing_report_resp.rt,vpt_trial_resp1.keys,vpt_trial_resp1.rt,typedResponse,fluency_rt,fluency_score,fluencyInputResp.keys,fluencyInputResp.rt,fluencyPracLoop.thisRepN,fluencyPracLoop.thisTrialN,fluencyPracLoop.thisN,fluencyPracLoop.thisIndex,fluencyPracLoop.ran,problem,answers,fluencyLoop.thisRepN,fluencyLoop.thisTrialN,fluencyLoop.thisN,fluencyLoop.thisIndex,fluencyLoop.ran,sampleAudio_resp.keys,sampleAudio_resp.rt,subjResponse,audio_rt,DS_score,inputResp.keys,inputResp.rt,audioPracticeLoop.thisRepN,audioPracticeLoop.thisTrialN,audioPracticeLoop.thisN,audioPracticeLoop.thisIndex,audioPracticeLoop.ran,digitSpan,digits_audioStim,soundsFile,typeDS,audioTrials_Loop.thisRepN,audioTrials_Loop.thisTrialN,audioTrials_Loop.thisN,audioTrials_Loop.thisIndex,audioTrials_Loop.ran,audioBlocks_loop.thisRepN,audioBlocks_loop.thisTrialN,audioBlocks_loop.thisN,audioBlocks_loop.thisIndex,audioBlocks_loop.ran,ConditionFile,digitSpanTask_loop.thisRepN,digitSpanTask_loop.thisTrialN,digitSpanTask_loop.thisN,digitSpanTask_loop.thisIndex,digitSpanTask_loop.ran,dsFile,TASK_C.thisRepN,TASK_C.thisTrialN,TASK_C.thisN,TASK_C.thisIndex,TASK_C.ran,controlTaskOrder.thisRepN,controlTaskOrder.thisTrialN,controlTaskOrder.thisN,controlTaskOrder.thisIndex,controlTaskOrder.ran,nRepsTask1,nRepsTask2,nRepsTask3,vptCorrect,vpt_rt,respMouse.x,respMouse.y,respMouse.leftButton,respMouse.midButton,respMouse.rightButton,vptPracticeLoop.thisRepN,vptPracticeLoop.thisTrialN,vptPracticeLoop.thisN,vptPracticeLoop.thisIndex,vptPracticeLoop.ran,trialType,tiles,rows,cols,vptTrialLoop.thisRepN,vptTrialLoop.thisTrialN,vptTrialLoop.thisN,vptTrialLoop.thisIndex,vptTrialLoop.ran,noOfBlocks,TASK_B.thisRepN,TASK_B.thisTrialN,TASK_B.thisN,TASK_B.thisIndex,TASK_B.ran,stroopResp.keys,stroopResp.corr,stroopResp.rt,stroopPracLoop.thisRepN,stroopPracLoop.thisTrialN,stroopPracLoop.thisN,stroopPracLoop.thisIndex,stroopPracLoop.ran,stroopCond,leftNo,rightNo,displayProblem,numDistance,leftNo_size,rightNo_size,Dims,keyAnswer,stroopLoop.thisRepN,stroopLoop.thisTrialN,stroopLoop.thisN,stroopLoop.thisIndex,stroopLoop.ran,stroopBlocks.thisRepN,stroopBlocks.thisTrialN,stroopBlocks.thisN,stroopBlocks.thisIndex,stroopBlocks.ran,stroop_condition,stroop_pracFile,ActionInst,instrImage,TASK_A.thisRepN,TASK_A.thisTrialN,TASK_A.thisN,TASK_A.thisIndex,TASK_A.ran,veriStim_resp.keys,veriStim_resp.corr,veriStim_resp.rt,verificationPracLoop.thisRepN,verificationPracLoop.thisTrialN,verificationPracLoop.thisN,verificationPracLoop.thisIndex,verificationPracLoop.ran,mult_problem,mult_answer,mult_type,error_distance,interferenceScore,problemType,interferenceLevel,problemSize,img_leftButton,img_rightButton,veriLoop.thisRepN,veriLoop.thisTrialN,veriLoop.thisN,veriLoop.thisIndex,veriLoop.ran,veriBlock.thisRepN,veriBlock.thisTrialN,veriBlock.thisN,veriBlock.thisIndex,veriBlock.ran,verificationFiles,end_resp.keys,end_resp.rt
"[1536,715]",838440669607,CBA,11/04/2002,001,2023-10-25_12h12.49.944,OS3_Mult_verification,2022.2.4,Win32,59.91970759,,,,,,,,,,,,,,,,,,,,,,,,,,,,,,,,,,,,,,,,,,,,,,,,,,,,,,,,,,,,,,,,,,,,,,,,,,,,,,,,,,,,,,,,,,,,,,,,,,,,,,,,,,,,,,,,,,,,,,,,,,,,,,,,,,,,,,,,,,,,,,,,,,,,,,,,,,,,,,,,,,,,,,,,,,,,,,
,838440669607,CBA,11/04/2002,001,2023-10-25_12h12.49.944,OS3_Mult_verification,2022.2.4,Win32,59.91970759,,,,,,,,,,,,,,,,,,,,,,,,,,,,,,,,,,,,,,,,,,,,,,,,,,,,,,,,,,,,,,,,,,,,,,,,,,,,,,,,,,,,,,,,,,,,,,,,,,,,,,,,,,,,,,,,,,,,,,,,,,,,,,,,,,,,,,,,,,,,,,,,,,,,,,,,,,,,,,,,,,,,,,,,,,,,,,
,838440669607,CBA,11/04/2002,001,2023-10-25_12h12.49.944,OS3_Mult_verification,2022.2.4,Win32,59.91970759,space,18.9619,,,,,,,,,,,,,,,,,,,,,,,,,,,,,,,,,,,,,,,,,,,,,,,,,,,,,,,,,,,,,,,,,,,,,,,,,,,,,,,,,,,,,,,,,,,,,,,,,,,,,,,,,,,,,,,,,,,,,,,,,,,,,,,,,,,,,,,,,,,,,,,,,,,,,,,,,,,,,,,,,,,,,,,,,,,,
,838440669607,CBA,11/04/2002,001,2023-10-25_12h12.49.944,OS3_Mult_verification,2022.2.4,Win32,59.91970759,,,54,2.2326,1,"[""5"",""4"",""return""]","[1.5278999996185334,1.7461999998092708,2.1947999997139007]",0,0,0,25,1,54,,,,,,,,,,,,,,,,,,,,,,,,,,,,,,,,,,,,,,,,,,,,,,,,,,,,,,,,,,,,,,,,,,,,,,,,,,,,,,,,,,,,,,,,,,,,,,,,,,,,,,,,,,,,,,,,,,,,,,,,,,,,,,,,,,,,,,,,,,,,,,,,,,,,,,,,,,,,,,,,,
,838440669607,CBA,11/04/2002,001,2023-10-25_12h12.49.944,OS3_Mult_verification,2022.2.4,Win32,59.91970759,,,63,1.7496,1,"[""6"",""3"",""return""]","[1.164599999904624,1.4709999999999894,1.722999999999999]",0,1,1,27,1,63,,,,,,,,,,,,,,,,,,,,,,,,,,,,,,,,,,,,,,,,,,,,,,,,,,,,,,,,,,,,,,,,,,,,,,,,,,,,,,,,,,,,,,,,,,,,,,,,,,,,,,,,,,,,,,,,,,,,,,,,,,,,,,,,,,,,,,,,,,,,,,,,,,,,,,,,,,,,,,,,,
,838440669607,CBA,11/04/2002,001,2023-10-25_12h12.49.944,OS3_Mult_verification,2022.2.4,Win32,59.91970759,,,28,1.6996,1,"[""2"",""8"",""return""]","[1.0181999998092692,1.5130000000000052,1.6699000000953674]",0,2,2,15,1,28,,,,,,,,,,,,,,,,,,,,,,,,,,,,,,,,,,,,,,,,,,,,,,,,,,,,,,,,,,,,,,,,,,,,,,,,,,,,,,,,,,,,,,,,,,,,,,,,,,,,,,,,,,,,,,,,,,,,,,,,,,,,,,,,,,,,,,,,,,,,,,,,,,,,,,,,,,,,,,,,,
,838440669607,CBA,11/04/2002,001,2023-10-25_12h12.49.944,OS3_Mult_verification,2022.2.4,Win32,59.91970759,,,35,1.7993,1,"[""3"",""5"",""return""]","[1.3216000003814656,1.6004000000953624,1.7638000001907272]",0,3,3,18,1,35,,,,,,,,,,,,,,,,,,,,,,,,,,,,,,,,,,,,,,,,,,,,,,,,,,,,,,,,,,,,,,,,,,,,,,,,,,,,,,,,,,,,,,,,,,,,,,,,,,,,,,,,,,,,,,,,,,,,,,,,,,,,,,,,,,,,,,,,,,,,,,,,,,,,,,,,,,,,,,,,,
,838440669607,CBA,11/04/2002,001,2023-10-25_12h12.49.944,OS3_Mult_verification,2022.2.4,Win32,59.91970759,,,30,2.0994,1,"[""3"",""0"",""return""]","[1.4802999997139068,1.8844000000953685,2.0655999999046344]",0,4,4,16,1,30,,,,,,,,,,,,,,,,,,,,,,,,,,,,,,,,,,,,,,,,,,,,,,,,,,,,,,,,,,,,,,,,,,,,,,,,,,,,,,,,,,,,,,,,,,,,,,,,,,,,,,,,,,,,,,,,,,,,,,,,,,,,,,,,,,,,,,,,,,,,,,,,,,,,,,,,,,,,,,,,,
,838440669607,CBA,11/04/2002,001,2023-10-25_12h12.49.944,OS3_Mult_verification,2022.2.4,Win32,59.91970759,,,48,1.4661,1,"[""4"",""8"",""return""]","[0.9842000002860942,1.2516000003814725,1.4359999999999928]",0,5,5,23,1,48,,,,,,,,,,,,,,,,,,,,,,,,,,,,,,,,,,,,,,,,,,,,,,,,,,,,,,,,,,,,,,,,,,,,,,,,,,,,,,,,,,,,,,,,,,,,,,,,,,,,,,,,,,,,,,,,,,,,,,,,,,,,,,,,,,,,,,,,,,,,,,,,,,,,,,,,,,,,,,,,,
,838440669607,CBA,11/04/2002,001,2023-10-25_12h12.49.944,OS3_Mult_verification,2022.2.4,Win32,59.91970759,,,20,1.716,1,"[""2"",""0"",""return""]","[1.0867000002861005,1.430400000095375,1.6890999999046414]",0,6,6,10,1,20,,,,,,,,,,,,,,,,,,,,,,,,,,,,,,,,,,,,,,,,,,,,,,,,,,,,,,,,,,,,,,,,,,,,,,,,,,,,,,,,,,,,,,,,,,,,,,,,,,,,,,,,,,,,,,,,,,,,,,,,,,,,,,,,,,,,,,,,,,,,,,,,,,,,,,,,,,,,,,,,,
,838440669607,CBA,11/04/2002,001,2023-10-25_12h12.49.944,OS3_Mult_verification,2022.2.4,Win32,59.91970759,,,49,1.6497,1,"[""4"",""9"",""return""]","[1.04739999961852,1.457499999999996,1.617299999713893]",0,7,7,24,1,49,,,,,,,,,,,,,,,,,,,,,,,,,,,,,,,,,,,,,,,,,,,,,,,,,,,,,,,,,,,,,,,,,,,,,,,,,,,,,,,,,,,,,,,,,,,,,,,,,,,,,,,,,,,,,,,,,,,,,,,,,,,,,,,,,,,,,,,,,,,,,,,,,,,,,,,,,,,,,,,,,
,838440669607,CBA,11/04/2002,001,2023-10-25_12h12.49.944,OS3_Mult_verification,2022.2.4,Win32,59.91970759,,,14,1.2831,1,"[""1"",""4"",""return""]","[0.7220000000000084,0.9815000000000111,1.2605000000000075]",0,8,8,6,1,14,,,,,,,,,,,,,,,,,,,,,,,,,,,,,,,,,,,,,,,,,,,,,,,,,,,,,,,,,,,,,,,,,,,,,,,,,,,,,,,,,,,,,,,,,,,,,,,,,,,,,,,,,,,,,,,,,,,,,,,,,,,,,,,,,,,,,,,,,,,,,,,,,,,,,,,,,,,,,,,,,
,838440669607,CBA,11/04/2002,001,2023-10-25_12h12.49.944,OS3_Mult_verification,2022.2.4,Win32,59.91970759,,,32,1.4326,1,"[""3"",""2"",""return""]","[0.9320000000000022,1.1299000000953612,1.3965999999046375]",0,9,9,17,1,32,,,,,,,,,,,,,,,,,,,,,,,,,,,,,,,,,,,,,,,,,,,,,,,,,,,,,,,,,,,,,,,,,,,,,,,,,,,,,,,,,,,,,,,,,,,,,,,,,,,,,,,,,,,,,,,,,,,,,,,,,,,,,,,,,,,,,,,,,,,,,,,,,,,,,,,,,,,,,,,,,
,838440669607,CBA,11/04/2002,001,2023-10-25_12h12.49.944,OS3_Mult_verification,2022.2.4,Win32,59.91970759,,,27,1.7163,1,"[""2"",""7"",""return""]","[1.1884000000953563,1.4559999999999889,1.6805999999046293]",0,10,10,14,1,27,,,,,,,,,,,,,,,,,,,,,,,,,,,,,,,,,,,,,,,,,,,,,,,,,,,,,,,,,,,,,,,,,,,,,,,,,,,,,,,,,,,,,,,,,,,,,,,,,,,,,,,,,,,,,,,,,,,,,,,,,,,,,,,,,,,,,,,,,,,,,,,,,,,,,,,,,,,,,,,,,
,838440669607,CBA,11/04/2002,001,2023-10-25_12h12.49.944,OS3_Mult_verification,2022.2.4,Win32,59.91970759,,,4,1.3828,1,"[""4"",""return""]","[1.1354000000953732,1.3475999999046309]",0,11,11,0,1,4,,,,,,,,,,,,,,,,,,,,,,,,,,,,,,,,,,,,,,,,,,,,,,,,,,,,,,,,,,,,,,,,,,,,,,,,,,,,,,,,,,,,,,,,,,,,,,,,,,,,,,,,,,,,,,,,,,,,,,,,,,,,,,,,,,,,,,,,,,,,,,,,,,,,,,,,,,,,,,,,,
,838440669607,CBA,11/04/2002,001,2023-10-25_12h12.49.944,OS3_Mult_verification,2022.2.4,Win32,59.91970759,,,10,1.3662,1,"[""1"",""0"",""return""]","[0.748199999809259,1.158699999809258,1.3308999996185236]",0,12,12,4,1,10,,,,,,,,,,,,,,,,,,,,,,,,,,,,,,,,,,,,,,,,,,,,,,,,,,,,,,,,,,,,,,,,,,,,,,,,,,,,,,,,,,,,,,,,,,,,,,,,,,,,,,,,,,,,,,,,,,,,,,,,,,,,,,,,,,,,,,,,,,,,,,,,,,,,,,,,,,,,,,,,,
,838440669607,CBA,11/04/2002,001,2023-10-25_12h12.49.944,OS3_Mult_verification,2022.2.4,Win32,59.91970759,,,6,1.1162,1,"[""6"",""return""]","[0.9020999999046211,1.0824000000953617]",0,13,13,1,1,6,,,,,,,,,,,,,,,,,,,,,,,,,,,,,,,,,,,,,,,,,,,,,,,,,,,,,,,,,,,,,,,,,,,,,,,,,,,,,,,,,,,,,,,,,,,,,,,,,,,,,,,,,,,,,,,,,,,,,,,,,,,,,,,,,,,,,,,,,,,,,,,,,,,,,,,,,,,,,,,,,
,838440669607,CBA,11/04/2002,001,2023-10-25_12h12.49.944,OS3_Mult_verification,2022.2.4,Win32,59.91970759,,,24,1.2831,1,"[""2"",""4"",""return""]","[0.8740000000000094,1.0471999998092656,1.249299999713898]",0,14,14,12,1,24,,,,,,,,,,,,,,,,,,,,,,,,,,,,,,,,,,,,,,,,,,,,,,,,,,,,,,,,,,,,,,,,,,,,,,,,,,,,,,,,,,,,,,,,,,,,,,,,,,,,,,,,,,,,,,,,,,,,,,,,,,,,,,,,,,,,,,,,,,,,,,,,,,,,,,,,,,,,,,,,,
,838440669607,CBA,11/04/2002,001,2023-10-25_12h12.49.944,OS3_Mult_verification,2022.2.4,Win32,59.91970759,,,72,2.0497,1,"[""7"",""2"",""return""]","[1.2628000001907367,1.7959999999999923,2.016599999904628]",0,15,15,29,1,72,,,,,,,,,,,,,,,,,,,,,,,,,,,,,,,,,,,,,,,,,,,,,,,,,,,,,,,,,,,,,,,,,,,,,,,,,,,,,,,,,,,,,,,,,,,,,,,,,,,,,,,,,,,,,,,,,,,,,,,,,,,,,,,,,,,,,,,,,,,,,,,,,,,,,,,,,,,,,,,,,
,838440669607,CBA,11/04/2002,001,2023-10-25_12h12.49.944,OS3_Mult_verification,2022.2.4,Win32,59.91970759,,,12,1.3329,1,"[""1"",""2"",""return""]","[0.7811000003814712,1.0733000001907413,1.3090000000000117]",0,16,16,5,1,12,,,,,,,,,,,,,,,,,,,,,,,,,,,,,,,,,,,,,,,,,,,,,,,,,,,,,,,,,,,,,,,,,,,,,,,,,,,,,,,,,,,,,,,,,,,,,,,,,,,,,,,,,,,,,,,,,,,,,,,,,,,,,,,,,,,,,,,,,,,,,,,,,,,,,,,,,,,,,,,,,
,838440669607,CBA,11/04/2002,001,2023-10-25_12h12.49.944,OS3_Mult_verification,2022.2.4,Win32,59.91970759,,,45,1.6495,1,"[""4"",""5"",""return""]","[1.2215999999046403,1.4579000000953783,1.6194000000953679]",0,17,17,22,1,45,,,,,,,,,,,,,,,,,,,,,,,,,,,,,,,,,,,,,,,,,,,,,,,,,,,,,,,,,,,,,,,,,,,,,,,,,,,,,,,,,,,,,,,,,,,,,,,,,,,,,,,,,,,,,,,,,,,,,,,,,,,,,,,,,,,,,,,,,,,,,,,,,,,,,,,,,,,,,,,,,
,838440669607,CBA,11/04/2002,001,2023-10-25_12h12.49.944,OS3_Mult_verification,2022.2.4,Win32,59.91970759,,,56,1.2496,1,"[""5"",""6"",""return""]","[0.8659999999999997,1.0425999999046383,1.2162000002861078]",0,18,18,26,1,56,,,,,,,,,,,,,,,,,,,,,,,,,,,,,,,,,,,,,,,,,,,,,,,,,,,,,,,,,,,,,,,,,,,,,,,,,,,,,,,,,,,,,,,,,,,,,,,,,,,,,,,,,,,,,,,,,,,,,,,,,,,,,,,,,,,,,,,,,,,,,,,,,,,,,,,,,,,,,,,,,
,838440669607,CBA,11/04/2002,001,2023-10-25_12h12.49.944,OS3_Mult_verification,2022.2.4,Win32,59.91970759,,,9,1.483,1,"[""9"",""return""]","[1.2852999997138994,1.4575999999046303]",0,19,19,3,1,9,,,,,,,,,,,,,,,,,,,,,,,,,,,,,,,,,,,,,,,,,,,,,,,,,,,,,,,,,,,,,,,,,,,,,,,,,,,,,,,,,,,,,,,,,,,,,,,,,,,,,,,,,,,,,,,,,,,,,,,,,,,,,,,,,,,,,,,,,,,,,,,,,,,,,,,,,,,,,,,,,
,838440669607,CBA,11/04/2002,001,2023-10-25_12h12.49.944,OS3_Mult_verification,2022.2.4,Win32,59.91970759,,,8,1.1829,1,"[""8"",""return""]","[0.998500000000007,1.159799999713897]",0,20,20,2,1,8,,,,,,,,,,,,,,,,,,,,,,,,,,,,,,,,,,,,,,,,,,,,,,,,,,,,,,,,,,,,,,,,,,,,,,,,,,,,,,,,,,,,,,,,,,,,,,,,,,,,,,,,,,,,,,,,,,,,,,,,,,,,,,,,,,,,,,,,,,,,,,,,,,,,,,,,,,,,,,,,,
,838440669607,CBA,11/04/2002,001,2023-10-25_12h12.49.944,OS3_Mult_verification,2022.2.4,Win32,59.91970759,,,36,1.5663,1,"[""3"",""6"",""return""]","[1.1880000000000024,1.3723000001907337,1.5339000000953575]",0,21,21,19,1,36,,,,,,,,,,,,,,,,,,,,,,,,,,,,,,,,,,,,,,,,,,,,,,,,,,,,,,,,,,,,,,,,,,,,,,,,,,,,,,,,,,,,,,,,,,,,,,,,,,,,,,,,,,,,,,,,,,,,,,,,,,,,,,,,,,,,,,,,,,,,,,,,,,,,,,,,,,,,,,,,,
,838440669607,CBA,11/04/2002,001,2023-10-25_12h12.49.944,OS3_Mult_verification,2022.2.4,Win32,59.91970759,,,81,2.1495,1,"[""8"",""1"",""return""]","[1.2143000001907467,1.936700000286109,2.125]",0,22,22,30,1,81,,,,,,,,,,,,,,,,,,,,,,,,,,,,,,,,,,,,,,,,,,,,,,,,,,,,,,,,,,,,,,,,,,,,,,,,,,,,,,,,,,,,,,,,,,,,,,,,,,,,,,,,,,,,,,,,,,,,,,,,,,,,,,,,,,,,,,,,,,,,,,,,,,,,,,,,,,,,,,,,,
,838440669607,CBA,11/04/2002,001,2023-10-25_12h12.49.944,OS3_Mult_verification,2022.2.4,Win32,59.91970759,,,25,1.4329,1,"[""2"",""5"",""return""]","[1.0708000001907436,1.2856000003814785,1.4014000000953644]",0,23,23,13,1,25,,,,,,,,,,,,,,,,,,,,,,,,,,,,,,,,,,,,,,,,,,,,,,,,,,,,,,,,,,,,,,,,,,,,,,,,,,,,,,,,,,,,,,,,,,,,,,,,,,,,,,,,,,,,,,,,,,,,,,,,,,,,,,,,,,,,,,,,,,,,,,,,,,,,,,,,,,,,,,,,,
,838440669607,CBA,11/04/2002,001,2023-10-25_12h12.49.944,OS3_Mult_verification,2022.2.4,Win32,59.91970759,,,18,1.7994,1,"[""1"",""8"",""return""]","[0.9544000000953616,1.5864000000953666,1.7659999999999911]",0,24,24,9,1,18,,,,,,,,,,,,,,,,,,,,,,,,,,,,,,,,,,,,,,,,,,,,,,,,,,,,,,,,,,,,,,,,,,,,,,,,,,,,,,,,,,,,,,,,,,,,,,,,,,,,,,,,,,,,,,,,,,,,,,,,,,,,,,,,,,,,,,,,,,,,,,,,,,,,,,,,,,,,,,,,,
,838440669607,CBA,11/04/2002,001,2023-10-25_12h12.49.944,OS3_Mult_verification,2022.2.4,Win32,59.91970759,,,16,1.3663,1,"[""1"",""6"",""return""]","[0.8841999998092689,1.1853000001907361,1.3410999999046282]",0,25,25,8,1,16,,,,,,,,,,,,,,,,,,,,,,,,,,,,,,,,,,,,,,,,,,,,,,,,,,,,,,,,,,,,,,,,,,,,,,,,,,,,,,,,,,,,,,,,,,,,,,,,,,,,,,,,,,,,,,,,,,,,,,,,,,,,,,,,,,,,,,,,,,,,,,,,,,,,,,,,,,,,,,,,,
,838440669607,CBA,11/04/2002,001,2023-10-25_12h12.49.944,OS3_Mult_verification,2022.2.4,Win32,59.91970759,,,64,1.7328,1,"[""6"",""4"",""return""]","[1.1898000001907292,1.4252000002860967,1.6976000003814704]",0,26,26,28,1,64,,,,,,,,,,,,,,,,,,,,,,,,,,,,,,,,,,,,,,,,,,,,,,,,,,,,,,,,,,,,,,,,,,,,,,,,,,,,,,,,,,,,,,,,,,,,,,,,,,,,,,,,,,,,,,,,,,,,,,,,,,,,,,,,,,,,,,,,,,,,,,,,,,,,,,,,,,,,,,,,,
,838440669607,CBA,11/04/2002,001,2023-10-25_12h12.49.944,OS3_Mult_verification,2022.2.4,Win32,59.91970759,,,42,1.833,1,"[""4"",""2"",""return""]","[1.3559000000953603,1.567699999809264,1.7974000000953652]",0,27,27,21,1,42,,,,,,,,,,,,,,,,,,,,,,,,,,,,,,,,,,,,,,,,,,,,,,,,,,,,,,,,,,,,,,,,,,,,,,,,,,,,,,,,,,,,,,,,,,,,,,,,,,,,,,,,,,,,,,,,,,,,,,,,,,,,,,,,,,,,,,,,,,,,,,,,,,,,,,,,,,,,,,,,,
,838440669607,CBA,11/04/2002,001,2023-10-25_12h12.49.944,OS3_Mult_verification,2022.2.4,Win32,59.91970759,,,15,1.383,1,"[""1"",""5"",""return""]","[0.9037000002860935,1.132800000190727,1.3605000000000018]",0,28,28,7,1,15,,,,,,,,,,,,,,,,,,,,,,,,,,,,,,,,,,,,,,,,,,,,,,,,,,,,,,,,,,,,,,,,,,,,,,,,,,,,,,,,,,,,,,,,,,,,,,,,,,,,,,,,,,,,,,,,,,,,,,,,,,,,,,,,,,,,,,,,,,,,,,,,,,,,,,,,,,,,,,,,,
,838440669607,CBA,11/04/2002,001,2023-10-25_12h12.49.944,OS3_Mult_verification,2022.2.4,Win32,59.91970759,,,21,1.5493,1,"[""2"",""1"",""return""]","[1.1020000000000039,1.3152999997139005,1.516199999809274]",0,29,29,11,1,21,,,,,,,,,,,,,,,,,,,,,,,,,,,,,,,,,,,,,,,,,,,,,,,,,,,,,,,,,,,,,,,,,,,,,,,,,,,,,,,,,,,,,,,,,,,,,,,,,,,,,,,,,,,,,,,,,,,,,,,,,,,,,,,,,,,,,,,,,,,,,,,,,,,,,,,,,,,,,,,,,
,838440669607,CBA,11/04/2002,001,2023-10-25_12h12.49.944,OS3_Mult_verification,2022.2.4,Win32,59.91970759,,,40,1.4496,1,"[""4"",""0"",""return""]","[0.9171000003814811,1.25,1.416000000000011]",0,30,30,20,1,40,,,,,,,,,,,,,,,,,,,,,,,,,,,,,,,,,,,,,,,,,,,,,,,,,,,,,,,,,,,,,,,,,,,,,,,,,,,,,,,,,,,,,,,,,,,,,,,,,,,,,,,,,,,,,,,,,,,,,,,,,,,,,,,,,,,,,,,,,,,,,,,,,,,,,,,,,,,,,,,,,
,838440669607,CBA,11/04/2002,001,2023-10-25_12h12.49.944,OS3_Mult_verification,2022.2.4,Win32,59.91970759,,,15,1.4995,1,"[""1"",""5"",""return""]","[0.8978000001907418,1.2865000000000038,1.473700000286101]",1,0,31,7,1,15,,,,,,,,,,,,,,,,,,,,,,,,,,,,,,,,,,,,,,,,,,,,,,,,,,,,,,,,,,,,,,,,,,,,,,,,,,,,,,,,,,,,,,,,,,,,,,,,,,,,,,,,,,,,,,,,,,,,,,,,,,,,,,,,,,,,,,,,,,,,,,,,,,,,,,,,,,,,,,,,,
,838440669607,CBA,11/04/2002,001,2023-10-25_12h12.49.944,OS3_Mult_verification,2022.2.4,Win32,59.91970759,,,63,1.9161,1,"[""6"",""3"",""return""]","[0.9305000000000092,1.7154000000953715,1.883099999904644]",1,1,32,27,1,63,,,,,,,,,,,,,,,,,,,,,,,,,,,,,,,,,,,,,,,,,,,,,,,,,,,,,,,,,,,,,,,,,,,,,,,,,,,,,,,,,,,,,,,,,,,,,,,,,,,,,,,,,,,,,,,,,,,,,,,,,,,,,,,,,,,,,,,,,,,,,,,,,,,,,,,,,,,,,,,,,
,838440669607,CBA,11/04/2002,001,2023-10-25_12h12.49.944,OS3_Mult_verification,2022.2.4,Win32,59.91970759,,,4,1.2497,1,"[""4"",""return""]","[0.887900000095371,1.216400000095362]",1,2,33,0,1,4,,,,,,,,,,,,,,,,,,,,,,,,,,,,,,,,,,,,,,,,,,,,,,,,,,,,,,,,,,,,,,,,,,,,,,,,,,,,,,,,,,,,,,,,,,,,,,,,,,,,,,,,,,,,,,,,,,,,,,,,,,,,,,,,,,,,,,,,,,,,,,,,,,,,,,,,,,,,,,,,,
,838440669607,CBA,11/04/2002,001,2023-10-25_12h12.49.944,OS3_Mult_verification,2022.2.4,Win32,59.91970759,,,49,1.4997,1,"[""4"",""9"",""return""]","[0.813999999999993,1.3326999998092646,1.47190000009536]",1,3,34,24,1,49,,,,,,,,,,,,,,,,,,,,,,,,,,,,,,,,,,,,,,,,,,,,,,,,,,,,,,,,,,,,,,,,,,,,,,,,,,,,,,,,,,,,,,,,,,,,,,,,,,,,,,,,,,,,,,,,,,,,,,,,,,,,,,,,,,,,,,,,,,,,,,,,,,,,,,,,,,,,,,,,,
,838440669607,CBA,11/04/2002,001,2023-10-25_12h12.49.944,OS3_Mult_verification,2022.2.4,Win32,59.91970759,,,35,1.7994,1,"[""3"",""5"",""return""]","[1.1922000002860926,1.4427000002861092,1.7692000002860908]",1,4,35,18,1,35,,,,,,,,,,,,,,,,,,,,,,,,,,,,,,,,,,,,,,,,,,,,,,,,,,,,,,,,,,,,,,,,,,,,,,,,,,,,,,,,,,,,,,,,,,,,,,,,,,,,,,,,,,,,,,,,,,,,,,,,,,,,,,,,,,,,,,,,,,,,,,,,,,,,,,,,,,,,,,,,,
,838440669607,CBA,11/04/2002,001,2023-10-25_12h12.49.944,OS3_Mult_verification,2022.2.4,Win32,59.91970759,,,45,1.4328,1,"[""4"",""5"",""return""]","[0.950000000000017,1.1659000000953768,1.4009000000953904]",1,5,36,22,1,45,,,,,,,,,,,,,,,,,,,,,,,,,,,,,,,,,,,,,,,,,,,,,,,,,,,,,,,,,,,,,,,,,,,,,,,,,,,,,,,,,,,,,,,,,,,,,,,,,,,,,,,,,,,,,,,,,,,,,,,,,,,,,,,,,,,,,,,,,,,,,,,,,,,,,,,,,,,,,,,,,
,838440669607,CBA,11/04/2002,001,2023-10-25_12h12.49.944,OS3_Mult_verification,2022.2.4,Win32,59.91970759,,,36,1.5996,1,"[""3"",""6"",""return""]","[1.1795999999046245,1.4344000000953514,1.5656999998092687]",1,6,37,19,1,36,,,,,,,,,,,,,,,,,,,,,,,,,,,,,,,,,,,,,,,,,,,,,,,,,,,,,,,,,,,,,,,,,,,,,,,,,,,,,,,,,,,,,,,,,,,,,,,,,,,,,,,,,,,,,,,,,,,,,,,,,,,,,,,,,,,,,,,,,,,,,,,,,,,,,,,,,,,,,,,,,
,838440669607,CBA,11/04/2002,001,2023-10-25_12h12.49.944,OS3_Mult_verification,2022.2.4,Win32,59.91970759,,,20,1.4829,1,"[""2"",""0"",""return""]","[0.8480999999046333,1.3107999997139075,1.4501999998092856]",1,7,38,10,1,20,,,,,,,,,,,,,,,,,,,,,,,,,,,,,,,,,,,,,,,,,,,,,,,,,,,,,,,,,,,,,,,,,,,,,,,,,,,,,,,,,,,,,,,,,,,,,,,,,,,,,,,,,,,,,,,,,,,,,,,,,,,,,,,,,,,,,,,,,,,,,,,,,,,,,,,,,,,,,,,,,
,838440669607,CBA,11/04/2002,001,2023-10-25_12h12.49.944,OS3_Mult_verification,2022.2.4,Win32,59.91970759,,,81,1.7662,1,"[""8"",""1"",""return""]","[1.1703000001907355,1.585400000095376,1.7300000000000182]",1,8,39,30,1,81,,,,,,,,,,,,,,,,,,,,,,,,,,,,,,,,,,,,,,,,,,,,,,,,,,,,,,,,,,,,,,,,,,,,,,,,,,,,,,,,,,,,,,,,,,,,,,,,,,,,,,,,,,,,,,,,,,,,,,,,,,,,,,,,,,,,,,,,,,,,,,,,,,,,,,,,,,,,,,,,,
,838440669607,CBA,11/04/2002,001,2023-10-25_12h12.49.944,OS3_Mult_verification,2022.2.4,Win32,59.91970759,,,10,1.2329,1,"[""1"",""0"",""return""]","[0.6548999996185216,1.0723999996185398,1.2056999998092692]",1,9,40,4,1,10,,,,,,,,,,,,,,,,,,,,,,,,,,,,,,,,,,,,,,,,,,,,,,,,,,,,,,,,,,,,,,,,,,,,,,,,,,,,,,,,,,,,,,,,,,,,,,,,,,,,,,,,,,,,,,,,,,,,,,,,,,,,,,,,,,,,,,,,,,,,,,,,,,,,,,,,,,,,,,,,,
,838440669607,CBA,11/04/2002,001,2023-10-25_12h12.49.944,OS3_Mult_verification,2022.2.4,Win32,59.91970759,,,30,1.6994,1,"[""3"",""0"",""return""]","[1.2254000000953624,1.5657000002860855,1.6746000003814459]",1,10,41,16,1,30,,,,,,,,,,,,,,,,,,,,,,,,,,,,,,,,,,,,,,,,,,,,,,,,,,,,,,,,,,,,,,,,,,,,,,,,,,,,,,,,,,,,,,,,,,,,,,,,,,,,,,,,,,,,,,,,,,,,,,,,,,,,,,,,,,,,,,,,,,,,,,,,,,,,,,,,,,,,,,,,,
,838440669607,CBA,11/04/2002,001,2023-10-25_12h12.49.944,OS3_Mult_verification,2022.2.4,Win32,59.91970759,,,48,1.4829,1,"[""4"",""8"",""return""]","[1.0660000000000025,1.3087000002861089,1.4555000000000007]",1,11,42,23,1,48,,,,,,,,,,,,,,,,,,,,,,,,,,,,,,,,,,,,,,,,,,,,,,,,,,,,,,,,,,,,,,,,,,,,,,,,,,,,,,,,,,,,,,,,,,,,,,,,,,,,,,,,,,,,,,,,,,,,,,,,,,,,,,,,,,,,,,,,,,,,,,,,,,,,,,,,,,,,,,,,,
,838440669607,CBA,11/04/2002,001,2023-10-25_12h12.49.944,OS3_Mult_verification,2022.2.4,Win32,59.91970759,,,25,1.5997,1,"[""2"",""5"",""return""]","[1.2158000001907396,1.3980000000000246,1.5641000003814725]",1,12,43,13,1,25,,,,,,,,,,,,,,,,,,,,,,,,,,,,,,,,,,,,,,,,,,,,,,,,,,,,,,,,,,,,,,,,,,,,,,,,,,,,,,,,,,,,,,,,,,,,,,,,,,,,,,,,,,,,,,,,,,,,,,,,,,,,,,,,,,,,,,,,,,,,,,,,,,,,,,,,,,,,,,,,,
,838440669607,CBA,11/04/2002,001,2023-10-25_12h12.49.944,OS3_Mult_verification,2022.2.4,Win32,59.91970759,,,42,1.483,1,"[""4"",""2"",""return""]","[0.9332999997138813,1.1377999997139057,1.4604999999999961]",1,13,44,21,1,42,,,,,,,,,,,,,,,,,,,,,,,,,,,,,,,,,,,,,,,,,,,,,,,,,,,,,,,,,,,,,,,,,,,,,,,,,,,,,,,,,,,,,,,,,,,,,,,,,,,,,,,,,,,,,,,,,,,,,,,,,,,,,,,,,,,,,,,,,,,,,,,,,,,,,,,,,,,,,,,,,
,838440669607,CBA,11/04/2002,001,2023-10-25_12h12.49.944,OS3_Mult_verification,2022.2.4,Win32,59.91970759,,,6,1.2162,1,"[""6"",""return""]","[0.9258000001907192,1.182099999904608]",1,14,45,1,1,6,,,,,,,,,,,,,,,,,,,,,,,,,,,,,,,,,,,,,,,,,,,,,,,,,,,,,,,,,,,,,,,,,,,,,,,,,,,,,,,,,,,,,,,,,,,,,,,,,,,,,,,,,,,,,,,,,,,,,,,,,,,,,,,,,,,,,,,,,,,,,,,,,,,,,,,,,,,,,,,,,
,838440669607,CBA,11/04/2002,001,2023-10-25_12h12.49.944,OS3_Mult_verification,2022.2.4,Win32,59.91970759,,,14,1.0997,1,"[""1"",""4"",""return""]","[0.7410999999046339,0.8925999999046326,1.065800000190734]",1,15,46,6,1,14,,,,,,,,,,,,,,,,,,,,,,,,,,,,,,,,,,,,,,,,,,,,,,,,,,,,,,,,,,,,,,,,,,,,,,,,,,,,,,,,,,,,,,,,,,,,,,,,,,,,,,,,,,,,,,,,,,,,,,,,,,,,,,,,,,,,,,,,,,,,,,,,,,,,,,,,,,,,,,,,,
,838440669607,CBA,11/04/2002,001,2023-10-25_12h12.49.944,OS3_Mult_verification,2022.2.4,Win32,59.91970759,,,54,1.3663,1,"[""5"",""4"",""return""]","[0.991199999809254,1.1356999998092476,1.3312999997138775]",1,16,47,25,1,54,,,,,,,,,,,,,,,,,,,,,,,,,,,,,,,,,,,,,,,,,,,,,,,,,,,,,,,,,,,,,,,,,,,,,,,,,,,,,,,,,,,,,,,,,,,,,,,,,,,,,,,,,,,,,,,,,,,,,,,,,,,,,,,,,,,,,,,,,,,,,,,,,,,,,,,,,,,,,,,,,
,838440669607,CBA,11/04/2002,001,2023-10-25_12h12.49.944,OS3_Mult_verification,2022.2.4,Win32,59.91970759,,,24,1.2995,1,"[""2"",""4"",""return""]","[0.9314000000953797,1.071400000095366,1.2664000000953877]",1,17,48,12,1,24,,,,,,,,,,,,,,,,,,,,,,,,,,,,,,,,,,,,,,,,,,,,,,,,,,,,,,,,,,,,,,,,,,,,,,,,,,,,,,,,,,,,,,,,,,,,,,,,,,,,,,,,,,,,,,,,,,,,,,,,,,,,,,,,,,,,,,,,,,,,,,,,,,,,,,,,,,,,,,,,,
,838440669607,CBA,11/04/2002,001,2023-10-25_12h12.49.944,OS3_Mult_verification,2022.2.4,Win32,59.91970759,,,8,1.2996,1,"[""8"",""return""]","[1.0841999998092433,1.2644000000953497]",1,18,49,2,1,8,,,,,,,,,,,,,,,,,,,,,,,,,,,,,,,,,,,,,,,,,,,,,,,,,,,,,,,,,,,,,,,,,,,,,,,,,,,,,,,,,,,,,,,,,,,,,,,,,,,,,,,,,,,,,,,,,,,,,,,,,,,,,,,,,,,,,,,,,,,,,,,,,,,,,,,,,,,,,,,,,
,838440669607,CBA,11/04/2002,001,2023-10-25_12h12.49.944,OS3_Mult_verification,2022.2.4,Win32,59.91970759,,,32,1.3497,1,"[""3"",""2"",""return""]","[0.949699999809269,1.1247999997139004,1.321400000095366]",1,19,50,17,1,32,,,,,,,,,,,,,,,,,,,,,,,,,,,,,,,,,,,,,,,,,,,,,,,,,,,,,,,,,,,,,,,,,,,,,,,,,,,,,,,,,,,,,,,,,,,,,,,,,,,,,,,,,,,,,,,,,,,,,,,,,,,,,,,,,,,,,,,,,,,,,,,,,,,,,,,,,,,,,,,,,
,838440669607,CBA,11/04/2002,001,2023-10-25_12h12.49.944,OS3_Mult_verification,2022.2.4,Win32,59.91970759,,,18,1.2995,1,"[""1"",""8"",""return""]","[0.706399999618526,1.1240999999046437,1.2694999999999936]",1,20,51,9,1,18,,,,,,,,,,,,,,,,,,,,,,,,,,,,,,,,,,,,,,,,,,,,,,,,,,,,,,,,,,,,,,,,,,,,,,,,,,,,,,,,,,,,,,,,,,,,,,,,,,,,,,,,,,,,,,,,,,,,,,,,,,,,,,,,,,,,,,,,,,,,,,,,,,,,,,,,,,,,,,,,,
,838440669607,CBA,11/04/2002,001,2023-10-25_12h12.49.944,OS3_Mult_verification,2022.2.4,Win32,59.91970759,,,72,1.6994,1,"[""7"",""2"",""return""]","[0.9743000001907376,1.535099999904645,1.6684000000953745]",1,21,52,29,1,72,,,,,,,,,,,,,,,,,,,,,,,,,,,,,,,,,,,,,,,,,,,,,,,,,,,,,,,,,,,,,,,,,,,,,,,,,,,,,,,,,,,,,,,,,,,,,,,,,,,,,,,,,,,,,,,,,,,,,,,,,,,,,,,,,,,,,,,,,,,,,,,,,,,,,,,,,,,,,,,,,
,838440669607,CBA,11/04/2002,001,2023-10-25_12h12.49.944,OS3_Mult_verification,2022.2.4,Win32,59.91970759,,,9,1.1496,1,"[""9"",""return""]","[0.9399999999999977,1.1163000001907335]",1,22,53,3,1,9,,,,,,,,,,,,,,,,,,,,,,,,,,,,,,,,,,,,,,,,,,,,,,,,,,,,,,,,,,,,,,,,,,,,,,,,,,,,,,,,,,,,,,,,,,,,,,,,,,,,,,,,,,,,,,,,,,,,,,,,,,,,,,,,,,,,,,,,,,,,,,,,,,,,,,,,,,,,,,,,,
,838440669607,CBA,11/04/2002,001,2023-10-25_12h12.49.944,OS3_Mult_verification,2022.2.4,Win32,59.91970759,,,21,1.3662,1,"[""2"",""1"",""return""]","[0.9547999997139129,1.1357999997138961,1.3395000000000152]",1,23,54,11,1,21,,,,,,,,,,,,,,,,,,,,,,,,,,,,,,,,,,,,,,,,,,,,,,,,,,,,,,,,,,,,,,,,,,,,,,,,,,,,,,,,,,,,,,,,,,,,,,,,,,,,,,,,,,,,,,,,,,,,,,,,,,,,,,,,,,,,,,,,,,,,,,,,,,,,,,,,,,,,,,,,,
,838440669607,CBA,11/04/2002,001,2023-10-25_12h12.49.944,OS3_Mult_verification,2022.2.4,Win32,59.91970759,,,12,0.9995,1,"[""1"",""2"",""return""]","[0.6345999999046228,0.8154999999999859,0.977499999999992]",1,24,55,5,1,12,,,,,,,,,,,,,,,,,,,,,,,,,,,,,,,,,,,,,,,,,,,,,,,,,,,,,,,,,,,,,,,,,,,,,,,,,,,,,,,,,,,,,,,,,,,,,,,,,,,,,,,,,,,,,,,,,,,,,,,,,,,,,,,,,,,,,,,,,,,,,,,,,,,,,,,,,,,,,,,,,
,838440669607,CBA,11/04/2002,001,2023-10-25_12h12.49.944,OS3_Mult_verification,2022.2.4,Win32,59.91970759,,,56,1.2495,1,"[""5"",""6"",""return""]","[0.8800999999046155,1.0800999999046326,1.2175999999046212]",1,25,56,26,1,56,,,,,,,,,,,,,,,,,,,,,,,,,,,,,,,,,,,,,,,,,,,,,,,,,,,,,,,,,,,,,,,,,,,,,,,,,,,,,,,,,,,,,,,,,,,,,,,,,,,,,,,,,,,,,,,,,,,,,,,,,,,,,,,,,,,,,,,,,,,,,,,,,,,,,,,,,,,,,,,,,
,838440669607,CBA,11/04/2002,001,2023-10-25_12h12.49.944,OS3_Mult_verification,2022.2.4,Win32,59.91970759,,,16,1.1495,1,"[""1"",""6"",""return""]","[0.7867000002861175,0.9853000001907333,1.1235999999046271]",1,26,57,8,1,16,,,,,,,,,,,,,,,,,,,,,,,,,,,,,,,,,,,,,,,,,,,,,,,,,,,,,,,,,,,,,,,,,,,,,,,,,,,,,,,,,,,,,,,,,,,,,,,,,,,,,,,,,,,,,,,,,,,,,,,,,,,,,,,,,,,,,,,,,,,,,,,,,,,,,,,,,,,,,,,,,
,838440669607,CBA,11/04/2002,001,2023-10-25_12h12.49.944,OS3_Mult_verification,2022.2.4,Win32,59.91970759,,,40,1.1829,1,"[""4"",""0"",""return""]","[0.7384000000953677,1.0407999997138973,1.1496999998092576]",1,27,58,20,1,40,,,,,,,,,,,,,,,,,,,,,,,,,,,,,,,,,,,,,,,,,,,,,,,,,,,,,,,,,,,,,,,,,,,,,,,,,,,,,,,,,,,,,,,,,,,,,,,,,,,,,,,,,,,,,,,,,,,,,,,,,,,,,,,,,,,,,,,,,,,,,,,,,,,,,,,,,,,,,,,,,
,838440669607,CBA,11/04/2002,001,2023-10-25_12h12.49.944,OS3_Mult_verification,2022.2.4,Win32,59.91970759,,,28,1.3665,1,"[""2"",""8"",""return""]","[0.9807000002860775,1.2203000001907185,1.339900000095355]",1,28,59,15,1,28,,,,,,,,,,,,,,,,,,,,,,,,,,,,,,,,,,,,,,,,,,,,,,,,,,,,,,,,,,,,,,,,,,,,,,,,,,,,,,,,,,,,,,,,,,,,,,,,,,,,,,,,,,,,,,,,,,,,,,,,,,,,,,,,,,,,,,,,,,,,,,,,,,,,,,,,,,,,,,,,,
,838440669607,CBA,11/04/2002,001,2023-10-25_12h12.49.944,OS3_Mult_verification,2022.2.4,Win32,59.91970759,,,64,1.233,1,"[""6"",""4"",""return""]","[0.7704999999999984,1.0970999999046285,1.2017999997138986]",1,29,60,28,1,64,,,,,,,,,,,,,,,,,,,,,,,,,,,,,,,,,,,,,,,,,,,,,,,,,,,,,,,,,,,,,,,,,,,,,,,,,,,,,,,,,,,,,,,,,,,,,,,,,,,,,,,,,,,,,,,,,,,,,,,,,,,,,,,,,,,,,,,,,,,,,,,,,,,,,,,,,,,,,,,,,
,838440669607,CBA,11/04/2002,001,2023-10-25_12h12.49.944,OS3_Mult_verification,2022.2.4,Win32,59.91970759,,,27,1.5495,1,"[""2"",""7"",""return""]","[1.1663000001907449,1.364500000000021,1.5200000000000102]",1,30,61,14,1,27,,,,,,,,,,,,,,,,,,,,,,,,,,,,,,,,,,,,,,,,,,,,,,,,,,,,,,,,,,,,,,,,,,,,,,,,,,,,,,,,,,,,,,,,,,,,,,,,,,,,,,,,,,,,,,,,,,,,,,,,,,,,,,,,,,,,,,,,,,,,,,,,,,,,,,,,,,,,,,,,,
,838440669607,CBA,11/04/2002,001,2023-10-25_12h12.49.944,OS3_Mult_verification,2022.2.4,Win32,59.91970759,,,,,,,,,,,,,,space,8.5487,,,,,,,,,,,,,,,,,,,,,,,,,,,,,,,,,,,,,,,,,,,,,,,,,,,,,,,,,,,,,,,,,,,,,,,,,,,,,,,,,,,,,,,,,,,,,,,,,,,,,,,,,,,,,,,,,,,,,,,,,,,,,,,,,,,,,,,,,,,,,,,,,,,,,,,,,,,,,,,
,838440669607,CBA,11/04/2002,001,2023-10-25_12h12.49.944,OS3_Mult_verification,2022.2.4,Win32,59.91970759,,,,,,,,,,,,,,,,,,,,,,,,,,,,,,,,,,,,,,,,,,,,,,,,,,,,,,,,,,,,,,,,,,,,,,,,,,,,,,,,,,,,,,,,,,,,,,,,,,,,,,,,,,,,,,,,,,,,,,,,,,,,,,,,,,,,,,,,,,,,,,,,,,,,,,,,,,,,,,,,,,,,,,,,,,,,,,
,838440669607,CBA,11/04/2002,001,2023-10-25_12h12.49.944,OS3_Mult_verification,2022.2.4,Win32,59.91970759,,,,,,,,,,,,,,,,space,2.5345,,,,,,,,,,,,,,,,,,,,,,,,,,,,,,,,,,,,,,,,,,,,,,,,,,,,,,,,,,,,,,,,,,,,,,,,,,,,,,,,,,,,,,,,,,,,,,,,,,,,,,,,,,,,,,,,,,,,,,,,,,,,,,,,,,,,,,,,,,,,,,,,,,,,,,,,,,,,,
,838440669607,CBA,11/04/2002,001,2023-10-25_12h12.49.944,OS3_Mult_verification,2022.2.4,Win32,59.91970759,,,,,,,,,,,,,,,,,,20,2.1187,1,"[""2"",""0"",""return""]","[1.3455999999046355,1.563999999999993,1.835199999809248]",0,0,0,1,1,2 × 10 =,20,,,,,,,,,,,,,,,,,,,,,,,,,,,,,,,,,,,,,,,,,,,,,,,,,,,,,,,,,,,,,,,,,,,,,,,,,,,,,,,,,,,,,,,,,,,,,,,,,,,,,,,,,,,,,,,,,,,,,,,,,,,,,,,,,,,,,,,,,,,,,,,,,
,838440669607,CBA,11/04/2002,001,2023-10-25_12h12.49.944,OS3_Mult_verification,2022.2.4,Win32,59.91970759,,,,,,,,,,,,,,,,,,7,1.6492,1,"[""7"",""return""]","[1.216699999809265,1.3600999999046337]",0,1,1,0,1,1 × 7 =,7,,,,,,,,,,,,,,,,,,,,,,,,,,,,,,,,,,,,,,,,,,,,,,,,,,,,,,,,,,,,,,,,,,,,,,,,,,,,,,,,,,,,,,,,,,,,,,,,,,,,,,,,,,,,,,,,,,,,,,,,,,,,,,,,,,,,,,,,,,,,,,,,,
,838440669607,CBA,11/04/2002,001,2023-10-25_12h12.49.944,OS3_Mult_verification,2022.2.4,Win32,59.91970759,,,,,,,,,,,,,,,,,,22,1.775,1,"[""2"",""2"",""return""]","[1.2164999999999964,1.3425999999046496,1.4906999998092658]",0,2,2,2,1,2 × 11 =,22,,,,,,,,,,,,,,,,,,,,,,,,,,,,,,,,,,,,,,,,,,,,,,,,,,,,,,,,,,,,,,,,,,,,,,,,,,,,,,,,,,,,,,,,,,,,,,,,,,,,,,,,,,,,,,,,,,,,,,,,,,,,,,,,,,,,,,,,,,,,,,,,,
,838440669607,CBA,11/04/2002,001,2023-10-25_12h12.49.944,OS3_Mult_verification,2022.2.4,Win32,59.91970759,,,,,,,,,,,,,,,,,,,,,,,,,,,,,,,,,,,,,,,,,,,,,,,,,,,,,,,,,,,,,,,,,,,,,,,,,,,,,,,,,,,,,,,,,,,,,,,,,,,,,,,,,,,,,,,,,,,,,,,,,,,,,,,,,,,,,,,,,,,,,,,,,,,,,,,,,,,,,,,,,,,,,,,,,,,,,,
,838440669607,CBA,11/04/2002,001,2023-10-25_12h12.49.944,OS3_Mult_verification,2022.2.4,Win32,59.91970759,,,,,,,,,,,,,,,,,,,,,,,,,,,,,,,,,,,,,,,,,,,,,,,,,,,,,,,,,,,,,,,,,,,,,,,,,,,,,,,,,,,,,,,,,,,,,,,,,,,,,,,,,,,,,,,,,,,,,,,,,,,,,,,,,,,,,,,,,,,,,,,,,,,,,,,,,,,,,,,,,,,,,,,,,,,,,,
,838440669607,CBA,11/04/2002,001,2023-10-25_12h12.49.944,OS3_Mult_verification,2022.2.4,Win32,59.91970759,,,,,,,,,,,,,,,,,,6,1.8175,1,"[""6"",""return""]","[1.352799999713909,1.5324999999999989]",,,,,,2 × 3 =,6,0,0,0,0,1,,,,,,,,,,,,,,,,,,,,,,,,,,,,,,,,,,,,,,,,,,,,,,,,,,,,,,,,,,,,,,,,,,,,,,,,,,,,,,,,,,,,,,,,,,,,,,,,,,,,,,,,,,,,,,,,,,,,,,,,,,,,,,,,,,,,,,,,,,,,
,838440669607,CBA,11/04/2002,001,2023-10-25_12h12.49.944,OS3_Mult_verification,2022.2.4,Win32,59.91970759,,,,,,,,,,,,,,,,,,40,2.815,1,"[""4"",""0"",""return""]","[2.0237999997139013,2.366099999904634,2.5138999996185305]",,,,,,5 × 8 =,40,0,1,1,1,1,,,,,,,,,,,,,,,,,,,,,,,,,,,,,,,,,,,,,,,,,,,,,,,,,,,,,,,,,,,,,,,,,,,,,,,,,,,,,,,,,,,,,,,,,,,,,,,,,,,,,,,,,,,,,,,,,,,,,,,,,,,,,,,,,,,,,,,,,,,,
,838440669607,CBA,11/04/2002,001,2023-10-25_12h12.49.944,OS3_Mult_verification,2022.2.4,Win32,59.91970759,,,,,,,,,,,,,,,,,,12,2.1325,1,"[""1"",""2"",""return""]","[1.5307999997139063,1.7031999998092715,1.8354999999999961]",,,,,,3 × 4 =,12,0,2,2,2,1,,,,,,,,,,,,,,,,,,,,,,,,,,,,,,,,,,,,,,,,,,,,,,,,,,,,,,,,,,,,,,,,,,,,,,,,,,,,,,,,,,,,,,,,,,,,,,,,,,,,,,,,,,,,,,,,,,,,,,,,,,,,,,,,,,,,,,,,,,,,
,838440669607,CBA,11/04/2002,001,2023-10-25_12h12.49.944,OS3_Mult_verification,2022.2.4,Win32,59.91970759,,,,,,,,,,,,,,,,,,15,1.6489,1,"[""1"",""5"",""return""]","[0.9994999999999834,1.1985999999046157,1.3540999999046335]",,,,,,5 × 3 =,15,0,3,3,3,1,,,,,,,,,,,,,,,,,,,,,,,,,,,,,,,,,,,,,,,,,,,,,,,,,,,,,,,,,,,,,,,,,,,,,,,,,,,,,,,,,,,,,,,,,,,,,,,,,,,,,,,,,,,,,,,,,,,,,,,,,,,,,,,,,,,,,,,,,,,,
,838440669607,CBA,11/04/2002,001,2023-10-25_12h12.49.944,OS3_Mult_verification,2022.2.4,Win32,59.91970759,,,,,,,,,,,,,,,,,,8,1.8158,1,"[""8"",""return""]","[1.350900000095379,1.518900000095357]",,,,,,2 × 4 =,8,0,4,4,4,1,,,,,,,,,,,,,,,,,,,,,,,,,,,,,,,,,,,,,,,,,,,,,,,,,,,,,,,,,,,,,,,,,,,,,,,,,,,,,,,,,,,,,,,,,,,,,,,,,,,,,,,,,,,,,,,,,,,,,,,,,,,,,,,,,,,,,,,,,,,,
,838440669607,CBA,11/04/2002,001,2023-10-25_12h12.49.944,OS3_Mult_verification,2022.2.4,Win32,59.91970759,,,,,,,,,,,,,,,,,,4,1.5327,1,"[""4"",""return""]","[1.065799999713903,1.231199999809263]",,,,,,2 × 2 =,4,0,5,5,5,1,,,,,,,,,,,,,,,,,,,,,,,,,,,,,,,,,,,,,,,,,,,,,,,,,,,,,,,,,,,,,,,,,,,,,,,,,,,,,,,,,,,,,,,,,,,,,,,,,,,,,,,,,,,,,,,,,,,,,,,,,,,,,,,,,,,,,,,,,,,,
,838440669607,CBA,11/04/2002,001,2023-10-25_12h12.49.944,OS3_Mult_verification,2022.2.4,Win32,59.91970759,,,,,,,,,,,,,,,,,,20,2.0325,1,"[""2"",""0"",""return""]","[1.2563000001907199,1.5819000000953451,1.7399999999999807]",,,,,,4 × 5 =,20,0,6,6,6,1,,,,,,,,,,,,,,,,,,,,,,,,,,,,,,,,,,,,,,,,,,,,,,,,,,,,,,,,,,,,,,,,,,,,,,,,,,,,,,,,,,,,,,,,,,,,,,,,,,,,,,,,,,,,,,,,,,,,,,,,,,,,,,,,,,,,,,,,,,,,
,838440669607,CBA,11/04/2002,001,2023-10-25_12h12.49.944,OS3_Mult_verification,2022.2.4,Win32,59.91970759,,,,,,,,,,,,,,,,,,9,4.8653,1,"[""9"",""return""]","[4.265999999999991,4.5745000000000005]",,,,,,3 × 3 =,9,0,7,7,7,1,,,,,,,,,,,,,,,,,,,,,,,,,,,,,,,,,,,,,,,,,,,,,,,,,,,,,,,,,,,,,,,,,,,,,,,,,,,,,,,,,,,,,,,,,,,,,,,,,,,,,,,,,,,,,,,,,,,,,,,,,,,,,,,,,,,,,,,,,,,,
,838440669607,CBA,11/04/2002,001,2023-10-25_12h12.49.944,OS3_Mult_verification,2022.2.4,Win32,59.91970759,,,,,,,,,,,,,,,,,,10,2.2921,1,"[""1"",""0"",""return""]","[1.4919999999999902,1.864699999809261,2.0001999998092685]",,,,,,5 × 2 =,10,0,8,8,8,1,,,,,,,,,,,,,,,,,,,,,,,,,,,,,,,,,,,,,,,,,,,,,,,,,,,,,,,,,,,,,,,,,,,,,,,,,,,,,,,,,,,,,,,,,,,,,,,,,,,,,,,,,,,,,,,,,,,,,,,,,,,,,,,,,,,,,,,,,,,,
,838440669607,CBA,11/04/2002,001,2023-10-25_12h12.49.944,OS3_Mult_verification,2022.2.4,Win32,59.91970759,,,,,,,,,,,,,,,,,,16,2.5491,1,"[""1"",""6"",""return""]","[1.831300000190737,2.114199999809273,2.2545000000000073]",,,,,,4 × 4 =,16,0,9,9,9,1,,,,,,,,,,,,,,,,,,,,,,,,,,,,,,,,,,,,,,,,,,,,,,,,,,,,,,,,,,,,,,,,,,,,,,,,,,,,,,,,,,,,,,,,,,,,,,,,,,,,,,,,,,,,,,,,,,,,,,,,,,,,,,,,,,,,,,,,,,,,
,838440669607,CBA,11/04/2002,001,2023-10-25_12h12.49.944,OS3_Mult_verification,2022.2.4,Win32,59.91970759,,,,,,,,,,,,,,,,,,16,2.999,0,"[""1"",""6"",""return""]","[2.0419000000953815,2.321800000190734,2.706400000095357]",,,,,,8 × 3 =,24,0,10,10,10,1,,,,,,,,,,,,,,,,,,,,,,,,,,,,,,,,,,,,,,,,,,,,,,,,,,,,,,,,,,,,,,,,,,,,,,,,,,,,,,,,,,,,,,,,,,,,,,,,,,,,,,,,,,,,,,,,,,,,,,,,,,,,,,,,,,,,,,,,,,,,
,838440669607,CBA,11/04/2002,001,2023-10-25_12h12.49.944,OS3_Mult_verification,2022.2.4,Win32,59.91970759,,,,,,,,,,,,,,,,,,30,4.0414,1,"[""2"",""backspace"",""3"",""0"",""return""]","[2.6503000001907537,3.1144000000953724,3.2891999998092842,3.4824000000953674,3.753300000190734]",,,,,,6 × 5 =,30,0,11,11,11,1,,,,,,,,,,,,,,,,,,,,,,,,,,,,,,,,,,,,,,,,,,,,,,,,,,,,,,,,,,,,,,,,,,,,,,,,,,,,,,,,,,,,,,,,,,,,,,,,,,,,,,,,,,,,,,,,,,,,,,,,,,,,,,,,,,,,,,,,,,,,
,838440669607,CBA,11/04/2002,001,2023-10-25_12h12.49.944,OS3_Mult_verification,2022.2.4,Win32,59.91970759,,,,,,,,,,,,,,,,,,14,2.9085,1,"[""1"",""4"",""return""]","[1.8084000000953608,2.439400000095361,2.616299999713874]",,,,,,7 × 2 =,14,0,12,12,12,1,,,,,,,,,,,,,,,,,,,,,,,,,,,,,,,,,,,,,,,,,,,,,,,,,,,,,,,,,,,,,,,,,,,,,,,,,,,,,,,,,,,,,,,,,,,,,,,,,,,,,,,,,,,,,,,,,,,,,,,,,,,,,,,,,,,,,,,,,,,,
,838440669607,CBA,11/04/2002,001,2023-10-25_12h12.49.944,OS3_Mult_verification,2022.2.4,Win32,59.91970759,,,,,,,,,,,,,,,,,,28,4.2819,0,"[""2"",""8"",""return""]","[3.486799999713895,3.836099999904633,3.986699999809275]",,,,,,3 × 9 =,27,0,13,13,13,1,,,,,,,,,,,,,,,,,,,,,,,,,,,,,,,,,,,,,,,,,,,,,,,,,,,,,,,,,,,,,,,,,,,,,,,,,,,,,,,,,,,,,,,,,,,,,,,,,,,,,,,,,,,,,,,,,,,,,,,,,,,,,,,,,,,,,,,,,,,,
,838440669607,CBA,11/04/2002,001,2023-10-25_12h12.49.944,OS3_Mult_verification,2022.2.4,Win32,59.91970759,,,,,,,,,,,,,,,,,,16,2.4586,1,"[""1"",""6"",""return""]","[1.7254000000953624,2.0180999999046207,2.1761999998092563]",,,,,,2 × 8 =,16,0,14,14,14,1,,,,,,,,,,,,,,,,,,,,,,,,,,,,,,,,,,,,,,,,,,,,,,,,,,,,,,,,,,,,,,,,,,,,,,,,,,,,,,,,,,,,,,,,,,,,,,,,,,,,,,,,,,,,,,,,,,,,,,,,,,,,,,,,,,,,,,,,,,,,
,838440669607,CBA,11/04/2002,001,2023-10-25_12h12.49.944,OS3_Mult_verification,2022.2.4,Win32,59.91970759,,,,,,,,,,,,,,,,,,21,9.6072,0,"[""2"",""1"",""return""]","[7.766200000286091,8.722800000190745,9.315300000190774]",,,,,,4 × 6 =,24,0,15,15,15,1,,,,,,,,,,,,,,,,,,,,,,,,,,,,,,,,,,,,,,,,,,,,,,,,,,,,,,,,,,,,,,,,,,,,,,,,,,,,,,,,,,,,,,,,,,,,,,,,,,,,,,,,,,,,,,,,,,,,,,,,,,,,,,,,,,,,,,,,,,,,
,838440669607,CBA,11/04/2002,001,2023-10-25_12h12.49.944,OS3_Mult_verification,2022.2.4,Win32,59.91970759,,,,,,,,,,,,,,,,,,21,2.3916,1,"[""2"",""1"",""return""]","[1.5209999999999582,1.7163000001906994,2.102099999904624]",,,,,,7 × 3 =,21,0,16,16,16,1,,,,,,,,,,,,,,,,,,,,,,,,,,,,,,,,,,,,,,,,,,,,,,,,,,,,,,,,,,,,,,,,,,,,,,,,,,,,,,,,,,,,,,,,,,,,,,,,,,,,,,,,,,,,,,,,,,,,,,,,,,,,,,,,,,,,,,,,,,,,
,838440669607,CBA,11/04/2002,001,2023-10-25_12h12.49.944,OS3_Mult_verification,2022.2.4,Win32,59.91970759,,,,,,,,,,,,,,,,,,32,3.9916,0,"[""3"",""2"",""return""]","[3.182599999904653,3.4999000000953515,3.7098000001907394]",,,,,,9 × 3 =,27,0,17,17,17,1,,,,,,,,,,,,,,,,,,,,,,,,,,,,,,,,,,,,,,,,,,,,,,,,,,,,,,,,,,,,,,,,,,,,,,,,,,,,,,,,,,,,,,,,,,,,,,,,,,,,,,,,,,,,,,,,,,,,,,,,,,,,,,,,,,,,,,,,,,,,
,838440669607,CBA,11/04/2002,001,2023-10-25_12h12.49.944,OS3_Mult_verification,2022.2.4,Win32,59.91970759,,,,,,,,,,,,,,,,,,36,7.5078,0,"[""3"",""6"",""return""]","[6.724600000381486,7.04849999999999,7.21590000009536]",,,,,,4 × 7 =,28,0,18,18,18,1,,,,,,,,,,,,,,,,,,,,,,,,,,,,,,,,,,,,,,,,,,,,,,,,,,,,,,,,,,,,,,,,,,,,,,,,,,,,,,,,,,,,,,,,,,,,,,,,,,,,,,,,,,,,,,,,,,,,,,,,,,,,,,,,,,,,,,,,,,,,
,838440669607,CBA,11/04/2002,001,2023-10-25_12h12.49.944,OS3_Mult_verification,2022.2.4,Win32,59.91970759,,,,,,,,,,,,,,,,,,18,2.5087,1,"[""1"",""8"",""return""]","[1.5337000002861032,2.047599999904662,2.2203000001907185]",,,,,,2 × 9 =,18,0,19,19,19,1,,,,,,,,,,,,,,,,,,,,,,,,,,,,,,,,,,,,,,,,,,,,,,,,,,,,,,,,,,,,,,,,,,,,,,,,,,,,,,,,,,,,,,,,,,,,,,,,,,,,,,,,,,,,,,,,,,,,,,,,,,,,,,,,,,,,,,,,,,,,
,838440669607,CBA,11/04/2002,001,2023-10-25_12h12.49.944,OS3_Mult_verification,2022.2.4,Win32,59.91970759,,,,,,,,,,,,,,,,,,72,7.2575,1,"[""7"",""2"",""return""]","[6.119399999618565,6.631500000000017,6.964899999618581]",,,,,,9 × 8 =,72,0,20,20,20,1,,,,,,,,,,,,,,,,,,,,,,,,,,,,,,,,,,,,,,,,,,,,,,,,,,,,,,,,,,,,,,,,,,,,,,,,,,,,,,,,,,,,,,,,,,,,,,,,,,,,,,,,,,,,,,,,,,,,,,,,,,,,,,,,,,,,,,,,,,,,
,838440669607,CBA,11/04/2002,001,2023-10-25_12h12.49.944,OS3_Mult_verification,2022.2.4,Win32,59.91970759,,,,,,,,,,,,,,,,,,42,5.1084,1,"[""4"",""2"",""return""]","[2.75769999980929,3.1366999998092524,4.821099999904618]",,,,,,7 × 6 =,42,0,21,21,21,1,,,,,,,,,,,,,,,,,,,,,,,,,,,,,,,,,,,,,,,,,,,,,,,,,,,,,,,,,,,,,,,,,,,,,,,,,,,,,,,,,,,,,,,,,,,,,,,,,,,,,,,,,,,,,,,,,,,,,,,,,,,,,,,,,,,,,,,,,,,,
,838440669607,CBA,11/04/2002,001,2023-10-25_12h12.49.944,OS3_Mult_verification,2022.2.4,Win32,59.91970759,,,,,,,,,,,,,,,,,,,11.3568,0,,,,,,,,6 × 9 =,54,0,22,22,22,1,,,,,,,,,,,,,,,,,,,,,,,,,,,,,,,,,,,,,,,,,,,,,,,,,,,,,,,,,,,,,,,,,,,,,,,,,,,,,,,,,,,,,,,,,,,,,,,,,,,,,,,,,,,,,,,,,,,,,,,,,,,,,,,,,,,,,,,,,,,,
,838440669607,CBA,11/04/2002,001,2023-10-25_12h12.49.944,OS3_Mult_verification,2022.2.4,Win32,59.91970759,,,,,,,,,,,,,,,,space,1.4017,,,,,,,,,,,,,,,,,,space,12.0094,321,2.6112,1,"[""3"",""2"",""1"",""return""]","[0.4501999998092856,0.7535999999046794,1.0274000000953833,2.5764000000953615]",0,0,0,1,1,3,321,Audio/321.mp3,practice,,,,,,,,,,,,,,,,,,,,,,,,,,,,,,,,,,,,,,,,,,,,,,,,,,,,,,,,,,,,,,,,,,,,,,,,,,,,,,,,,,,,,,,,,,,,,,,,,,,,,,,,,,,,,,,,,,,,,,,,,,,,
,838440669607,CBA,11/04/2002,001,2023-10-25_12h12.49.944,OS3_Mult_verification,2022.2.4,Win32,59.91970759,,,,,,,,,,,,,,,,,,,,,,,,,,,,,,,,,,,,,123,2.4827,1,"[""1"",""2"",""3"",""3"",""backspace"",""return""]","[0.2389999999999759,0.6167999997138622,0.7334999999999923,0.9167999997138736,1.9332999997138813,2.433199999809233]",0,1,1,0,1,3,123,Audio/123.mp3,practice,,,,,,,,,,,,,,,,,,,,,,,,,,,,,,,,,,,,,,,,,,,,,,,,,,,,,,,,,,,,,,,,,,,,,,,,,,,,,,,,,,,,,,,,,,,,,,,,,,,,,,,,,,,,,,,,,,,,,,,,,,,,
,838440669607,CBA,11/04/2002,001,2023-10-25_12h12.49.944,OS3_Mult_verification,2022.2.4,Win32,59.91970759,,,,,,,,,,,,,,,,,,,,,,,,,,,,,,,,,,,,,911,2.3868,1,"[""1"",""backspace"",""9"",""1"",""1"",""return""]","[0.32150000000001455,1.1734000000953984,1.56820000028614,1.8000000000000114,2.06660000038147,2.3428000001907776]",0,2,2,2,1,3,911,Audio/911.mp3,practice,,,,,,,,,,,,,,,,,,,,,,,,,,,,,,,,,,,,,,,,,,,,,,,,,,,,,,,,,,,,,,,,,,,,,,,,,,,,,,,,,,,,,,,,,,,,,,,,,,,,,,,,,,,,,,,,,,,,,,,,,,,,
,838440669607,CBA,11/04/2002,001,2023-10-25_12h12.49.944,OS3_Mult_verification,2022.2.4,Win32,59.91970759,,,,,,,,,,,,,,,,,,,,,,,,,,,,,,,,,,,,,46,1.4372,1,"[""4"",""6"",""return""]","[0.9500999999046371,1.1502999997138659,1.4000999999046257]",,,,,,2,46,Audio/46.mp3,EGNER,0,0,0,0,1,,,,,,,,,,,,,,,,,,,,,,,,,,,,,,,,,,,,,,,,,,,,,,,,,,,,,,,,,,,,,,,,,,,,,,,,,,,,,,,,,,,,,,,,,,,,,,,,,,,,,,,,,,,,,,,,,,,,,,,
,838440669607,CBA,11/04/2002,001,2023-10-25_12h12.49.944,OS3_Mult_verification,2022.2.4,Win32,59.91970759,,,,,,,,,,,,,,,,,,,,,,,,,,,,,,,,,,,,,82,0.9707,1,"[""8"",""2"",""return""]","[0.3609000000953415,0.7239000000953411,0.9334000000953893]",,,,,,2,82,Audio/82.mp3,EGNER,0,1,1,1,1,,,,,,,,,,,,,,,,,,,,,,,,,,,,,,,,,,,,,,,,,,,,,,,,,,,,,,,,,,,,,,,,,,,,,,,,,,,,,,,,,,,,,,,,,,,,,,,,,,,,,,,,,,,,,,,,,,,,,,,
,838440669607,CBA,11/04/2002,001,2023-10-25_12h12.49.944,OS3_Mult_verification,2022.2.4,Win32,59.91970759,,,,,,,,,,,,,,,,,,,,,,,,,,,,,,,,,,,,,,,,,,,,,,,,,,,,,,,,0,0,0,0,1,digitSpan_stim/twoAudio.xlsx,,,,,,,,,,,,,,,,,,,,,,,,,,,,,,,,,,,,,,,,,,,,,,,,,,,,,,,,,,,,,,,,,,,,,,,,,,,,,,,,,,,,,,,,,,,,,,,,,,,,,,,,,,,,,,,,,
,838440669607,CBA,11/04/2002,001,2023-10-25_12h12.49.944,OS3_Mult_verification,2022.2.4,Win32,59.91970759,,,,,,,,,,,,,,,,,,,,,,,,,,,,,,,,,,,,,157,1.4162,1,"[""1"",""5"",""7"",""return""]","[0.5502000002861109,0.8669000000953702,1.0983000001907044,1.3741000003814747]",,,,,,3,157,Audio/157.mp3,EGNER,0,0,0,0,1,,,,,,,,,,,,,,,,,,,,,,,,,,,,,,,,,,,,,,,,,,,,,,,,,,,,,,,,,,,,,,,,,,,,,,,,,,,,,,,,,,,,,,,,,,,,,,,,,,,,,,,,,,,,,,,,,,,,,,,
,838440669607,CBA,11/04/2002,001,2023-10-25_12h12.49.944,OS3_Mult_verification,2022.2.4,Win32,59.91970759,,,,,,,,,,,,,,,,,,,,,,,,,,,,,,,,,,,,,397,1.5707,1,"[""3"",""9"",""7"",""return""]","[0.5788000001907108,0.9001000003814852,1.3197000002861046,1.5333000001907635]",,,,,,3,397,Audio/397.mp3,EGNER,0,1,1,1,1,,,,,,,,,,,,,,,,,,,,,,,,,,,,,,,,,,,,,,,,,,,,,,,,,,,,,,,,,,,,,,,,,,,,,,,,,,,,,,,,,,,,,,,,,,,,,,,,,,,,,,,,,,,,,,,,,,,,,,,
,838440669607,CBA,11/04/2002,001,2023-10-25_12h12.49.944,OS3_Mult_verification,2022.2.4,Win32,59.91970759,,,,,,,,,,,,,,,,,,,,,,,,,,,,,,,,,,,,,,,,,,,,,,,,,,,,,,,,0,1,1,1,1,digitSpan_stim/threeAudio.xlsx,,,,,,,,,,,,,,,,,,,,,,,,,,,,,,,,,,,,,,,,,,,,,,,,,,,,,,,,,,,,,,,,,,,,,,,,,,,,,,,,,,,,,,,,,,,,,,,,,,,,,,,,,,,,,,,,,
,838440669607,CBA,11/04/2002,001,2023-10-25_12h12.49.944,OS3_Mult_verification,2022.2.4,Win32,59.91970759,,,,,,,,,,,,,,,,,,,,,,,,,,,,,,,,,,,,,6352,1.4826,1,"[""6"",""3"",""5"",""2"",""return""]","[0.25240000009534924,0.618199999809292,0.8718000001907171,1.2334999999999923,1.4369000000953633]",,,,,,4,6352,Audio/6352.mp3,EGNER,0,0,0,0,1,,,,,,,,,,,,,,,,,,,,,,,,,,,,,,,,,,,,,,,,,,,,,,,,,,,,,,,,,,,,,,,,,,,,,,,,,,,,,,,,,,,,,,,,,,,,,,,,,,,,,,,,,,,,,,,,,,,,,,,
,838440669607,CBA,11/04/2002,001,2023-10-25_12h12.49.944,OS3_Mult_verification,2022.2.4,Win32,59.91970759,,,,,,,,,,,,,,,,,,,,,,,,,,,,,,,,,,,,,9184,1.7993,1,"[""9"",""1"",""8"",""4"",""return""]","[0.20439999961854483,0.6502999997139227,1.0335000000000036,1.4741999998092865,1.7598999996185398]",,,,,,4,9184,Audio/9184.mp3,EGNER,0,1,1,1,1,,,,,,,,,,,,,,,,,,,,,,,,,,,,,,,,,,,,,,,,,,,,,,,,,,,,,,,,,,,,,,,,,,,,,,,,,,,,,,,,,,,,,,,,,,,,,,,,,,,,,,,,,,,,,,,,,,,,,,,
,838440669607,CBA,11/04/2002,001,2023-10-25_12h12.49.944,OS3_Mult_verification,2022.2.4,Win32,59.91970759,,,,,,,,,,,,,,,,,,,,,,,,,,,,,,,,,,,,,,,,,,,,,,,,,,,,,,,,0,2,2,2,1,digitSpan_stim/fourAudio.xlsx,,,,,,,,,,,,,,,,,,,,,,,,,,,,,,,,,,,,,,,,,,,,,,,,,,,,,,,,,,,,,,,,,,,,,,,,,,,,,,,,,,,,,,,,,,,,,,,,,,,,,,,,,,,,,,,,,
,838440669607,CBA,11/04/2002,001,2023-10-25_12h12.49.944,OS3_Mult_verification,2022.2.4,Win32,59.91970759,,,,,,,,,,,,,,,,,,,,,,,,,,,,,,,,,,,,,59281,2.5992,1,"[""5"",""9"",""2"",""8"",""1"",""return""]","[0.2877000002861223,0.6502000002860768,1.2314999999999827,1.7108000001907158,2.224099999904638,2.5530999999046458]",,,,,,5,59281,Audio/59281.mp3,EGNER,0,0,0,0,1,,,,,,,,,,,,,,,,,,,,,,,,,,,,,,,,,,,,,,,,,,,,,,,,,,,,,,,,,,,,,,,,,,,,,,,,,,,,,,,,,,,,,,,,,,,,,,,,,,,,,,,,,,,,,,,,,,,,,,,
,838440669607,CBA,11/04/2002,001,2023-10-25_12h12.49.944,OS3_Mult_verification,2022.2.4,Win32,59.91970759,,,,,,,,,,,,,,,,,,,,,,,,,,,,,,,,,,,,,64738,2.7035,1,"[""6"",""4"",""7"",""3"",""8"",""return""]","[0.6836999998092779,1.1003000001907708,1.4003000001907253,1.8948000001907417,2.333300000190718,2.6501999998092742]",,,,,,5,64738,Audio/64738.mp3,EGNER,0,1,1,1,1,,,,,,,,,,,,,,,,,,,,,,,,,,,,,,,,,,,,,,,,,,,,,,,,,,,,,,,,,,,,,,,,,,,,,,,,,,,,,,,,,,,,,,,,,,,,,,,,,,,,,,,,,,,,,,,,,,,,,,,
,838440669607,CBA,11/04/2002,001,2023-10-25_12h12.49.944,OS3_Mult_verification,2022.2.4,Win32,59.91970759,,,,,,,,,,,,,,,,,,,,,,,,,,,,,,,,,,,,,,,,,,,,,,,,,,,,,,,,0,3,3,3,1,digitSpan_stim/fiveAudio.xlsx,,,,,,,,,,,,,,,,,,,,,,,,,,,,,,,,,,,,,,,,,,,,,,,,,,,,,,,,,,,,,,,,,,,,,,,,,,,,,,,,,,,,,,,,,,,,,,,,,,,,,,,,,,,,,,,,,
,838440669607,CBA,11/04/2002,001,2023-10-25_12h12.49.944,OS3_Mult_verification,2022.2.4,Win32,59.91970759,,,,,,,,,,,,,,,,,,,,,,,,,,,,,,,,,,,,,396712,3.0032,0,"[""3"",""9"",""6"",""7"",""1"",""2"",""return""]","[0.5501999998093083,1.214899999618524,1.8013999996185248,2.0665999999046676,2.5163999996185566,2.7163999996185453,2.9663999996185453]",,,,,,6,396172,Audio/396172.mp3,EGNER,0,0,0,0,1,,,,,,,,,,,,,,,,,,,,,,,,,,,,,,,,,,,,,,,,,,,,,,,,,,,,,,,,,,,,,,,,,,,,,,,,,,,,,,,,,,,,,,,,,,,,,,,,,,,,,,,,,,,,,,,,,,,,,,,
,838440669607,CBA,11/04/2002,001,2023-10-25_12h12.49.944,OS3_Mult_verification,2022.2.4,Win32,59.91970759,,,,,,,,,,,,,,,,,,,,,,,,,,,,,,,,,,,,,594631,4.432,1,"[""5"",""9"",""4"",""6"",""3"",""1"",""return""]","[1.6999999999999886,2.0765999999046016,2.748099999904639,3.0496999998092633,3.6996999998092406,3.982899999618496,4.399499999999989]",,,,,,6,594631,Audio/594631.mp3,EGNER,0,1,1,1,1,,,,,,,,,,,,,,,,,,,,,,,,,,,,,,,,,,,,,,,,,,,,,,,,,,,,,,,,,,,,,,,,,,,,,,,,,,,,,,,,,,,,,,,,,,,,,,,,,,,,,,,,,,,,,,,,,,,,,,,
,838440669607,CBA,11/04/2002,001,2023-10-25_12h12.49.944,OS3_Mult_verification,2022.2.4,Win32,59.91970759,,,,,,,,,,,,,,,,,,,,,,,,,,,,,,,,,,,,,,,,,,,,,,,,,,,,,,,,0,4,4,4,1,digitSpan_stim/sixAudio.xlsx,,,,,,,,,,,,,,,,,,,,,,,,,,,,,,,,,,,,,,,,,,,,,,,,,,,,,,,,,,,,,,,,,,,,,,,,,,,,,,,,,,,,,,,,,,,,,,,,,,,,,,,,,,,,,,,,,
,838440669607,CBA,11/04/2002,001,2023-10-25_12h12.49.944,OS3_Mult_verification,2022.2.4,Win32,59.91970759,,,,,,,,,,,,,,,,,,,,,,,,,,,,,,,,,,,,,8249173,5.3196,0,"[""8"",""2"",""4"",""9"",""1"",""7"",""3"",""return""]","[1.3710999999046294,1.9499999999999886,2.316500000000019,2.783400000095355,3.2931999998092465,3.7831999998092556,4.349599999904626,5.2828000001907185]",,,,,,7,8241973,Audio/8241973.mp3,EGNER,0,0,0,0,1,,,,,,,,,,,,,,,,,,,,,,,,,,,,,,,,,,,,,,,,,,,,,,,,,,,,,,,,,,,,,,,,,,,,,,,,,,,,,,,,,,,,,,,,,,,,,,,,,,,,,,,,,,,,,,,,,,,,,,,
,838440669607,CBA,11/04/2002,001,2023-10-25_12h12.49.944,OS3_Mult_verification,2022.2.4,Win32,59.91970759,,,,,,,,,,,,,,,,,,,,,,,,,,,,,,,,,,,,,2814367,4.5698,1,"[""2"",""8"",""1"",""4"",""3"",""6"",""7"",""return""]","[1.076699999809307,1.5166999998093047,1.9999000000954084,2.4664000000954047,3.283099999904664,3.6865000000000236,3.9175999999046667,4.521599999904652]",,,,,,7,2814367,Audio/2814367.mp3,EGNER,0,1,1,1,1,,,,,,,,,,,,,,,,,,,,,,,,,,,,,,,,,,,,,,,,,,,,,,,,,,,,,,,,,,,,,,,,,,,,,,,,,,,,,,,,,,,,,,,,,,,,,,,,,,,,,,,,,,,,,,,,,,,,,,,
,838440669607,CBA,11/04/2002,001,2023-10-25_12h12.49.944,OS3_Mult_verification,2022.2.4,Win32,59.91970759,,,,,,,,,,,,,,,,,,,,,,,,,,,,,,,,,,,,,,,,,,,,,,,,,,,,,,,,0,5,5,5,1,digitSpan_stim/sevenAudio.xlsx,,,,,,,,,,,,,,,,,,,,,,,,,,,,,,,,,,,,,,,,,,,,,,,,,,,,,,,,,,,,,,,,,,,,,,,,,,,,,,,,,,,,,,,,,,,,,,,,,,,,,,,,,,,,,,,,,
,838440669607,CBA,11/04/2002,001,2023-10-25_12h12.49.944,OS3_Mult_verification,2022.2.4,Win32,59.91970759,,,,,,,,,,,,,,,,,,,,,,,,,,,,,,,,,,,,,52371864,5.0692,0,"[""5"",""2"",""3"",""7"",""1"",""8"",""6"",""4"",""return""]","[0.9669000000953929,1.3500999999046712,1.6482999997139132,2.033299999713904,2.5664000000953706,3.2664000000953592,4.032799999713916,4.482699999809256,5.02009999990463]",,,,,,8,53827164,Audio/53827164.mp3,EGNER,0,0,0,0,1,,,,,,,,,,,,,,,,,,,,,,,,,,,,,,,,,,,,,,,,,,,,,,,,,,,,,,,,,,,,,,,,,,,,,,,,,,,,,,,,,,,,,,,,,,,,,,,,,,,,,,,,,,,,,,,,,,,,,,,
,838440669607,CBA,11/04/2002,001,2023-10-25_12h12.49.944,OS3_Mult_verification,2022.2.4,Win32,59.91970759,,,,,,,,,,,,,,,,,,,,,,,,,,,,,,,,,,,,,7451239,5.2318,0,"[""7"",""4"",""5"",""1"",""2"",""3"",""9"",""return""]","[1.0209999999999582,1.4750000000000227,2.560400000095342,3.3978000001907276,3.7225999999046735,3.999800000190703,4.599400000095329,5.182800000190696]",,,,,,8,75241739,Audio/75241739.mp3,EGNER,0,1,1,1,1,,,,,,,,,,,,,,,,,,,,,,,,,,,,,,,,,,,,,,,,,,,,,,,,,,,,,,,,,,,,,,,,,,,,,,,,,,,,,,,,,,,,,,,,,,,,,,,,,,,,,,,,,,,,,,,,,,,,,,,
,838440669607,CBA,11/04/2002,001,2023-10-25_12h12.49.944,OS3_Mult_verification,2022.2.4,Win32,59.91970759,,,,,,,,,,,,,,,,,,,,,,,,,,,,,,,,,,,,,,,,,,,,,,,Egner,,,,,,,,,,,,,,,0,0,0,0,1,digitSpan_stim/Egner.xlsx,,,,,,,,,,,,,,,,,,,,,,,,,,,,,,,,,,,,,,,,,,,,,,,,,,,,,,,,,,,,,,,,,,,,,,,,,,,,,,,,,,,,,,,,,,,,,,,,,,,,,,,,,,,
,838440669607,CBA,11/04/2002,001,2023-10-25_12h12.49.944,OS3_Mult_verification,2022.2.4,Win32,59.91970759,,,,,,,,,,,,,,,,,,,,,,,,,,,,,,,,,,,,,97,1.4996,1,"[""9"",""7"",""return""]","[0.79849999999999,1.2000999999046371,1.464899999618524]",,,,,,2,97,Audio/97.mp3,WAIS,0,0,0,0,1,,,,,,,,,,,,,,,,,,,,,,,,,,,,,,,,,,,,,,,,,,,,,,,,,,,,,,,,,,,,,,,,,,,,,,,,,,,,,,,,,,,,,,,,,,,,,,,,,,,,,,,,,,,,,,,,,,,,,,,
,838440669607,CBA,11/04/2002,001,2023-10-25_12h12.49.944,OS3_Mult_verification,2022.2.4,Win32,59.91970759,,,,,,,,,,,,,,,,,,,,,,,,,,,,,,,,,,,,,63,1.0542,1,"[""6"",""3"",""return""]","[0.4169000000953247,0.7074000000953902,1.0168000001907558]",,,,,,2,63,Audio/63.mp3,WAIS,0,1,1,1,1,,,,,,,,,,,,,,,,,,,,,,,,,,,,,,,,,,,,,,,,,,,,,,,,,,,,,,,,,,,,,,,,,,,,,,,,,,,,,,,,,,,,,,,,,,,,,,,,,,,,,,,,,,,,,,,,,,,,,,,
,838440669607,CBA,11/04/2002,001,2023-10-25_12h12.49.944,OS3_Mult_verification,2022.2.4,Win32,59.91970759,,,,,,,,,,,,,,,,,,,,,,,,,,,,,,,,,,,,,,,,,,,,,,,,,,,,,,,,0,0,0,0,1,digitSpan_stim/twoWAIS.xlsx,,,,,,,,,,,,,,,,,,,,,,,,,,,,,,,,,,,,,,,,,,,,,,,,,,,,,,,,,,,,,,,,,,,,,,,,,,,,,,,,,,,,,,,,,,,,,,,,,,,,,,,,,,,,,,,,,
,838440669607,CBA,11/04/2002,001,2023-10-25_12h12.49.944,OS3_Mult_verification,2022.2.4,Win32,59.91970759,,,,,,,,,,,,,,,,,,,,,,,,,,,,,,,,,,,,,582,1.2042,1,"[""5"",""8"",""2"",""return""]","[0.2669000000954611,0.5149999999999864,0.9650000000000318,1.1650000000000773]",,,,,,3,582,Audio/582.mp3,WAIS,0,0,0,0,1,,,,,,,,,,,,,,,,,,,,,,,,,,,,,,,,,,,,,,,,,,,,,,,,,,,,,,,,,,,,,,,,,,,,,,,,,,,,,,,,,,,,,,,,,,,,,,,,,,,,,,,,,,,,,,,,,,,,,,,
,838440669607,CBA,11/04/2002,001,2023-10-25_12h12.49.944,OS3_Mult_verification,2022.2.4,Win32,59.91970759,,,,,,,,,,,,,,,,,,,,,,,,,,,,,,,,,,,,,694,1.1872,1,"[""6"",""9"",""4"",""return""]","[0.31690000009541563,0.5169000000953474,0.8668000001907785,1.1499999999999773]",,,,,,3,694,Audio/694.mp3,WAIS,0,1,1,1,1,,,,,,,,,,,,,,,,,,,,,,,,,,,,,,,,,,,,,,,,,,,,,,,,,,,,,,,,,,,,,,,,,,,,,,,,,,,,,,,,,,,,,,,,,,,,,,,,,,,,,,,,,,,,,,,,,,,,,,,
,838440669607,CBA,11/04/2002,001,2023-10-25_12h12.49.944,OS3_Mult_verification,2022.2.4,Win32,59.91970759,,,,,,,,,,,,,,,,,,,,,,,,,,,,,,,,,,,,,,,,,,,,,,,,,,,,,,,,0,1,1,1,1,digitSpan_stim/threeWAIS.xlsx,,,,,,,,,,,,,,,,,,,,,,,,,,,,,,,,,,,,,,,,,,,,,,,,,,,,,,,,,,,,,,,,,,,,,,,,,,,,,,,,,,,,,,,,,,,,,,,,,,,,,,,,,,,,,,,,,
,838440669607,CBA,11/04/2002,001,2023-10-25_12h12.49.944,OS3_Mult_verification,2022.2.4,Win32,59.91970759,,,,,,,,,,,,,,,,,,,,,,,,,,,,,,,,,,,,,7286,2.4847,1,"[""7"",""2"",""8"",""6"",""return""]","[0.6439000000954138,1.2454999999999927,1.8815000000000737,2.2166000003815043,2.4372000002861114]",,,,,,4,7286,Audio/7286.mp3,WAIS,0,0,0,0,1,,,,,,,,,,,,,,,,,,,,,,,,,,,,,,,,,,,,,,,,,,,,,,,,,,,,,,,,,,,,,,,,,,,,,,,,,,,,,,,,,,,,,,,,,,,,,,,,,,,,,,,,,,,,,,,,,,,,,,,
,838440669607,CBA,11/04/2002,001,2023-10-25_12h12.49.944,OS3_Mult_verification,2022.2.4,Win32,59.91970759,,,,,,,,,,,,,,,,,,,,,,,,,,,,,,,,,,,,,6439,2.3449,1,"[""6"",""4"",""3"",""9"",""return""]","[0.5502999997139568,0.8335000000000719,1.4334000000953893,2.0665999999047244,2.3097999997139596]",,,,,,4,6439,Audio/6439.mp3,WAIS,0,1,1,1,1,,,,,,,,,,,,,,,,,,,,,,,,,,,,,,,,,,,,,,,,,,,,,,,,,,,,,,,,,,,,,,,,,,,,,,,,,,,,,,,,,,,,,,,,,,,,,,,,,,,,,,,,,,,,,,,,,,,,,,,
,838440669607,CBA,11/04/2002,001,2023-10-25_12h12.49.944,OS3_Mult_verification,2022.2.4,Win32,59.91970759,,,,,,,,,,,,,,,,,,,,,,,,,,,,,,,,,,,,,,,,,,,,,,,,,,,,,,,,0,2,2,2,1,digitSpan_stim/fourWAIS.xlsx,,,,,,,,,,,,,,,,,,,,,,,,,,,,,,,,,,,,,,,,,,,,,,,,,,,,,,,,,,,,,,,,,,,,,,,,,,,,,,,,,,,,,,,,,,,,,,,,,,,,,,,,,,,,,,,,,
,838440669607,CBA,11/04/2002,001,2023-10-25_12h12.49.944,OS3_Mult_verification,2022.2.4,Win32,59.91970759,,,,,,,,,,,,,,,,,,,,,,,,,,,,,,,,,,,,,42731,2.0491,1,"[""4"",""2"",""7"",""3"",""1"",""return""]","[0.24350000000004002,0.5004000000953965,0.8170000000000073,1.4335999999046862,1.7018000001907012,2.0040999999046107]",,,,,,5,42731,Audio/42731.mp3,WAIS,0,0,0,0,1,,,,,,,,,,,,,,,,,,,,,,,,,,,,,,,,,,,,,,,,,,,,,,,,,,,,,,,,,,,,,,,,,,,,,,,,,,,,,,,,,,,,,,,,,,,,,,,,,,,,,,,,,,,,,,,,,,,,,,,
,838440669607,CBA,11/04/2002,001,2023-10-25_12h12.49.944,OS3_Mult_verification,2022.2.4,Win32,59.91970759,,,,,,,,,,,,,,,,,,,,,,,,,,,,,,,,,,,,,75836,4.5987,1,"[""7"",""6"",""backspace"",""5"",""8"",""3"",""6"",""return""]","[1.166899999618522,1.5147999997138868,2.6312999997138604,2.999699999809195,3.3811999998092688,3.9477999997138795,4.316199999809214,4.566099999904623]",,,,,,5,75836,Audio/75836.mp3,WAIS,0,1,1,1,1,,,,,,,,,,,,,,,,,,,,,,,,,,,,,,,,,,,,,,,,,,,,,,,,,,,,,,,,,,,,,,,,,,,,,,,,,,,,,,,,,,,,,,,,,,,,,,,,,,,,,,,,,,,,,,,,,,,,,,,
,838440669607,CBA,11/04/2002,001,2023-10-25_12h12.49.944,OS3_Mult_verification,2022.2.4,Win32,59.91970759,,,,,,,,,,,,,,,,,,,,,,,,,,,,,,,,,,,,,,,,,,,,,,,,,,,,,,,,0,3,3,3,1,digitSpan_stim/fiveWAIS.xlsx,,,,,,,,,,,,,,,,,,,,,,,,,,,,,,,,,,,,,,,,,,,,,,,,,,,,,,,,,,,,,,,,,,,,,,,,,,,,,,,,,,,,,,,,,,,,,,,,,,,,,,,,,,,,,,,,,
,838440669607,CBA,11/04/2002,001,2023-10-25_12h12.49.944,OS3_Mult_verification,2022.2.4,Win32,59.91970759,,,,,,,,,,,,,,,,,,,,,,,,,,,,,,,,,,,,,392487,4.328,1,"[""3"",""9"",""2"",""4"",""8"",""7"",""return""]","[0.8334999999999582,1.2816000003814452,1.8832000002861378,2.44990000009534,2.964600000381438,3.3329000000953783,4.28290000009531]",,,,,,6,392487,Audio/392487.mp3,WAIS,0,0,0,0,1,,,,,,,,,,,,,,,,,,,,,,,,,,,,,,,,,,,,,,,,,,,,,,,,,,,,,,,,,,,,,,,,,,,,,,,,,,,,,,,,,,,,,,,,,,,,,,,,,,,,,,,,,,,,,,,,,,,,,,,
,838440669607,CBA,11/04/2002,001,2023-10-25_12h12.49.944,OS3_Mult_verification,2022.2.4,Win32,59.91970759,,,,,,,,,,,,,,,,,,,,,,,,,,,,,,,,,,,,,619473,3.5827,1,"[""6"",""1"",""9"",""4"",""7"",""3"",""return""]","[0.7168000001906876,1.1169000000953702,1.545599999904539,2.2285999999045316,2.589800000190735,3.264499999999998,3.547800000190705]",,,,,,6,619473,Audio/619473.mp3,WAIS,0,1,1,1,1,,,,,,,,,,,,,,,,,,,,,,,,,,,,,,,,,,,,,,,,,,,,,,,,,,,,,,,,,,,,,,,,,,,,,,,,,,,,,,,,,,,,,,,,,,,,,,,,,,,,,,,,,,,,,,,,,,,,,,,
,838440669607,CBA,11/04/2002,001,2023-10-25_12h12.49.944,OS3_Mult_verification,2022.2.4,Win32,59.91970759,,,,,,,,,,,,,,,,,,,,,,,,,,,,,,,,,,,,,,,,,,,,,,,,,,,,,,,,0,4,4,4,1,digitSpan_stim/sixWAIS.xlsx,,,,,,,,,,,,,,,,,,,,,,,,,,,,,,,,,,,,,,,,,,,,,,,,,,,,,,,,,,,,,,,,,,,,,,,,,,,,,,,,,,,,,,,,,,,,,,,,,,,,,,,,,,,,,,,,,
,838440669607,CBA,11/04/2002,001,2023-10-25_12h12.49.944,OS3_Mult_verification,2022.2.4,Win32,59.91970759,,,,,,,,,,,,,,,,,,,,,,,,,,,,,,,,,,,,,6194728,4.52,0,"[""6"",""1"",""9"",""4"",""7"",""2"",""8"",""return""]","[1.2168000001906876,1.664900000095372,2.106200000286094,2.6664000000953365,3.066300000190722,3.599600000381429,4.132900000095333,4.480900000095403]",,,,,,7,6917428,Audio/6917428.mp3,WAIS,0,0,0,0,1,,,,,,,,,,,,,,,,,,,,,,,,,,,,,,,,,,,,,,,,,,,,,,,,,,,,,,,,,,,,,,,,,,,,,,,,,,,,,,,,,,,,,,,,,,,,,,,,,,,,,,,,,,,,,,,,,,,,,,,
,838440669607,CBA,11/04/2002,001,2023-10-25_12h12.49.944,OS3_Mult_verification,2022.2.4,Win32,59.91970759,,,,,,,,,,,,,,,,,,,,,,,,,,,,,,,,,,,,,4917386,5.1365,0,"[""4"",""9"",""1"",""7"",""3"",""8"",""6"",""return""]","[1.9410999999046226,2.2585000000000264,2.7664000000953592,3.249599999904717,3.9329999999999927,4.383000000000038,4.730900000095403,5.099400000095443]",,,,,,7,4179386,Audio/4179386.mp3,WAIS,0,1,1,1,1,,,,,,,,,,,,,,,,,,,,,,,,,,,,,,,,,,,,,,,,,,,,,,,,,,,,,,,,,,,,,,,,,,,,,,,,,,,,,,,,,,,,,,,,,,,,,,,,,,,,,,,,,,,,,,,,,,,,,,,
,838440669607,CBA,11/04/2002,001,2023-10-25_12h12.49.944,OS3_Mult_verification,2022.2.4,Win32,59.91970759,,,,,,,,,,,,,,,,,,,,,,,,,,,,,,,,,,,,,,,,,,,,,,,WAIS,,,,,,,,,,,,,,,0,1,1,1,1,digitSpan_stim/WAIS.xlsx,,,,,,,,,,,,,,,,,,,,,,,,,,,,,,,,,,,,,,,,,,,,,,,,,,,,,,,,,,,,,,,,,,,,,,,,,,,,,,,,,,,,,,,,,,,,,,,,,,,,,,,,,,,
,838440669607,CBA,11/04/2002,001,2023-10-25_12h12.49.944,OS3_Mult_verification,2022.2.4,Win32,59.91970759,,,,,,,,,,,,,,,,,,,,,,,,,,,,,,,,,,,,,,,,,,,,,,,,,,,,,,,,,,,,,,,,,,,,0,0,0,0,1,,,,,,,,,,,,,,,,,,,,,,,,,,,,,,,,,,,,,,,,,,,,,,,,,,,,,,,,,,,,,,,,,,,,,,,,,,,,,,,,,,,,,,,,,,,,,,,,,,,,,,
,838440669607,CBA,11/04/2002,001,2023-10-25_12h12.49.944,OS3_Mult_verification,2022.2.4,Win32,59.91970759,,,,,,,,,,,,,,,,,,,,,,,,,,,,,,,,,,,,,,,,,,,,,,,,,,,,,,,,,,,,,,,,,,,,,,,,,0,0,0,0,1,0,0,1,,,,,,,,,,,,,,,,,,,,,,,,,,,,,,,,,,,,,,,,,,,,,,,,,,,,,,,,,,,,,,,,,,,,,,,,,,,,,,,,,,,,,,,,,,,,,,
,838440669607,CBA,11/04/2002,001,2023-10-25_12h12.49.944,OS3_Mult_verification,2022.2.4,Win32,59.91970759,,,,,,,,,,,,,,,,space,1.5419,,,,,,,,,,,,,,,,,,,,,,,,,,,,,,,,,,,,,,,,,,,,,,,,,,,,,,,,,,,,,,,,TRUE,1.9997,0.01944443,-0.361111111,1,0,0,0,0,0,2,1,practice trial,,3,3,,,,,,,,,,,,,,,,,,,,,,,,,,,,,,,,,,,,,,,,,,,,,,,,,,,,,,,,,,,,,,,,,,,,,,,,,,,,,,
,838440669607,CBA,11/04/2002,001,2023-10-25_12h12.49.944,OS3_Mult_verification,2022.2.4,Win32,59.91970759,,,,,,,,,,,,,,,,,,,,,,,,,,,,,,,,,,,,,,,,,,,,,,,,,,,,,,,,,,,,,,,,,,,,,,,,,,,,,,,,,TRUE,1.9997,0.048148191,-0.357407393,1,0,0,0,1,1,1,1,practice trial,,3,3,,,,,,,,,,,,,,,,,,,,,,,,,,,,,,,,,,,,,,,,,,,,,,,,,,,,,,,,,,,,,,,,,,,,,,,,,,,,,,
,838440669607,CBA,11/04/2002,001,2023-10-25_12h12.49.944,OS3_Mult_verification,2022.2.4,Win32,59.91970759,,,,,,,,,,,,,,,,,,,,,,,,,,,,,,,,,,,,,,,,,,,,,,,,,,,,,,,,,,,,,,,,,,,,,,,,,,,,,,,,,TRUE,1.8995,0.044444473,-0.337037051,1,0,0,0,2,2,0,1,practice trial,,3,3,,,,,,,,,,,,,,,,,,,,,,,,,,,,,,,,,,,,,,,,,,,,,,,,,,,,,,,,,,,,,,,,,,,,,,,,,,,,,,
,838440669607,CBA,11/04/2002,001,2023-10-25_12h12.49.944,OS3_Mult_verification,2022.2.4,Win32,59.91970759,,,,,,,,,,,,,,,,,,,,,,,,,,,,,,,,,,,,,,,,,,,,,,,,,,,,,,,,,,,,,,,,,,,,,,,,,,,,,,,,,TRUE,1.1362,0.075925968,-0.333333333,1,0,0,,,,,,Trial #1,,2,2,0,0,0,0,1,2,,,,,,,,,,,,,,,,,,,,,,,,,,,,,,,,,,,,,,,,,,,,,,,,,,,,,,,,,,,,,,,,,,,,,,,,
,838440669607,CBA,11/04/2002,001,2023-10-25_12h12.49.944,OS3_Mult_verification,2022.2.4,Win32,59.91970759,,,,,,,,,,,,,,,,,,,,,,,,,,,,,,,,,,,,,,,,,,,,,,,,,,,,,,,,,,,,,,,,,,,,,,,,,,,,,,,,,TRUE,2.3664,0.070370356,-0.35092594,1,0,0,,,,,,Trial #1,,2,2,0,1,1,1,1,2,,,,,,,,,,,,,,,,,,,,,,,,,,,,,,,,,,,,,,,,,,,,,,,,,,,,,,,,,,,,,,,,,,,,,,,,
,838440669607,CBA,11/04/2002,001,2023-10-25_12h12.49.944,OS3_Mult_verification,2022.2.4,Win32,59.91970759,,,,,,,,,,,,,,,,,,,,,,,,,,,,,,,,,,,,,,,,,,,,,,,,,,,,,,,,,,,,,,,,,,,,,,,,,,,,,,,,,TRUE,1.517,0.018518519,-0.384259259,1,0,0,,,,,,Trial #1,,2,2,0,2,2,2,1,2,,,,,,,,,,,,,,,,,,,,,,,,,,,,,,,,,,,,,,,,,,,,,,,,,,,,,,,,,,,,,,,,,,,,,,,,
,838440669607,CBA,11/04/2002,001,2023-10-25_12h12.49.944,OS3_Mult_verification,2022.2.4,Win32,59.91970759,,,,,,,,,,,,,,,,,,,,,,,,,,,,,,,,,,,,,,,,,,,,,,,,,,,,,,,,,,,,,,,,,,,,,,,,,,,,,,,,,TRUE,1.5186,0.062962991,-0.349074116,1,0,0,,,,,,Trial #2,,3,3,0,0,0,0,1,3,,,,,,,,,,,,,,,,,,,,,,,,,,,,,,,,,,,,,,,,,,,,,,,,,,,,,,,,,,,,,,,,,,,,,,,,
,838440669607,CBA,11/04/2002,001,2023-10-25_12h12.49.944,OS3_Mult_verification,2022.2.4,Win32,59.91970759,,,,,,,,,,,,,,,,,,,,,,,,,,,,,,,,,,,,,,,,,,,,,,,,,,,,,,,,,,,,,,,,,,,,,,,,,,,,,,,,,TRUE,1.9708,0.077777792,-0.343518504,1,0,0,,,,,,Trial #2,,3,3,0,1,1,1,1,3,,,,,,,,,,,,,,,,,,,,,,,,,,,,,,,,,,,,,,,,,,,,,,,,,,,,,,,,,,,,,,,,,,,,,,,,
,838440669607,CBA,11/04/2002,001,2023-10-25_12h12.49.944,OS3_Mult_verification,2022.2.4,Win32,59.91970759,,,,,,,,,,,,,,,,,,,,,,,,,,,,,,,,,,,,,,,,,,,,,,,,,,,,,,,,,,,,,,,,,,,,,,,,,,,,,,,,,TRUE,1.5498,0.038888931,-0.365740741,1,0,0,,,,,,Trial #2,,3,3,0,2,2,2,1,3,,,,,,,,,,,,,,,,,,,,,,,,,,,,,,,,,,,,,,,,,,,,,,,,,,,,,,,,,,,,,,,,,,,,,,,,
,838440669607,CBA,11/04/2002,001,2023-10-25_12h12.49.944,OS3_Mult_verification,2022.2.4,Win32,59.91970759,,,,,,,,,,,,,,,,,,,,,,,,,,,,,,,,,,,,,,,,,,,,,,,,,,,,,,,,,,,,,,,,,,,,,,,,,,,,,,,,,TRUE,2.1648,0.070370356,-0.345370399,1,0,0,,,,,,Trial #3,,3,3,0,0,0,0,1,4,,,,,,,,,,,,,,,,,,,,,,,,,,,,,,,,,,,,,,,,,,,,,,,,,,,,,,,,,,,,,,,,,,,,,,,,
,838440669607,CBA,11/04/2002,001,2023-10-25_12h12.49.944,OS3_Mult_verification,2022.2.4,Win32,59.91970759,,,,,,,,,,,,,,,,,,,,,,,,,,,,,,,,,,,,,,,,,,,,,,,,,,,,,,,,,,,,,,,,,,,,,,,,,,,,,,,,,TRUE,2.1334,0.035185213,-0.358333376,1,0,0,,,,,,Trial #3,,3,3,0,1,1,1,1,4,,,,,,,,,,,,,,,,,,,,,,,,,,,,,,,,,,,,,,,,,,,,,,,,,,,,,,,,,,,,,,,,,,,,,,,,
,838440669607,CBA,11/04/2002,001,2023-10-25_12h12.49.944,OS3_Mult_verification,2022.2.4,Win32,59.91970759,,,,,,,,,,,,,,,,,,,,,,,,,,,,,,,,,,,,,,,,,,,,,,,,,,,,,,,,,,,,,,,,,,,,,,,,,,,,,,,,,TRUE,1.9164,0.015740783,-0.330555598,1,0,0,,,,,,Trial #3,,3,3,0,2,2,2,1,4,,,,,,,,,,,,,,,,,,,,,,,,,,,,,,,,,,,,,,,,,,,,,,,,,,,,,,,,,,,,,,,,,,,,,,,,
,838440669607,CBA,11/04/2002,001,2023-10-25_12h12.49.944,OS3_Mult_verification,2022.2.4,Win32,59.91970759,,,,,,,,,,,,,,,,,,,,,,,,,,,,,,,,,,,,,,,,,,,,,,,,,,,,,,,,,,,,,,,,,,,,,,,,,,,,,,,,,TRUE,2.0331,-0.033333319,-0.334259245,1,0,0,,,,,,Trial #4,,4,4,0,0,0,0,1,5,,,,,,,,,,,,,,,,,,,,,,,,,,,,,,,,,,,,,,,,,,,,,,,,,,,,,,,,,,,,,,,,,,,,,,,,
,838440669607,CBA,11/04/2002,001,2023-10-25_12h12.49.944,OS3_Mult_verification,2022.2.4,Win32,59.91970759,,,,,,,,,,,,,,,,,,,,,,,,,,,,,,,,,,,,,,,,,,,,,,,,,,,,,,,,,,,,,,,,,,,,,,,,,,,,,,,,,TRUE,2.3833,0.037962949,-0.338888875,1,0,0,,,,,,Trial #4,,4,4,0,1,1,1,1,5,,,,,,,,,,,,,,,,,,,,,,,,,,,,,,,,,,,,,,,,,,,,,,,,,,,,,,,,,,,,,,,,,,,,,,,,
,838440669607,CBA,11/04/2002,001,2023-10-25_12h12.49.944,OS3_Mult_verification,2022.2.4,Win32,59.91970759,,,,,,,,,,,,,,,,,,,,,,,,,,,,,,,,,,,,,,,,,,,,,,,,,,,,,,,,,,,,,,,,,,,,,,,,,,,,,,,,,TRUE,2.4205,0.060185185,-0.328703704,1,0,0,,,,,,Trial #4,,4,4,0,2,2,2,1,5,,,,,,,,,,,,,,,,,,,,,,,,,,,,,,,,,,,,,,,,,,,,,,,,,,,,,,,,,,,,,,,,,,,,,,,,
,838440669607,CBA,11/04/2002,001,2023-10-25_12h12.49.944,OS3_Mult_verification,2022.2.4,Win32,59.91970759,,,,,,,,,,,,,,,,,,,,,,,,,,,,,,,,,,,,,,,,,,,,,,,,,,,,,,,,,,,,,,,,,,,,,,,,,,,,,,,,,TRUE,2.6665,0.05740745,-0.32685188,1,0,0,,,,,,Trial #5,,4,4,0,0,0,0,1,6,,,,,,,,,,,,,,,,,,,,,,,,,,,,,,,,,,,,,,,,,,,,,,,,,,,,,,,,,,,,,,,,,,,,,,,,
,838440669607,CBA,11/04/2002,001,2023-10-25_12h12.49.944,OS3_Mult_verification,2022.2.4,Win32,59.91970759,,,,,,,,,,,,,,,,,,,,,,,,,,,,,,,,,,,,,,,,,,,,,,,,,,,,,,,,,,,,,,,,,,,,,,,,,,,,,,,,,FALSE,7.1985,-0.02870369,-0.33148151,1,0,0,,,,,,Trial #5,,4,4,0,1,1,1,1,6,,,,,,,,,,,,,,,,,,,,,,,,,,,,,,,,,,,,,,,,,,,,,,,,,,,,,,,,,,,,,,,,,,,,,,,,
,838440669607,CBA,11/04/2002,001,2023-10-25_12h12.49.944,OS3_Mult_verification,2022.2.4,Win32,59.91970759,,,,,,,,,,,,,,,,,,,,,,,,,,,,,,,,,,,,,,,,,,,,,,,,,,,,,,,,,,,,,,,,,,,,,,,,,,,,,,,,,TRUE,2.6664,0.027777778,-0.327777792,1,0,0,,,,,,Trial #5,,4,4,0,2,2,2,1,6,,,,,,,,,,,,,,,,,,,,,,,,,,,,,,,,,,,,,,,,,,,,,,,,,,,,,,,,,,,,,,,,,,,,,,,,
,838440669607,CBA,11/04/2002,001,2023-10-25_12h12.49.944,OS3_Mult_verification,2022.2.4,Win32,59.91970759,,,,,,,,,,,,,,,,,,,,,,,,,,,,,,,,,,,,,,,,,,,,,,,,,,,,,,,,,,,,,,,,,,,,,,,,,,,,,,,,,TRUE,2.783,0.02407406,-0.366666653,1,0,0,,,,,,Trial #6,,4,4,0,0,0,0,1,7,,,,,,,,,,,,,,,,,,,,,,,,,,,,,,,,,,,,,,,,,,,,,,,,,,,,,,,,,,,,,,,,,,,,,,,,
,838440669607,CBA,11/04/2002,001,2023-10-25_12h12.49.944,OS3_Mult_verification,2022.2.4,Win32,59.91970759,,,,,,,,,,,,,,,,,,,,,,,,,,,,,,,,,,,,,,,,,,,,,,,,,,,,,,,,,,,,,,,,,,,,,,,,,,,,,,,,,TRUE,3.1541,-0.026851866,-0.327777792,1,0,0,,,,,,Trial #6,,4,4,0,1,1,1,1,7,,,,,,,,,,,,,,,,,,,,,,,,,,,,,,,,,,,,,,,,,,,,,,,,,,,,,,,,,,,,,,,,,,,,,,,,
,838440669607,CBA,11/04/2002,001,2023-10-25_12h12.49.944,OS3_Mult_verification,2022.2.4,Win32,59.91970759,,,,,,,,,,,,,,,,,,,,,,,,,,,,,,,,,,,,,,,,,,,,,,,,,,,,,,,,,,,,,,,,,,,,,,,,,,,,,,,,,TRUE,2.9159,0.006481524,-0.359259288,1,0,0,,,,,,Trial #6,,4,4,0,2,2,2,1,7,,,,,,,,,,,,,,,,,,,,,,,,,,,,,,,,,,,,,,,,,,,,,,,,,,,,,,,,,,,,,,,,,,,,,,,,
,838440669607,CBA,11/04/2002,001,2023-10-25_12h12.49.944,OS3_Mult_verification,2022.2.4,Win32,59.91970759,,,,,,,,,,,,,,,,,,,,,,,,,,,,,,,,,,,,,,,,,,,,,,,,,,,,,,,,,,,,,,,,,,,,,,,,,,,,,,,,,TRUE,4.4205,0.003703718,-0.35092594,1,0,0,,,,,,Trial #7,,4,4,0,0,0,0,1,8,,,,,,,,,,,,,,,,,,,,,,,,,,,,,,,,,,,,,,,,,,,,,,,,,,,,,,,,,,,,,,,,,,,,,,,,
,838440669607,CBA,11/04/2002,001,2023-10-25_12h12.49.944,OS3_Mult_verification,2022.2.4,Win32,59.91970759,,,,,,,,,,,,,,,,,,,,,,,,,,,,,,,,,,,,,,,,,,,,,,,,,,,,,,,,,,,,,,,,,,,,,,,,,,,,,,,,,TRUE,4.5992,0.016666695,-0.348148134,1,0,0,,,,,,Trial #7,,4,4,0,1,1,1,1,8,,,,,,,,,,,,,,,,,,,,,,,,,,,,,,,,,,,,,,,,,,,,,,,,,,,,,,,,,,,,,,,,,,,,,,,,
,838440669607,CBA,11/04/2002,001,2023-10-25_12h12.49.944,OS3_Mult_verification,2022.2.4,Win32,59.91970759,,,,,,,,,,,,,,,,,,,,,,,,,,,,,,,,,,,,,,,,,,,,,,,,,,,,,,,,,,,,,,,,,,,,,,,,,,,,,,,,,TRUE,4.0994,0.110185199,-0.336111139,1,0,0,,,,,,Trial #7,,4,4,0,2,2,2,1,8,,,,,,,,,,,,,,,,,,,,,,,,,,,,,,,,,,,,,,,,,,,,,,,,,,,,,,,,,,,,,,,,,,,,,,,,
,838440669607,CBA,11/04/2002,001,2023-10-25_12h12.49.944,OS3_Mult_verification,2022.2.4,Win32,59.91970759,,,,,,,,,,,,,,,,,,,,,,,,,,,,,,,,,,,,,,,,,,,,,,,,,,,,,,,,,,,,,,,,,,,,,,,,,,,,,,,,,TRUE,8.082,0.046296296,-0.336111139,1,0,0,,,,,,Trial #8,,5,5,0,0,0,0,1,9,,,,,,,,,,,,,,,,,,,,,,,,,,,,,,,,,,,,,,,,,,,,,,,,,,,,,,,,,,,,,,,,,,,,,,,,
,838440669607,CBA,11/04/2002,001,2023-10-25_12h12.49.944,OS3_Mult_verification,2022.2.4,Win32,59.91970759,,,,,,,,,,,,,,,,,,,,,,,,,,,,,,,,,,,,,,,,,,,,,,,,,,,,,,,,,,,,,,,,,,,,,,,,,,,,,,,,,TRUE,4.1206,-0.017592607,-0.374074088,1,0,0,,,,,,Trial #8,,5,5,0,1,1,1,1,9,,,,,,,,,,,,,,,,,,,,,,,,,,,,,,,,,,,,,,,,,,,,,,,,,,,,,,,,,,,,,,,,,,,,,,,,
,838440669607,CBA,11/04/2002,001,2023-10-25_12h12.49.944,OS3_Mult_verification,2022.2.4,Win32,59.91970759,,,,,,,,,,,,,,,,,,,,,,,,,,,,,,,,,,,,,,,,,,,,,,,,,,,,,,,,,,,,,,,,,,,,,,,,,,,,,,,,,TRUE,3.2664,-0.029629601,-0.324074074,1,0,0,,,,,,Trial #8,,5,5,0,2,2,2,1,9,,,,,,,,,,,,,,,,,,,,,,,,,,,,,,,,,,,,,,,,,,,,,,,,,,,,,,,,,,,,,,,,,,,,,,,,
,838440669607,CBA,11/04/2002,001,2023-10-25_12h12.49.944,OS3_Mult_verification,2022.2.4,Win32,59.91970759,,,,,,,,,,,,,,,,,,,,,,,,,,,,,,,,,,,,,,,,,,,,,,,,,,,,,,,,,,,,,,,,,,,,,,,,,,,,,,,,,FALSE,4.3828,0.060185185,-0.368518547,1,0,0,,,,,,Trial #9,,5,5,0,0,0,0,1,10,,,,,,,,,,,,,,,,,,,,,,,,,,,,,,,,,,,,,,,,,,,,,,,,,,,,,,,,,,,,,,,,,,,,,,,,
,838440669607,CBA,11/04/2002,001,2023-10-25_12h12.49.944,OS3_Mult_verification,2022.2.4,Win32,59.91970759,,,,,,,,,,,,,,,,,,,,,,,,,,,,,,,,,,,,,,,,,,,,,,,,,,,,,,,,,,,,,,,,,,,,,,,,,,,,,,,,,TRUE,5.7517,0.050925926,-0.348148134,1,0,0,,,,,,Trial #9,,5,5,0,1,1,1,1,10,,,,,,,,,,,,,,,,,,,,,,,,,,,,,,,,,,,,,,,,,,,,,,,,,,,,,,,,,,,,,,,,,,,,,,,,
,838440669607,CBA,11/04/2002,001,2023-10-25_12h12.49.944,OS3_Mult_verification,2022.2.4,Win32,59.91970759,,,,,,,,,,,,,,,,,,,,,,,,,,,,,,,,,,,,,,,,,,,,,,,,,,,,,,,,,,,,,,,,,,,,,,,,,,,,,,,,,TRUE,4.5156,0.010185171,-0.354629658,1,0,0,,,,,,Trial #9,,5,5,0,2,2,2,1,10,,,,,,,,,,,,,,,,,,,,,,,,,,,,,,,,,,,,,,,,,,,,,,,,,,,,,,,,,,,,,,,,,,,,,,,,
,838440669607,CBA,11/04/2002,001,2023-10-25_12h12.49.944,OS3_Mult_verification,2022.2.4,Win32,59.91970759,,,,,,,,,,,,,,,,,,,,,,,,,,,,,,,,,,,,,,,,,,,,,,,,,,,,,,,,,,,,,,,,,,,,,,,,,,,,,,,,,FALSE,6.1821,-0.006481453,-0.312037079,1,0,0,,,,,,Trial #10,,5,5,0,0,0,0,1,11,,,,,,,,,,,,,,,,,,,,,,,,,,,,,,,,,,,,,,,,,,,,,,,,,,,,,,,,,,,,,,,,,,,,,,,,
,838440669607,CBA,11/04/2002,001,2023-10-25_12h12.49.944,OS3_Mult_verification,2022.2.4,Win32,59.91970759,,,,,,,,,,,,,,,,,,,,,,,,,,,,,,,,,,,,,,,,,,,,,,,,,,,,,,,,,,,,,,,,,,,,,,,,,,,,,,,,,FALSE,7.4156,0.022222236,-0.344444487,1,0,0,,,,,,Trial #10,,5,5,0,1,1,1,1,11,,,,,,,,,,,,,,,,,,,,,,,,,,,,,,,,,,,,,,,,,,,,,,,,,,,,,,,,,,,,,,,,,,,,,,,,
,838440669607,CBA,11/04/2002,001,2023-10-25_12h12.49.944,OS3_Mult_verification,2022.2.4,Win32,59.91970759,,,,,,,,,,,,,,,,,,,,,,,,,,,,,,,,,,,,,,,,,,,,,,,,,,,,,,,,,,,,,,,,,,,,,,,,,,,,,,,,,FALSE,4.2038,0.003703718,-0.341666681,1,0,0,,,,,,Trial #10,,5,5,0,2,2,2,1,11,,,,,,,,,,,,,,,,,,,,,,,,,,,,,,,,,,,,,,,,,,,,,,,,,,,,,,,,,,,,,,,,,,,,,,,,
,838440669607,CBA,11/04/2002,001,2023-10-25_12h12.49.944,OS3_Mult_verification,2022.2.4,Win32,59.91970759,,,,,,,,,,,,,,,,,,,,,,,,,,,,,,,,,,,,,,,,,,,,,,,,,,,,,,,,,,,,,,,,,,,,,,,,,,,,,,,,,,,,,,,,,,,,,,,,,,,,,,,0,0,0,0,1,,,,,,,,,,,,,,,,,,,,,,,,,,,,,,,,,,,,,,,,,,,,,,,,,,,,,,,,,,,,,,,,,,,
,838440669607,CBA,11/04/2002,001,2023-10-25_12h12.49.944,OS3_Mult_verification,2022.2.4,Win32,59.91970759,,,,,,,,,,,,,,,,,,,,,,,,,,,,,,,,,,,,,,,,,,,,,,,,,,,,,,,,,,,,,,,,,,,,,,,,,0,1,1,1,1,0,1,0,,,,,,,,,,,,,,,,,,,,,,,,,,,,,,,,,,,,,,,,,,,,,,,,,,,,,,,,,,,,,,,,,,,,,,,,,,,,,,,,,,,,,,,,,,,,,,
,838440669607,CBA,11/04/2002,001,2023-10-25_12h12.49.944,OS3_Mult_verification,2022.2.4,Win32,59.91970759,,,,,,,,,,,,,,,,space,0.8163,,,,,,,,,,,,,,,,,,,,,,,,,,,,,,,,,,,,,,,,,,,,,,,,,,,,,,,,,,,,,,,,,,,,,,,,,,,,,,,,,,,,,,,,,,,right,1,0.7264,0,0,0,2,1,practice,4,9,4 | 9,5,0.06,0.06,neutral,right,,,,,,,,,,,,,,,,,,,,,,,,,,,,,,,,,,,,,,,,,,,,,,,,,,
,838440669607,CBA,11/04/2002,001,2023-10-25_12h12.49.944,OS3_Mult_verification,2022.2.4,Win32,59.91970759,,,,,,,,,,,,,,,,,,,,,,,,,,,,,,,,,,,,,,,,,,,,,,,,,,,,,,,,,,,,,,,,,,,,,,,,,,,,,,,,,,,,,,,,,,,,,,,,,,,,,,,,,,,,left,0,0.6805,0,1,1,1,1,practice,7,8,7 | 8,1,0.065,0.05,incongruent,right,,,,,,,,,,,,,,,,,,,,,,,,,,,,,,,,,,,,,,,,,,,,,,,,,,
,838440669607,CBA,11/04/2002,001,2023-10-25_12h12.49.944,OS3_Mult_verification,2022.2.4,Win32,59.91970759,,,,,,,,,,,,,,,,,,,,,,,,,,,,,,,,,,,,,,,,,,,,,,,,,,,,,,,,,,,,,,,,,,,,,,,,,,,,,,,,,,,,,,,,,,,,,,,,,,,,,,,,,,,,right,1,0.998,0,2,2,0,1,practice,1,2,1 | 2,1,0.05,0.065,congruent,right,,,,,,,,,,,,,,,,,,,,,,,,,,,,,,,,,,,,,,,,,,,,,,,,,,
,838440669607,CBA,11/04/2002,001,2023-10-25_12h12.49.944,OS3_Mult_verification,2022.2.4,Win32,59.91970759,,,,,,,,,,,,,,,,,,,,,,,,,,,,,,,,,,,,,,,,,,,,,,,,,,,,,,,,,,,,,,,,,,,,,,,,,,,,,,,,,,,,,,,,,,,,,,,,,,,,,,,,,,,,right,1,0.6639,,,,,,magnitude,1,6,1 | 6,5,0.065,0.05,incongruent,right,0,0,0,40,1,,,,,,,,,,,,,,,,,,,,,,,,,,,,,,,,,,,,,,,,,,,,,
,838440669607,CBA,11/04/2002,001,2023-10-25_12h12.49.944,OS3_Mult_verification,2022.2.4,Win32,59.91970759,,,,,,,,,,,,,,,,,,,,,,,,,,,,,,,,,,,,,,,,,,,,,,,,,,,,,,,,,,,,,,,,,,,,,,,,,,,,,,,,,,,,,,,,,,,,,,,,,,,,,,,,,,,,left,1,0.7851,,,,,,magnitude,4,3,4 | 3,1,0.05,0.065,incongruent,left,0,1,1,29,1,,,,,,,,,,,,,,,,,,,,,,,,,,,,,,,,,,,,,,,,,,,,,
,838440669607,CBA,11/04/2002,001,2023-10-25_12h12.49.944,OS3_Mult_verification,2022.2.4,Win32,59.91970759,,,,,,,,,,,,,,,,,,,,,,,,,,,,,,,,,,,,,,,,,,,,,,,,,,,,,,,,,,,,,,,,,,,,,,,,,,,,,,,,,,,,,,,,,,,,,,,,,,,,,,,,,,,,left,1,0.7643,,,,,,magnitude,9,7,9 | 7,2,0.065,0.05,congruent,left,0,2,2,15,1,,,,,,,,,,,,,,,,,,,,,,,,,,,,,,,,,,,,,,,,,,,,,
,838440669607,CBA,11/04/2002,001,2023-10-25_12h12.49.944,OS3_Mult_verification,2022.2.4,Win32,59.91970759,,,,,,,,,,,,,,,,,,,,,,,,,,,,,,,,,,,,,,,,,,,,,,,,,,,,,,,,,,,,,,,,,,,,,,,,,,,,,,,,,,,,,,,,,,,,,,,,,,,,,,,,,,,,right,1,0.7672,,,,,,magnitude,8,9,8 | 9,1,0.06,0.06,neutral,right,0,3,3,51,1,,,,,,,,,,,,,,,,,,,,,,,,,,,,,,,,,,,,,,,,,,,,,
,838440669607,CBA,11/04/2002,001,2023-10-25_12h12.49.944,OS3_Mult_verification,2022.2.4,Win32,59.91970759,,,,,,,,,,,,,,,,,,,,,,,,,,,,,,,,,,,,,,,,,,,,,,,,,,,,,,,,,,,,,,,,,,,,,,,,,,,,,,,,,,,,,,,,,,,,,,,,,,,,,,,,,,,,left,1,0.9627,,,,,,magnitude,7,6,7 | 6,1,0.05,0.065,incongruent,left,0,4,4,30,1,,,,,,,,,,,,,,,,,,,,,,,,,,,,,,,,,,,,,,,,,,,,,
,838440669607,CBA,11/04/2002,001,2023-10-25_12h12.49.944,OS3_Mult_verification,2022.2.4,Win32,59.91970759,,,,,,,,,,,,,,,,,,,,,,,,,,,,,,,,,,,,,,,,,,,,,,,,,,,,,,,,,,,,,,,,,,,,,,,,,,,,,,,,,,,,,,,,,,,,,,,,,,,,,,,,,,,,left,1,0.979,,,,,,magnitude,4,3,4 | 3,1,0.06,0.06,neutral,left,0,5,5,53,1,,,,,,,,,,,,,,,,,,,,,,,,,,,,,,,,,,,,,,,,,,,,,
,838440669607,CBA,11/04/2002,001,2023-10-25_12h12.49.944,OS3_Mult_verification,2022.2.4,Win32,59.91970759,,,,,,,,,,,,,,,,,,,,,,,,,,,,,,,,,,,,,,,,,,,,,,,,,,,,,,,,,,,,,,,,,,,,,,,,,,,,,,,,,,,,,,,,,,,,,,,,,,,,,,,,,,,,left,1,0.6052,,,,,,magnitude,9,8,9 | 8,1,0.065,0.05,congruent,left,0,6,6,7,1,,,,,,,,,,,,,,,,,,,,,,,,,,,,,,,,,,,,,,,,,,,,,
,838440669607,CBA,11/04/2002,001,2023-10-25_12h12.49.944,OS3_Mult_verification,2022.2.4,Win32,59.91970759,,,,,,,,,,,,,,,,,,,,,,,,,,,,,,,,,,,,,,,,,,,,,,,,,,,,,,,,,,,,,,,,,,,,,,,,,,,,,,,,,,,,,,,,,,,,,,,,,,,,,,,,,,,,left,1,0.6978,,,,,,magnitude,4,2,4 | 2,2,0.06,0.06,neutral,left,0,7,7,61,1,,,,,,,,,,,,,,,,,,,,,,,,,,,,,,,,,,,,,,,,,,,,,
,838440669607,CBA,11/04/2002,001,2023-10-25_12h12.49.944,OS3_Mult_verification,2022.2.4,Win32,59.91970759,,,,,,,,,,,,,,,,,,,,,,,,,,,,,,,,,,,,,,,,,,,,,,,,,,,,,,,,,,,,,,,,,,,,,,,,,,,,,,,,,,,,,,,,,,,,,,,,,,,,,,,,,,,,right,1,0.5753,,,,,,magnitude,2,4,2 | 4,2,0.065,0.05,incongruent,right,0,8,8,33,1,,,,,,,,,,,,,,,,,,,,,,,,,,,,,,,,,,,,,,,,,,,,,
,838440669607,CBA,11/04/2002,001,2023-10-25_12h12.49.944,OS3_Mult_verification,2022.2.4,Win32,59.91970759,,,,,,,,,,,,,,,,,,,,,,,,,,,,,,,,,,,,,,,,,,,,,,,,,,,,,,,,,,,,,,,,,,,,,,,,,,,,,,,,,,,,,,,,,,,,,,,,,,,,,,,,,,,,right,1,0.5815,,,,,,magnitude,1,3,1 | 3,2,0.05,0.065,congruent,right,0,9,9,8,1,,,,,,,,,,,,,,,,,,,,,,,,,,,,,,,,,,,,,,,,,,,,,
,838440669607,CBA,11/04/2002,001,2023-10-25_12h12.49.944,OS3_Mult_verification,2022.2.4,Win32,59.91970759,,,,,,,,,,,,,,,,,,,,,,,,,,,,,,,,,,,,,,,,,,,,,,,,,,,,,,,,,,,,,,,,,,,,,,,,,,,,,,,,,,,,,,,,,,,,,,,,,,,,,,,,,,,,right,1,0.5819,,,,,,magnitude,8,9,8 | 9,1,0.05,0.065,congruent,right,0,10,10,3,1,,,,,,,,,,,,,,,,,,,,,,,,,,,,,,,,,,,,,,,,,,,,,
,838440669607,CBA,11/04/2002,001,2023-10-25_12h12.49.944,OS3_Mult_verification,2022.2.4,Win32,59.91970759,,,,,,,,,,,,,,,,,,,,,,,,,,,,,,,,,,,,,,,,,,,,,,,,,,,,,,,,,,,,,,,,,,,,,,,,,,,,,,,,,,,,,,,,,,,,,,,,,,,,,,,,,,,,right,1,0.5299,,,,,,magnitude,3,8,3 | 8,5,0.05,0.065,congruent,right,0,11,11,18,1,,,,,,,,,,,,,,,,,,,,,,,,,,,,,,,,,,,,,,,,,,,,,
,838440669607,CBA,11/04/2002,001,2023-10-25_12h12.49.944,OS3_Mult_verification,2022.2.4,Win32,59.91970759,,,,,,,,,,,,,,,,,,,,,,,,,,,,,,,,,,,,,,,,,,,,,,,,,,,,,,,,,,,,,,,,,,,,,,,,,,,,,,,,,,,,,,,,,,,,,,,,,,,,,,,,,,,,right,1,0.7826,,,,,,magnitude,2,4,2 | 4,2,0.06,0.06,neutral,right,0,12,12,57,1,,,,,,,,,,,,,,,,,,,,,,,,,,,,,,,,,,,,,,,,,,,,,
,838440669607,CBA,11/04/2002,001,2023-10-25_12h12.49.944,OS3_Mult_verification,2022.2.4,Win32,59.91970759,,,,,,,,,,,,,,,,,,,,,,,,,,,,,,,,,,,,,,,,,,,,,,,,,,,,,,,,,,,,,,,,,,,,,,,,,,,,,,,,,,,,,,,,,,,,,,,,,,,,,,,,,,,,left,1,0.8314,,,,,,magnitude,9,8,9 | 8,1,0.05,0.065,incongruent,left,0,13,13,31,1,,,,,,,,,,,,,,,,,,,,,,,,,,,,,,,,,,,,,,,,,,,,,
,838440669607,CBA,11/04/2002,001,2023-10-25_12h12.49.944,OS3_Mult_verification,2022.2.4,Win32,59.91970759,,,,,,,,,,,,,,,,,,,,,,,,,,,,,,,,,,,,,,,,,,,,,,,,,,,,,,,,,,,,,,,,,,,,,,,,,,,,,,,,,,,,,,,,,,,,,,,,,,,,,,,,,,,,left,1,0.7081,,,,,,magnitude,6,1,6 | 1,5,0.06,0.06,neutral,left,0,14,14,68,1,,,,,,,,,,,,,,,,,,,,,,,,,,,,,,,,,,,,,,,,,,,,,
,838440669607,CBA,11/04/2002,001,2023-10-25_12h12.49.944,OS3_Mult_verification,2022.2.4,Win32,59.91970759,,,,,,,,,,,,,,,,,,,,,,,,,,,,,,,,,,,,,,,,,,,,,,,,,,,,,,,,,,,,,,,,,,,,,,,,,,,,,,,,,,,,,,,,,,,,,,,,,,,,,,,,,,,,left,1,0.9599,,,,,,magnitude,8,6,8 | 6,2,0.05,0.065,incongruent,left,0,15,15,38,1,,,,,,,,,,,,,,,,,,,,,,,,,,,,,,,,,,,,,,,,,,,,,
,838440669607,CBA,11/04/2002,001,2023-10-25_12h12.49.944,OS3_Mult_verification,2022.2.4,Win32,59.91970759,,,,,,,,,,,,,,,,,,,,,,,,,,,,,,,,,,,,,,,,,,,,,,,,,,,,,,,,,,,,,,,,,,,,,,,,,,,,,,,,,,,,,,,,,,,,,,,,,,,,,,,,,,,,right,1,1.0424,,,,,,magnitude,1,2,1 | 2,1,0.06,0.06,neutral,right,0,16,16,48,1,,,,,,,,,,,,,,,,,,,,,,,,,,,,,,,,,,,,,,,,,,,,,
,838440669607,CBA,11/04/2002,001,2023-10-25_12h12.49.944,OS3_Mult_verification,2022.2.4,Win32,59.91970759,,,,,,,,,,,,,,,,,,,,,,,,,,,,,,,,,,,,,,,,,,,,,,,,,,,,,,,,,,,,,,,,,,,,,,,,,,,,,,,,,,,,,,,,,,,,,,,,,,,,,,,,,,,,right,1,0.6082,,,,,,magnitude,2,4,2 | 4,2,0.05,0.065,congruent,right,0,17,17,9,1,,,,,,,,,,,,,,,,,,,,,,,,,,,,,,,,,,,,,,,,,,,,,
,838440669607,CBA,11/04/2002,001,2023-10-25_12h12.49.944,OS3_Mult_verification,2022.2.4,Win32,59.91970759,,,,,,,,,,,,,,,,,,,,,,,,,,,,,,,,,,,,,,,,,,,,,,,,,,,,,,,,,,,,,,,,,,,,,,,,,,,,,,,,,,,,,,,,,,,,,,,,,,,,,,,,,,,,right,1,0.6028,,,,,,magnitude,2,7,2 | 7,5,0.06,0.06,neutral,right,0,18,18,65,1,,,,,,,,,,,,,,,,,,,,,,,,,,,,,,,,,,,,,,,,,,,,,
,838440669607,CBA,11/04/2002,001,2023-10-25_12h12.49.944,OS3_Mult_verification,2022.2.4,Win32,59.91970759,,,,,,,,,,,,,,,,,,,,,,,,,,,,,,,,,,,,,,,,,,,,,,,,,,,,,,,,,,,,,,,,,,,,,,,,,,,,,,,,,,,,,,,,,,,,,,,,,,,,,,,,,,,,right,1,0.8317,,,,,,magnitude,1,2,1 | 2,1,0.065,0.05,incongruent,right,0,19,19,24,1,,,,,,,,,,,,,,,,,,,,,,,,,,,,,,,,,,,,,,,,,,,,,
,838440669607,CBA,11/04/2002,001,2023-10-25_12h12.49.944,OS3_Mult_verification,2022.2.4,Win32,59.91970759,,,,,,,,,,,,,,,,,,,,,,,,,,,,,,,,,,,,,,,,,,,,,,,,,,,,,,,,,,,,,,,,,,,,,,,,,,,,,,,,,,,,,,,,,,,,,,,,,,,,,,,,,,,,left,1,0.5979,,,,,,magnitude,3,1,3 | 1,2,0.06,0.06,neutral,left,0,20,20,60,1,,,,,,,,,,,,,,,,,,,,,,,,,,,,,,,,,,,,,,,,,,,,,
,838440669607,CBA,11/04/2002,001,2023-10-25_12h12.49.944,OS3_Mult_verification,2022.2.4,Win32,59.91970759,,,,,,,,,,,,,,,,,,,,,,,,,,,,,,,,,,,,,,,,,,,,,,,,,,,,,,,,,,,,,,,,,,,,,,,,,,,,,,,,,,,,,,,,,,,,,,,,,,,,,,,,,,,,left,1,0.6405,,,,,,magnitude,7,2,7 | 2,5,0.05,0.065,incongruent,left,0,21,21,45,1,,,,,,,,,,,,,,,,,,,,,,,,,,,,,,,,,,,,,,,,,,,,,
,838440669607,CBA,11/04/2002,001,2023-10-25_12h12.49.944,OS3_Mult_verification,2022.2.4,Win32,59.91970759,,,,,,,,,,,,,,,,,,,,,,,,,,,,,,,,,,,,,,,,,,,,,,,,,,,,,,,,,,,,,,,,,,,,,,,,,,,,,,,,,,,,,,,,,,,,,,,,,,,,,,,,,,,,left,1,0.4858,,,,,,magnitude,7,2,7 | 2,5,0.065,0.05,congruent,left,0,22,22,21,1,,,,,,,,,,,,,,,,,,,,,,,,,,,,,,,,,,,,,,,,,,,,,
,838440669607,CBA,11/04/2002,001,2023-10-25_12h12.49.944,OS3_Mult_verification,2022.2.4,Win32,59.91970759,,,,,,,,,,,,,,,,,,,,,,,,,,,,,,,,,,,,,,,,,,,,,,,,,,,,,,,,,,,,,,,,,,,,,,,,,,,,,,,,,,,,,,,,,,,,,,,,,,,,,,,,,,,,right,1,0.6261,,,,,,magnitude,8,9,8 | 9,1,0.065,0.05,incongruent,right,0,23,23,27,1,,,,,,,,,,,,,,,,,,,,,,,,,,,,,,,,,,,,,,,,,,,,,
,838440669607,CBA,11/04/2002,001,2023-10-25_12h12.49.944,OS3_Mult_verification,2022.2.4,Win32,59.91970759,,,,,,,,,,,,,,,,,,,,,,,,,,,,,,,,,,,,,,,,,,,,,,,,,,,,,,,,,,,,,,,,,,,,,,,,,,,,,,,,,,,,,,,,,,,,,,,,,,,,,,,,,,,,left,1,0.5883,,,,,,magnitude,9,4,9 | 4,5,0.06,0.06,neutral,left,0,24,24,71,1,,,,,,,,,,,,,,,,,,,,,,,,,,,,,,,,,,,,,,,,,,,,,
,838440669607,CBA,11/04/2002,001,2023-10-25_12h12.49.944,OS3_Mult_verification,2022.2.4,Win32,59.91970759,,,,,,,,,,,,,,,,,,,,,,,,,,,,,,,,,,,,,,,,,,,,,,,,,,,,,,,,,,,,,,,,,,,,,,,,,,,,,,,,,,,,,,,,,,,,,,,,,,,,,,,,,,,,right,0,0.5395,,,,,,magnitude,9,7,9 | 7,2,0.06,0.06,neutral,left,0,25,25,63,1,,,,,,,,,,,,,,,,,,,,,,,,,,,,,,,,,,,,,,,,,,,,,
,838440669607,CBA,11/04/2002,001,2023-10-25_12h12.49.944,OS3_Mult_verification,2022.2.4,Win32,59.91970759,,,,,,,,,,,,,,,,,,,,,,,,,,,,,,,,,,,,,,,,,,,,,,,,,,,,,,,,,,,,,,,,,,,,,,,,,,,,,,,,,,,,,,,,,,,,,,,,,,,,,,,,,,,,left,1,1.0668,,,,,,magnitude,4,3,4 | 3,1,0.065,0.05,congruent,left,0,26,26,5,1,,,,,,,,,,,,,,,,,,,,,,,,,,,,,,,,,,,,,,,,,,,,,
,838440669607,CBA,11/04/2002,001,2023-10-25_12h12.49.944,OS3_Mult_verification,2022.2.4,Win32,59.91970759,,,,,,,,,,,,,,,,,,,,,,,,,,,,,,,,,,,,,,,,,,,,,,,,,,,,,,,,,,,,,,,,,,,,,,,,,,,,,,,,,,,,,,,,,,,,,,,,,,,,,,,,,,,,right,1,0.7479,,,,,,magnitude,3,4,3 | 4,1,0.05,0.065,congruent,right,0,27,27,1,1,,,,,,,,,,,,,,,,,,,,,,,,,,,,,,,,,,,,,,,,,,,,,
,838440669607,CBA,11/04/2002,001,2023-10-25_12h12.49.944,OS3_Mult_verification,2022.2.4,Win32,59.91970759,,,,,,,,,,,,,,,,,,,,,,,,,,,,,,,,,,,,,,,,,,,,,,,,,,,,,,,,,,,,,,,,,,,,,,,,,,,,,,,,,,,,,,,,,,,,,,,,,,,,,,,,,,,,right,0,0.5155,,,,,,magnitude,9,7,9 | 7,2,0.05,0.065,incongruent,left,0,28,28,39,1,,,,,,,,,,,,,,,,,,,,,,,,,,,,,,,,,,,,,,,,,,,,,
,838440669607,CBA,11/04/2002,001,2023-10-25_12h12.49.944,OS3_Mult_verification,2022.2.4,Win32,59.91970759,,,,,,,,,,,,,,,,,,,,,,,,,,,,,,,,,,,,,,,,,,,,,,,,,,,,,,,,,,,,,,,,,,,,,,,,,,,,,,,,,,,,,,,,,,,,,,,,,,,,,,,,,,,,right,1,1.1512,,,,,,magnitude,1,3,1 | 3,2,0.065,0.05,incongruent,right,0,29,29,32,1,,,,,,,,,,,,,,,,,,,,,,,,,,,,,,,,,,,,,,,,,,,,,
,838440669607,CBA,11/04/2002,001,2023-10-25_12h12.49.944,OS3_Mult_verification,2022.2.4,Win32,59.91970759,,,,,,,,,,,,,,,,,,,,,,,,,,,,,,,,,,,,,,,,,,,,,,,,,,,,,,,,,,,,,,,,,,,,,,,,,,,,,,,,,,,,,,,,,,,,,,,,,,,,,,,,,,,,right,1,0.6534,,,,,,magnitude,6,8,6 | 8,2,0.065,0.05,incongruent,right,0,30,30,34,1,,,,,,,,,,,,,,,,,,,,,,,,,,,,,,,,,,,,,,,,,,,,,
,838440669607,CBA,11/04/2002,001,2023-10-25_12h12.49.944,OS3_Mult_verification,2022.2.4,Win32,59.91970759,,,,,,,,,,,,,,,,,,,,,,,,,,,,,,,,,,,,,,,,,,,,,,,,,,,,,,,,,,,,,,,,,,,,,,,,,,,,,,,,,,,,,,,,,,,,,,,,,,,,,,,,,,,,right,1,0.7489,,,,,,magnitude,3,4,3 | 4,1,0.065,0.05,incongruent,right,0,31,31,25,1,,,,,,,,,,,,,,,,,,,,,,,,,,,,,,,,,,,,,,,,,,,,,
,838440669607,CBA,11/04/2002,001,2023-10-25_12h12.49.944,OS3_Mult_verification,2022.2.4,Win32,59.91970759,,,,,,,,,,,,,,,,,,,,,,,,,,,,,,,,,,,,,,,,,,,,,,,,,,,,,,,,,,,,,,,,,,,,,,,,,,,,,,,,,,,,,,,,,,,,,,,,,,,,,,,,,,,,left,1,0.4995,,,,,,magnitude,9,4,9 | 4,5,0.065,0.05,congruent,left,0,32,32,23,1,,,,,,,,,,,,,,,,,,,,,,,,,,,,,,,,,,,,,,,,,,,,,
,838440669607,CBA,11/04/2002,001,2023-10-25_12h12.49.944,OS3_Mult_verification,2022.2.4,Win32,59.91970759,,,,,,,,,,,,,,,,,,,,,,,,,,,,,,,,,,,,,,,,,,,,,,,,,,,,,,,,,,,,,,,,,,,,,,,,,,,,,,,,,,,,,,,,,,,,,,,,,,,,,,,,,,,,left,1,0.8249,,,,,,magnitude,7,6,7 | 6,1,0.065,0.05,congruent,left,0,33,33,6,1,,,,,,,,,,,,,,,,,,,,,,,,,,,,,,,,,,,,,,,,,,,,,
,838440669607,CBA,11/04/2002,001,2023-10-25_12h12.49.944,OS3_Mult_verification,2022.2.4,Win32,59.91970759,,,,,,,,,,,,,,,,,,,,,,,,,,,,,,,,,,,,,,,,,,,,,,,,,,,,,,,,,,,,,,,,,,,,,,,,,,,,,,,,,,,,,,,,,,,,,,,,,,,,,,,,,,,,right,1,0.4707,,,,,,magnitude,6,7,6 | 7,1,0.06,0.06,neutral,right,0,34,34,50,1,,,,,,,,,,,,,,,,,,,,,,,,,,,,,,,,,,,,,,,,,,,,,
,838440669607,CBA,11/04/2002,001,2023-10-25_12h12.49.944,OS3_Mult_verification,2022.2.4,Win32,59.91970759,,,,,,,,,,,,,,,,,,,,,,,,,,,,,,,,,,,,,,,,,,,,,,,,,,,,,,,,,,,,,,,,,,,,,,,,,,,,,,,,,,,,,,,,,,,,,,,,,,,,,,,,,,,,right,1,0.5728,,,,,,magnitude,4,9,4 | 9,5,0.065,0.05,incongruent,right,0,35,35,43,1,,,,,,,,,,,,,,,,,,,,,,,,,,,,,,,,,,,,,,,,,,,,,
,838440669607,CBA,11/04/2002,001,2023-10-25_12h12.49.944,OS3_Mult_verification,2022.2.4,Win32,59.91970759,,,,,,,,,,,,,,,,,,,,,,,,,,,,,,,,,,,,,,,,,,,,,,,,,,,,,,,,,,,,,,,,,,,,,,,,,,,,,,,,,,,,,,,,,,,,,,,,,,,,,,,,,,,,left,1,1.0149,,,,,,magnitude,8,6,8 | 6,2,0.06,0.06,neutral,left,0,36,36,62,1,,,,,,,,,,,,,,,,,,,,,,,,,,,,,,,,,,,,,,,,,,,,,
,838440669607,CBA,11/04/2002,001,2023-10-25_12h12.49.944,OS3_Mult_verification,2022.2.4,Win32,59.91970759,,,,,,,,,,,,,,,,,,,,,,,,,,,,,,,,,,,,,,,,,,,,,,,,,,,,,,,,,,,,,,,,,,,,,,,,,,,,,,,,,,,,,,,,,,,,,,,,,,,,,,,,,,,,left,1,0.452,,,,,,magnitude,8,6,8 | 6,2,0.065,0.05,congruent,left,0,37,37,14,1,,,,,,,,,,,,,,,,,,,,,,,,,,,,,,,,,,,,,,,,,,,,,
,838440669607,CBA,11/04/2002,001,2023-10-25_12h12.49.944,OS3_Mult_verification,2022.2.4,Win32,59.91970759,,,,,,,,,,,,,,,,,,,,,,,,,,,,,,,,,,,,,,,,,,,,,,,,,,,,,,,,,,,,,,,,,,,,,,,,,,,,,,,,,,,,,,,,,,,,,,,,,,,,,,,,,,,,right,1,0.8255,,,,,,magnitude,1,6,1 | 6,5,0.05,0.065,congruent,right,0,38,38,16,1,,,,,,,,,,,,,,,,,,,,,,,,,,,,,,,,,,,,,,,,,,,,,
,838440669607,CBA,11/04/2002,001,2023-10-25_12h12.49.944,OS3_Mult_verification,2022.2.4,Win32,59.91970759,,,,,,,,,,,,,,,,,,,,,,,,,,,,,,,,,,,,,,,,,,,,,,,,,,,,,,,,,,,,,,,,,,,,,,,,,,,,,,,,,,,,,,,,,,,,,,,,,,,,,,,,,,,,left,1,0.632,,,,,,magnitude,8,3,8 | 3,5,0.05,0.065,incongruent,left,0,39,39,46,1,,,,,,,,,,,,,,,,,,,,,,,,,,,,,,,,,,,,,,,,,,,,,
,838440669607,CBA,11/04/2002,001,2023-10-25_12h12.49.944,OS3_Mult_verification,2022.2.4,Win32,59.91970759,,,,,,,,,,,,,,,,,,,,,,,,,,,,,,,,,,,,,,,,,,,,,,,,,,,,,,,,,,,,,,,,,,,,,,,,,,,,,,,,,,,,,,,,,,,,,,,,,,,,,,,,,,,,right,1,0.555,,,,,,magnitude,2,7,2 | 7,5,0.065,0.05,incongruent,right,0,40,40,41,1,,,,,,,,,,,,,,,,,,,,,,,,,,,,,,,,,,,,,,,,,,,,,
,838440669607,CBA,11/04/2002,001,2023-10-25_12h12.49.944,OS3_Mult_verification,2022.2.4,Win32,59.91970759,,,,,,,,,,,,,,,,,,,,,,,,,,,,,,,,,,,,,,,,,,,,,,,,,,,,,,,,,,,,,,,,,,,,,,,,,,,,,,,,,,,,,,,,,,,,,,,,,,,,,,,,,,,,right,1,0.5712,,,,,,magnitude,6,8,6 | 8,2,0.06,0.06,neutral,right,0,41,41,58,1,,,,,,,,,,,,,,,,,,,,,,,,,,,,,,,,,,,,,,,,,,,,,
,838440669607,CBA,11/04/2002,001,2023-10-25_12h12.49.944,OS3_Mult_verification,2022.2.4,Win32,59.91970759,,,,,,,,,,,,,,,,,,,,,,,,,,,,,,,,,,,,,,,,,,,,,,,,,,,,,,,,,,,,,,,,,,,,,,,,,,,,,,,,,,,,,,,,,,,,,,,,,,,,,,,,,,,,right,1,0.5649,,,,,,magnitude,7,9,7 | 9,2,0.05,0.065,congruent,right,0,42,42,11,1,,,,,,,,,,,,,,,,,,,,,,,,,,,,,,,,,,,,,,,,,,,,,
,838440669607,CBA,11/04/2002,001,2023-10-25_12h12.49.944,OS3_Mult_verification,2022.2.4,Win32,59.91970759,,,,,,,,,,,,,,,,,,,,,,,,,,,,,,,,,,,,,,,,,,,,,,,,,,,,,,,,,,,,,,,,,,,,,,,,,,,,,,,,,,,,,,,,,,,,,,,,,,,,,,,,,,,,left,1,0.6512,,,,,,magnitude,2,1,2 | 1,1,0.065,0.05,congruent,left,0,43,43,4,1,,,,,,,,,,,,,,,,,,,,,,,,,,,,,,,,,,,,,,,,,,,,,
,838440669607,CBA,11/04/2002,001,2023-10-25_12h12.49.944,OS3_Mult_verification,2022.2.4,Win32,59.91970759,,,,,,,,,,,,,,,,,,,,,,,,,,,,,,,,,,,,,,,,,,,,,,,,,,,,,,,,,,,,,,,,,,,,,,,,,,,,,,,,,,,,,,,,,,,,,,,,,,,,,,,,,,,,right,1,0.5566,,,,,,magnitude,3,8,3 | 8,5,0.065,0.05,incongruent,right,0,44,44,42,1,,,,,,,,,,,,,,,,,,,,,,,,,,,,,,,,,,,,,,,,,,,,,
,838440669607,CBA,11/04/2002,001,2023-10-25_12h12.49.944,OS3_Mult_verification,2022.2.4,Win32,59.91970759,,,,,,,,,,,,,,,,,,,,,,,,,,,,,,,,,,,,,,,,,,,,,,,,,,,,,,,,,,,,,,,,,,,,,,,,,,,,,,,,,,,,,,,,,,,,,,,,,,,,,,,,,,,,right,1,0.5723,,,,,,magnitude,2,7,2 | 7,5,0.05,0.065,congruent,right,0,45,45,17,1,,,,,,,,,,,,,,,,,,,,,,,,,,,,,,,,,,,,,,,,,,,,,
,838440669607,CBA,11/04/2002,001,2023-10-25_12h12.49.944,OS3_Mult_verification,2022.2.4,Win32,59.91970759,,,,,,,,,,,,,,,,,,,,,,,,,,,,,,,,,,,,,,,,,,,,,,,,,,,,,,,,,,,,,,,,,,,,,,,,,,,,,,,,,,,,,,,,,,,,,,,,,,,,,,,,,,,,right,1,1.0318,,,,,,magnitude,1,6,1 | 6,5,0.06,0.06,neutral,right,0,46,46,64,1,,,,,,,,,,,,,,,,,,,,,,,,,,,,,,,,,,,,,,,,,,,,,
,838440669607,CBA,11/04/2002,001,2023-10-25_12h12.49.944,OS3_Mult_verification,2022.2.4,Win32,59.91970759,,,,,,,,,,,,,,,,,,,,,,,,,,,,,,,,,,,,,,,,,,,,,,,,,,,,,,,,,,,,,,,,,,,,,,,,,,,,,,,,,,,,,,,,,,,,,,,,,,,,,,,,,,,,left,1,0.5811,,,,,,magnitude,3,1,3 | 1,2,0.05,0.065,incongruent,left,0,47,47,36,1,,,,,,,,,,,,,,,,,,,,,,,,,,,,,,,,,,,,,,,,,,,,,
,838440669607,CBA,11/04/2002,001,2023-10-25_12h12.49.944,OS3_Mult_verification,2022.2.4,Win32,59.91970759,,,,,,,,,,,,,,,,,,,,,,,,,,,,,,,,,,,,,,,,,,,,,,,,,,,,,,,,,,,,,,,,,,,,,,,,,,,,,,,,,,,,,,,,,,,,,,,,,,,,,,,,,,,,right,1,0.5812,,,,,,magnitude,1,2,1 | 2,1,0.05,0.065,congruent,right,0,48,48,0,1,,,,,,,,,,,,,,,,,,,,,,,,,,,,,,,,,,,,,,,,,,,,,
,838440669607,CBA,11/04/2002,001,2023-10-25_12h12.49.944,OS3_Mult_verification,2022.2.4,Win32,59.91970759,,,,,,,,,,,,,,,,,,,,,,,,,,,,,,,,,,,,,,,,,,,,,,,,,,,,,,,,,,,,,,,,,,,,,,,,,,,,,,,,,,,,,,,,,,,,,,,,,,,,,,,,,,,,right,1,0.5149,,,,,,magnitude,4,9,4 | 9,5,0.06,0.06,neutral,right,0,49,49,67,1,,,,,,,,,,,,,,,,,,,,,,,,,,,,,,,,,,,,,,,,,,,,,
,838440669607,CBA,11/04/2002,001,2023-10-25_12h12.49.944,OS3_Mult_verification,2022.2.4,Win32,59.91970759,,,,,,,,,,,,,,,,,,,,,,,,,,,,,,,,,,,,,,,,,,,,,,,,,,,,,,,,,,,,,,,,,,,,,,,,,,,,,,,,,,,,,,,,,,,,,,,,,,,,,,,,,,,,right,1,0.6146,,,,,,magnitude,1,3,1 | 3,2,0.06,0.06,neutral,right,0,50,50,56,1,,,,,,,,,,,,,,,,,,,,,,,,,,,,,,,,,,,,,,,,,,,,,
,838440669607,CBA,11/04/2002,001,2023-10-25_12h12.49.944,OS3_Mult_verification,2022.2.4,Win32,59.91970759,,,,,,,,,,,,,,,,,,,,,,,,,,,,,,,,,,,,,,,,,,,,,,,,,,,,,,,,,,,,,,,,,,,,,,,,,,,,,,,,,,,,,,,,,,,,,,,,,,,,,,,,,,,,right,1,0.682,,,,,,magnitude,7,9,7 | 9,2,0.06,0.06,neutral,right,0,51,51,59,1,,,,,,,,,,,,,,,,,,,,,,,,,,,,,,,,,,,,,,,,,,,,,
,838440669607,CBA,11/04/2002,001,2023-10-25_12h12.49.944,OS3_Mult_verification,2022.2.4,Win32,59.91970759,,,,,,,,,,,,,,,,,,,,,,,,,,,,,,,,,,,,,,,,,,,,,,,,,,,,,,,,,,,,,,,,,,,,,,,,,,,,,,,,,,,,,,,,,,,,,,,,,,,,,,,,,,,,right,1,0.5247,,,,,,magnitude,6,7,6 | 7,1,0.05,0.065,congruent,right,0,52,52,2,1,,,,,,,,,,,,,,,,,,,,,,,,,,,,,,,,,,,,,,,,,,,,,
,838440669607,CBA,11/04/2002,001,2023-10-25_12h12.49.944,OS3_Mult_verification,2022.2.4,Win32,59.91970759,,,,,,,,,,,,,,,,,,,,,,,,,,,,,,,,,,,,,,,,,,,,,,,,,,,,,,,,,,,,,,,,,,,,,,,,,,,,,,,,,,,,,,,,,,,,,,,,,,,,,,,,,,,,left,1,0.5844,,,,,,magnitude,8,3,8 | 3,5,0.065,0.05,congruent,left,0,53,53,22,1,,,,,,,,,,,,,,,,,,,,,,,,,,,,,,,,,,,,,,,,,,,,,
,838440669607,CBA,11/04/2002,001,2023-10-25_12h12.49.944,OS3_Mult_verification,2022.2.4,Win32,59.91970759,,,,,,,,,,,,,,,,,,,,,,,,,,,,,,,,,,,,,,,,,,,,,,,,,,,,,,,,,,,,,,,,,,,,,,,,,,,,,,,,,,,,,,,,,,,,,,,,,,,,,,,,,,,,left,1,1.2147,,,,,,magnitude,2,1,2 | 1,1,0.06,0.06,neutral,left,0,54,54,52,1,,,,,,,,,,,,,,,,,,,,,,,,,,,,,,,,,,,,,,,,,,,,,
,838440669607,CBA,11/04/2002,001,2023-10-25_12h12.49.944,OS3_Mult_verification,2022.2.4,Win32,59.91970759,,,,,,,,,,,,,,,,,,,,,,,,,,,,,,,,,,,,,,,,,,,,,,,,,,,,,,,,,,,,,,,,,,,,,,,,,,,,,,,,,,,,,,,,,,,,,,,,,,,,,,,,,,,,right,1,0.6714,,,,,,magnitude,6,8,6 | 8,2,0.05,0.065,congruent,right,0,55,55,10,1,,,,,,,,,,,,,,,,,,,,,,,,,,,,,,,,,,,,,,,,,,,,,
,838440669607,CBA,11/04/2002,001,2023-10-25_12h12.49.944,OS3_Mult_verification,2022.2.4,Win32,59.91970759,,,,,,,,,,,,,,,,,,,,,,,,,,,,,,,,,,,,,,,,,,,,,,,,,,,,,,,,,,,,,,,,,,,,,,,,,,,,,,,,,,,,,,,,,,,,,,,,,,,,,,,,,,,,left,1,1.0718,,,,,,magnitude,4,2,4 | 2,2,0.05,0.065,incongruent,left,0,56,56,37,1,,,,,,,,,,,,,,,,,,,,,,,,,,,,,,,,,,,,,,,,,,,,,
,838440669607,CBA,11/04/2002,001,2023-10-25_12h12.49.944,OS3_Mult_verification,2022.2.4,Win32,59.91970759,,,,,,,,,,,,,,,,,,,,,,,,,,,,,,,,,,,,,,,,,,,,,,,,,,,,,,,,,,,,,,,,,,,,,,,,,,,,,,,,,,,,,,,,,,,,,,,,,,,,,,,,,,,,left,1,0.6242,,,,,,magnitude,6,1,6 | 1,5,0.05,0.065,incongruent,left,0,57,57,44,1,,,,,,,,,,,,,,,,,,,,,,,,,,,,,,,,,,,,,,,,,,,,,
,838440669607,CBA,11/04/2002,001,2023-10-25_12h12.49.944,OS3_Mult_verification,2022.2.4,Win32,59.91970759,,,,,,,,,,,,,,,,,,,,,,,,,,,,,,,,,,,,,,,,,,,,,,,,,,,,,,,,,,,,,,,,,,,,,,,,,,,,,,,,,,,,,,,,,,,,,,,,,,,,,,,,,,,,right,1,0.5344,,,,,,magnitude,4,9,4 | 9,5,0.05,0.065,congruent,right,0,58,58,19,1,,,,,,,,,,,,,,,,,,,,,,,,,,,,,,,,,,,,,,,,,,,,,
,838440669607,CBA,11/04/2002,001,2023-10-25_12h12.49.944,OS3_Mult_verification,2022.2.4,Win32,59.91970759,,,,,,,,,,,,,,,,,,,,,,,,,,,,,,,,,,,,,,,,,,,,,,,,,,,,,,,,,,,,,,,,,,,,,,,,,,,,,,,,,,,,,,,,,,,,,,,,,,,,,,,,,,,,left,1,0.5813,,,,,,magnitude,9,4,9 | 4,5,0.05,0.065,incongruent,left,0,59,59,47,1,,,,,,,,,,,,,,,,,,,,,,,,,,,,,,,,,,,,,,,,,,,,,
,838440669607,CBA,11/04/2002,001,2023-10-25_12h12.49.944,OS3_Mult_verification,2022.2.4,Win32,59.91970759,,,,,,,,,,,,,,,,,,,,,,,,,,,,,,,,,,,,,,,,,,,,,,,,,,,,,,,,,,,,,,,,,,,,,,,,,,,,,,,,,,,,,,,,,,,,,,,,,,,,,,,,,,,,right,1,0.6154,,,,,,magnitude,6,7,6 | 7,1,0.065,0.05,incongruent,right,0,60,60,26,1,,,,,,,,,,,,,,,,,,,,,,,,,,,,,,,,,,,,,,,,,,,,,
,838440669607,CBA,11/04/2002,001,2023-10-25_12h12.49.944,OS3_Mult_verification,2022.2.4,Win32,59.91970759,,,,,,,,,,,,,,,,,,,,,,,,,,,,,,,,,,,,,,,,,,,,,,,,,,,,,,,,,,,,,,,,,,,,,,,,,,,,,,,,,,,,,,,,,,,,,,,,,,,,,,,,,,,,left,1,0.4662,,,,,,magnitude,8,3,8 | 3,5,0.06,0.06,neutral,left,0,61,61,70,1,,,,,,,,,,,,,,,,,,,,,,,,,,,,,,,,,,,,,,,,,,,,,
,838440669607,CBA,11/04/2002,001,2023-10-25_12h12.49.944,OS3_Mult_verification,2022.2.4,Win32,59.91970759,,,,,,,,,,,,,,,,,,,,,,,,,,,,,,,,,,,,,,,,,,,,,,,,,,,,,,,,,,,,,,,,,,,,,,,,,,,,,,,,,,,,,,,,,,,,,,,,,,,,,,,,,,,,left,1,0.5298,,,,,,magnitude,7,2,7 | 2,5,0.06,0.06,neutral,left,0,62,62,69,1,,,,,,,,,,,,,,,,,,,,,,,,,,,,,,,,,,,,,,,,,,,,,
,838440669607,CBA,11/04/2002,001,2023-10-25_12h12.49.944,OS3_Mult_verification,2022.2.4,Win32,59.91970759,,,,,,,,,,,,,,,,,,,,,,,,,,,,,,,,,,,,,,,,,,,,,,,,,,,,,,,,,,,,,,,,,,,,,,,,,,,,,,,,,,,,,,,,,,,,,,,,,,,,,,,,,,,,left,0,0.6228,,,,,,magnitude,7,9,7 | 9,2,0.065,0.05,incongruent,right,0,63,63,35,1,,,,,,,,,,,,,,,,,,,,,,,,,,,,,,,,,,,,,,,,,,,,,
,838440669607,CBA,11/04/2002,001,2023-10-25_12h12.49.944,OS3_Mult_verification,2022.2.4,Win32,59.91970759,,,,,,,,,,,,,,,,,,,,,,,,,,,,,,,,,,,,,,,,,,,,,,,,,,,,,,,,,,,,,,,,,,,,,,,,,,,,,,,,,,,,,,,,,,,,,,,,,,,,,,,,,,,,right,0,0.6234,,,,,,magnitude,4,2,4 | 2,2,0.065,0.05,congruent,left,0,64,64,13,1,,,,,,,,,,,,,,,,,,,,,,,,,,,,,,,,,,,,,,,,,,,,,
,838440669607,CBA,11/04/2002,001,2023-10-25_12h12.49.944,OS3_Mult_verification,2022.2.4,Win32,59.91970759,,,,,,,,,,,,,,,,,,,,,,,,,,,,,,,,,,,,,,,,,,,,,,,,,,,,,,,,,,,,,,,,,,,,,,,,,,,,,,,,,,,,,,,,,,,,,,,,,,,,,,,,,,,,right,0,0.7995,,,,,,magnitude,2,1,2 | 1,1,0.05,0.065,incongruent,left,0,65,65,28,1,,,,,,,,,,,,,,,,,,,,,,,,,,,,,,,,,,,,,,,,,,,,,
,838440669607,CBA,11/04/2002,001,2023-10-25_12h12.49.944,OS3_Mult_verification,2022.2.4,Win32,59.91970759,,,,,,,,,,,,,,,,,,,,,,,,,,,,,,,,,,,,,,,,,,,,,,,,,,,,,,,,,,,,,,,,,,,,,,,,,,,,,,,,,,,,,,,,,,,,,,,,,,,,,,,,,,,,left,1,0.9147,,,,,,magnitude,6,1,6 | 1,5,0.065,0.05,congruent,left,0,66,66,20,1,,,,,,,,,,,,,,,,,,,,,,,,,,,,,,,,,,,,,,,,,,,,,
,838440669607,CBA,11/04/2002,001,2023-10-25_12h12.49.944,OS3_Mult_verification,2022.2.4,Win32,59.91970759,,,,,,,,,,,,,,,,,,,,,,,,,,,,,,,,,,,,,,,,,,,,,,,,,,,,,,,,,,,,,,,,,,,,,,,,,,,,,,,,,,,,,,,,,,,,,,,,,,,,,,,,,,,,left,1,0.5347,,,,,,magnitude,3,1,3 | 1,2,0.065,0.05,congruent,left,0,67,67,12,1,,,,,,,,,,,,,,,,,,,,,,,,,,,,,,,,,,,,,,,,,,,,,
,838440669607,CBA,11/04/2002,001,2023-10-25_12h12.49.944,OS3_Mult_verification,2022.2.4,Win32,59.91970759,,,,,,,,,,,,,,,,,,,,,,,,,,,,,,,,,,,,,,,,,,,,,,,,,,,,,,,,,,,,,,,,,,,,,,,,,,,,,,,,,,,,,,,,,,,,,,,,,,,,,,,,,,,,right,1,0.5316,,,,,,magnitude,3,4,3 | 4,1,0.06,0.06,neutral,right,0,68,68,49,1,,,,,,,,,,,,,,,,,,,,,,,,,,,,,,,,,,,,,,,,,,,,,
,838440669607,CBA,11/04/2002,001,2023-10-25_12h12.49.944,OS3_Mult_verification,2022.2.4,Win32,59.91970759,,,,,,,,,,,,,,,,,,,,,,,,,,,,,,,,,,,,,,,,,,,,,,,,,,,,,,,,,,,,,,,,,,,,,,,,,,,,,,,,,,,,,,,,,,,,,,,,,,,,,,,,,,,,right,1,0.5396,,,,,,magnitude,3,8,3 | 8,5,0.06,0.06,neutral,right,0,69,69,66,1,,,,,,,,,,,,,,,,,,,,,,,,,,,,,,,,,,,,,,,,,,,,,
,838440669607,CBA,11/04/2002,001,2023-10-25_12h12.49.944,OS3_Mult_verification,2022.2.4,Win32,59.91970759,,,,,,,,,,,,,,,,,,,,,,,,,,,,,,,,,,,,,,,,,,,,,,,,,,,,,,,,,,,,,,,,,,,,,,,,,,,,,,,,,,,,,,,,,,,,,,,,,,,,,,,,,,,,right,0,0.4608,,,,,,magnitude,9,8,9 | 8,1,0.06,0.06,neutral,left,0,70,70,55,1,,,,,,,,,,,,,,,,,,,,,,,,,,,,,,,,,,,,,,,,,,,,,
,838440669607,CBA,11/04/2002,001,2023-10-25_12h12.49.944,OS3_Mult_verification,2022.2.4,Win32,59.91970759,,,,,,,,,,,,,,,,,,,,,,,,,,,,,,,,,,,,,,,,,,,,,,,,,,,,,,,,,,,,,,,,,,,,,,,,,,,,,,,,,,,,,,,,,,,,,,,,,,,,,,,,,,,,left,1,1.32,,,,,,magnitude,7,6,7 | 6,1,0.06,0.06,neutral,left,0,71,71,54,1,,,,,,,,,,,,,,,,,,,,,,,,,,,,,,,,,,,,,,,,,,,,,
,838440669607,CBA,11/04/2002,001,2023-10-25_12h12.49.944,OS3_Mult_verification,2022.2.4,Win32,59.91970759,,,,,,,,,,,,,,,,,,,,,,,,,,,,,,,,,,,,,,,,,,,,,,,,,,,,,,,,,,,,,,,,,,,,,,,,,,,,,,,,,,,,,,,,,,,,,,,,,,,,,,,,,,,,,,,,,,,,,,,,,,,,,,,,,,0,0,0,0,1,stroop_stim/magnitude.xlsx,stroop_stim/prac_magnitude.xlsx,NUMERICALLY larger (larger coefficient).,images/numericallyLarger.png,,,,,,,,,,,,,,,,,,,,,,,,,,,,,,,,,,,,
,838440669607,CBA,11/04/2002,001,2023-10-25_12h12.49.944,OS3_Mult_verification,2022.2.4,Win32,59.91970759,,,,,,,,,,,,,,,,space,0.9669,,,,,,,,,,,,,,,,,,,,,,,,,,,,,,,,,,,,,,,,,,,,,,,,,,,,,,,,,,,,,,,,,,,,,,,,,,,,,,,,,,,,,,,,,,,right,1,0.5001,0,0,0,2,1,practice,9,9,9 | 9,0,0.05,0.065,neutral,right,,,,,,,,,,,,,,,,,,,,,,,,,,,,,,,,,,,,,,,,,,,,,,,,,,
,838440669607,CBA,11/04/2002,001,2023-10-25_12h12.49.944,OS3_Mult_verification,2022.2.4,Win32,59.91970759,,,,,,,,,,,,,,,,,,,,,,,,,,,,,,,,,,,,,,,,,,,,,,,,,,,,,,,,,,,,,,,,,,,,,,,,,,,,,,,,,,,,,,,,,,,,,,,,,,,,,,,,,,,,left,1,0.739,0,1,1,0,1,practice,9,8,9 | 8,1,0.065,0.05,congruent,left,,,,,,,,,,,,,,,,,,,,,,,,,,,,,,,,,,,,,,,,,,,,,,,,,,
,838440669607,CBA,11/04/2002,001,2023-10-25_12h12.49.944,OS3_Mult_verification,2022.2.4,Win32,59.91970759,,,,,,,,,,,,,,,,,,,,,,,,,,,,,,,,,,,,,,,,,,,,,,,,,,,,,,,,,,,,,,,,,,,,,,,,,,,,,,,,,,,,,,,,,,,,,,,,,,,,,,,,,,,,right,1,0.7667,0,2,2,1,1,practice,4,3,4 | 3,1,0.05,0.065,incongruent,right,,,,,,,,,,,,,,,,,,,,,,,,,,,,,,,,,,,,,,,,,,,,,,,,,,
,838440669607,CBA,11/04/2002,001,2023-10-25_12h12.49.944,OS3_Mult_verification,2022.2.4,Win32,59.91970759,,,,,,,,,,,,,,,,,,,,,,,,,,,,,,,,,,,,,,,,,,,,,,,,,,,,,,,,,,,,,,,,,,,,,,,,,,,,,,,,,,,,,,,,,,,,,,,,,,,,,,,,,,,,left,1,0.4583,,,,,,physical,6,1,6 | 1,5,0.065,0.05,congruent,left,0,0,0,20,1,,,,,,,,,,,,,,,,,,,,,,,,,,,,,,,,,,,,,,,,,,,,,
,838440669607,CBA,11/04/2002,001,2023-10-25_12h12.49.944,OS3_Mult_verification,2022.2.4,Win32,59.91970759,,,,,,,,,,,,,,,,,,,,,,,,,,,,,,,,,,,,,,,,,,,,,,,,,,,,,,,,,,,,,,,,,,,,,,,,,,,,,,,,,,,,,,,,,,,,,,,,,,,,,,,,,,,,right,1,0.4335,,,,,,physical,4,9,4 | 9,5,0.05,0.065,congruent,right,0,1,1,19,1,,,,,,,,,,,,,,,,,,,,,,,,,,,,,,,,,,,,,,,,,,,,,
,838440669607,CBA,11/04/2002,001,2023-10-25_12h12.49.944,OS3_Mult_verification,2022.2.4,Win32,59.91970759,,,,,,,,,,,,,,,,,,,,,,,,,,,,,,,,,,,,,,,,,,,,,,,,,,,,,,,,,,,,,,,,,,,,,,,,,,,,,,,,,,,,,,,,,,,,,,,,,,,,,,,,,,,,left,1,0.4107,,,,,,physical,9,7,9 | 7,2,0.065,0.05,congruent,left,0,2,2,15,1,,,,,,,,,,,,,,,,,,,,,,,,,,,,,,,,,,,,,,,,,,,,,
,838440669607,CBA,11/04/2002,001,2023-10-25_12h12.49.944,OS3_Mult_verification,2022.2.4,Win32,59.91970759,,,,,,,,,,,,,,,,,,,,,,,,,,,,,,,,,,,,,,,,,,,,,,,,,,,,,,,,,,,,,,,,,,,,,,,,,,,,,,,,,,,,,,,,,,,,,,,,,,,,,,,,,,,,left,1,0.5002,,,,,,physical,6,6,6 | 6,0,0.065,0.05,neutral,left,0,3,3,50,1,,,,,,,,,,,,,,,,,,,,,,,,,,,,,,,,,,,,,,,,,,,,,
,838440669607,CBA,11/04/2002,001,2023-10-25_12h12.49.944,OS3_Mult_verification,2022.2.4,Win32,59.91970759,,,,,,,,,,,,,,,,,,,,,,,,,,,,,,,,,,,,,,,,,,,,,,,,,,,,,,,,,,,,,,,,,,,,,,,,,,,,,,,,,,,,,,,,,,,,,,,,,,,,,,,,,,,,right,1,0.4169,,,,,,physical,7,7,7 | 7,0,0.05,0.065,neutral,right,0,4,4,59,1,,,,,,,,,,,,,,,,,,,,,,,,,,,,,,,,,,,,,,,,,,,,,
,838440669607,CBA,11/04/2002,001,2023-10-25_12h12.49.944,OS3_Mult_verification,2022.2.4,Win32,59.91970759,,,,,,,,,,,,,,,,,,,,,,,,,,,,,,,,,,,,,,,,,,,,,,,,,,,,,,,,,,,,,,,,,,,,,,,,,,,,,,,,,,,,,,,,,,,,,,,,,,,,,,,,,,,,left,1,0.4169,,,,,,physical,6,7,6 | 7,1,0.065,0.05,incongruent,left,0,5,5,26,1,,,,,,,,,,,,,,,,,,,,,,,,,,,,,,,,,,,,,,,,,,,,,
,838440669607,CBA,11/04/2002,001,2023-10-25_12h12.49.944,OS3_Mult_verification,2022.2.4,Win32,59.91970759,,,,,,,,,,,,,,,,,,,,,,,,,,,,,,,,,,,,,,,,,,,,,,,,,,,,,,,,,,,,,,,,,,,,,,,,,,,,,,,,,,,,,,,,,,,,,,,,,,,,,,,,,,,,right,1,0.4219,,,,,,physical,2,1,2 | 1,1,0.05,0.065,incongruent,right,0,6,6,28,1,,,,,,,,,,,,,,,,,,,,,,,,,,,,,,,,,,,,,,,,,,,,,
,838440669607,CBA,11/04/2002,001,2023-10-25_12h12.49.944,OS3_Mult_verification,2022.2.4,Win32,59.91970759,,,,,,,,,,,,,,,,,,,,,,,,,,,,,,,,,,,,,,,,,,,,,,,,,,,,,,,,,,,,,,,,,,,,,,,,,,,,,,,,,,,,,,,,,,,,,,,,,,,,,,,,,,,,left,1,0.4168,,,,,,physical,8,3,8 | 3,5,0.065,0.05,congruent,left,0,7,7,22,1,,,,,,,,,,,,,,,,,,,,,,,,,,,,,,,,,,,,,,,,,,,,,
,838440669607,CBA,11/04/2002,001,2023-10-25_12h12.49.944,OS3_Mult_verification,2022.2.4,Win32,59.91970759,,,,,,,,,,,,,,,,,,,,,,,,,,,,,,,,,,,,,,,,,,,,,,,,,,,,,,,,,,,,,,,,,,,,,,,,,,,,,,,,,,,,,,,,,,,,,,,,,,,,,,,,,,,,right,1,0.4669,,,,,,physical,4,4,4 | 4,0,0.05,0.065,neutral,right,0,8,8,67,1,,,,,,,,,,,,,,,,,,,,,,,,,,,,,,,,,,,,,,,,,,,,,
,838440669607,CBA,11/04/2002,001,2023-10-25_12h12.49.944,OS3_Mult_verification,2022.2.4,Win32,59.91970759,,,,,,,,,,,,,,,,,,,,,,,,,,,,,,,,,,,,,,,,,,,,,,,,,,,,,,,,,,,,,,,,,,,,,,,,,,,,,,,,,,,,,,,,,,,,,,,,,,,,,,,,,,,,right,1,0.5168,,,,,,physical,1,1,1 | 1,0,0.05,0.065,neutral,right,0,9,9,56,1,,,,,,,,,,,,,,,,,,,,,,,,,,,,,,,,,,,,,,,,,,,,,
,838440669607,CBA,11/04/2002,001,2023-10-25_12h12.49.944,OS3_Mult_verification,2022.2.4,Win32,59.91970759,,,,,,,,,,,,,,,,,,,,,,,,,,,,,,,,,,,,,,,,,,,,,,,,,,,,,,,,,,,,,,,,,,,,,,,,,,,,,,,,,,,,,,,,,,,,,,,,,,,,,,,,,,,,right,1,0.4559,,,,,,physical,6,7,6 | 7,1,0.05,0.065,congruent,right,0,10,10,2,1,,,,,,,,,,,,,,,,,,,,,,,,,,,,,,,,,,,,,,,,,,,,,
,838440669607,CBA,11/04/2002,001,2023-10-25_12h12.49.944,OS3_Mult_verification,2022.2.4,Win32,59.91970759,,,,,,,,,,,,,,,,,,,,,,,,,,,,,,,,,,,,,,,,,,,,,,,,,,,,,,,,,,,,,,,,,,,,,,,,,,,,,,,,,,,,,,,,,,,,,,,,,,,,,,,,,,,,left,1,0.8649,,,,,,physical,2,7,2 | 7,5,0.065,0.05,incongruent,left,0,11,11,41,1,,,,,,,,,,,,,,,,,,,,,,,,,,,,,,,,,,,,,,,,,,,,,
