windowSize,participant,group,DOB (DD/MM/YEAR),session,date,expName,psychopyVersion,OS,frameRate,typing_instr_resp.keys,typing_instr_resp.rt,typing_response,typing_rt,typing_score,typingSpeed_input_resp.keys,typingSpeed_input_resp.rt,typing_speed_trials.thisRepN,typing_speed_trials.thisTrialN,typing_speed_trials.thisN,typing_speed_trials.thisIndex,typing_speed_trials.ran,typing_speed_stim,typing_report_resp.keys,typing_report_resp.rt,vpt_trial_resp1.keys,vpt_trial_resp1.rt,typedResponse,fluency_rt,fluency_score,fluencyInputResp.keys,fluencyInputResp.rt,fluencyPracLoop.thisRepN,fluencyPracLoop.thisTrialN,fluencyPracLoop.thisN,fluencyPracLoop.thisIndex,fluencyPracLoop.ran,problem,answers,fluencyLoop.thisRepN,fluencyLoop.thisTrialN,fluencyLoop.thisN,fluencyLoop.thisIndex,fluencyLoop.ran,vptCorrect,vpt_rt,respMouse.x,respMouse.y,respMouse.leftButton,respMouse.midButton,respMouse.rightButton,vptPracticeLoop.thisRepN,vptPracticeLoop.thisTrialN,vptPracticeLoop.thisN,vptPracticeLoop.thisIndex,vptPracticeLoop.ran,trialType,tiles,rows,cols,vptTrialLoop.thisRepN,vptTrialLoop.thisTrialN,vptTrialLoop.thisN,vptTrialLoop.thisIndex,vptTrialLoop.ran,noOfBlocks,TASK_B.thisRepN,TASK_B.thisTrialN,TASK_B.thisN,TASK_B.thisIndex,TASK_B.ran,controlTaskOrder.thisRepN,controlTaskOrder.thisTrialN,controlTaskOrder.thisN,controlTaskOrder.thisIndex,controlTaskOrder.ran,nRepsTask1,nRepsTask2,nRepsTask3,sampleAudio_resp.keys,sampleAudio_resp.rt,subjResponse,audio_rt,DS_score,inputResp.keys,inputResp.rt,audioPracticeLoop.thisRepN,audioPracticeLoop.thisTrialN,audioPracticeLoop.thisN,audioPracticeLoop.thisIndex,audioPracticeLoop.ran,digitSpan,digits_audioStim,soundsFile,typeDS,audioTrials_Loop.thisRepN,audioTrials_Loop.thisTrialN,audioTrials_Loop.thisN,audioTrials_Loop.thisIndex,audioTrials_Loop.ran,audioBlocks_loop.thisRepN,audioBlocks_loop.thisTrialN,audioBlocks_loop.thisN,audioBlocks_loop.thisIndex,audioBlocks_loop.ran,ConditionFile,digitSpanTask_loop.thisRepN,digitSpanTask_loop.thisTrialN,digitSpanTask_loop.thisN,digitSpanTask_loop.thisIndex,digitSpanTask_loop.ran,dsFile,TASK_C.thisRepN,TASK_C.thisTrialN,TASK_C.thisN,TASK_C.thisIndex,TASK_C.ran,stroopResp.keys,stroopResp.corr,stroopResp.rt,stroopPracLoop.thisRepN,stroopPracLoop.thisTrialN,stroopPracLoop.thisN,stroopPracLoop.thisIndex,stroopPracLoop.ran,stroopCond,leftNo,rightNo,displayProblem,numDistance,leftNo_size,rightNo_size,Dims,keyAnswer,stroopLoop.thisRepN,stroopLoop.thisTrialN,stroopLoop.thisN,stroopLoop.thisIndex,stroopLoop.ran,stroopBlocks.thisRepN,stroopBlocks.thisTrialN,stroopBlocks.thisN,stroopBlocks.thisIndex,stroopBlocks.ran,stroop_condition,stroop_pracFile,ActionInst,instrImage,TASK_A.thisRepN,TASK_A.thisTrialN,TASK_A.thisN,TASK_A.thisIndex,TASK_A.ran,veriStim_resp.keys,veriStim_resp.corr,veriStim_resp.rt,verificationPracLoop.thisRepN,verificationPracLoop.thisTrialN,verificationPracLoop.thisN,verificationPracLoop.thisIndex,verificationPracLoop.ran,mult_problem,mult_answer,mult_type,error_distance,interferenceScore,problemType,interferenceLevel,problemSize,img_leftButton,img_rightButton,veriLoop.thisRepN,veriLoop.thisTrialN,veriLoop.thisN,veriLoop.thisIndex,veriLoop.ran,veriBlock.thisRepN,veriBlock.thisTrialN,veriBlock.thisN,veriBlock.thisIndex,veriBlock.ran,verificationFiles,end_resp.keys,end_resp.rt
"[1920,955]",697608015709,BCA,26/04/1999,001,2023-09-28_15h43.38.590,OS3_Mult_verification,2022.2.4,Win32,60.29908345,,,,,,,,,,,,,,,,,,,,,,,,,,,,,,,,,,,,,,,,,,,,,,,,,,,,,,,,,,,,,,,,,,,,,,,,,,,,,,,,,,,,,,,,,,,,,,,,,,,,,,,,,,,,,,,,,,,,,,,,,,,,,,,,,,,,,,,,,,,,,,,,,,,,,,,,,,,,,,,,,,,,,,,,,,,,,,
,697608015709,BCA,26/04/1999,001,2023-09-28_15h43.38.590,OS3_Mult_verification,2022.2.4,Win32,60.29908345,,,,,,,,,,,,,,,,,,,,,,,,,,,,,,,,,,,,,,,,,,,,,,,,,,,,,,,,,,,,,,,,,,,,,,,,,,,,,,,,,,,,,,,,,,,,,,,,,,,,,,,,,,,,,,,,,,,,,,,,,,,,,,,,,,,,,,,,,,,,,,,,,,,,,,,,,,,,,,,,,,,,,,,,,,,,,,
,697608015709,BCA,26/04/1999,001,2023-09-28_15h43.38.590,OS3_Mult_verification,2022.2.4,Win32,60.29908345,space,26.5702,,,,,,,,,,,,,,,,,,,,,,,,,,,,,,,,,,,,,,,,,,,,,,,,,,,,,,,,,,,,,,,,,,,,,,,,,,,,,,,,,,,,,,,,,,,,,,,,,,,,,,,,,,,,,,,,,,,,,,,,,,,,,,,,,,,,,,,,,,,,,,,,,,,,,,,,,,,,,,,,,,,,,,,,,,,,
,697608015709,BCA,26/04/1999,001,2023-09-28_15h43.38.590,OS3_Mult_verification,2022.2.4,Win32,60.29908345,,,8,2.7693,1,"[""8"",""return""]","[1.7387000000476718,2.737400000095363]",0,0,0,2,1,8,,,,,,,,,,,,,,,,,,,,,,,,,,,,,,,,,,,,,,,,,,,,,,,,,,,,,,,,,,,,,,,,,,,,,,,,,,,,,,,,,,,,,,,,,,,,,,,,,,,,,,,,,,,,,,,,,,,,,,,,,,,,,,,,,,,,,,,,,,,,,,,,,,,,,,,,,,,,,,,,,
,697608015709,BCA,26/04/1999,001,2023-09-28_15h43.38.590,OS3_Mult_verification,2022.2.4,Win32,60.29908345,,,21,1.7685,1,"[""2"",""1"",""return""]","[1.4484999999999957,1.5651000001430475,1.7384000000953677]",0,1,1,11,1,21,,,,,,,,,,,,,,,,,,,,,,,,,,,,,,,,,,,,,,,,,,,,,,,,,,,,,,,,,,,,,,,,,,,,,,,,,,,,,,,,,,,,,,,,,,,,,,,,,,,,,,,,,,,,,,,,,,,,,,,,,,,,,,,,,,,,,,,,,,,,,,,,,,,,,,,,,,,,,,,,,
,697608015709,BCA,26/04/1999,001,2023-09-28_15h43.38.590,OS3_Mult_verification,2022.2.4,Win32,60.29908345,,,49,1.8017,1,"[""4"",""9"",""return""]","[1.0858999998569487,1.6593999998569444,1.7658999998569413]",0,2,2,24,1,49,,,,,,,,,,,,,,,,,,,,,,,,,,,,,,,,,,,,,,,,,,,,,,,,,,,,,,,,,,,,,,,,,,,,,,,,,,,,,,,,,,,,,,,,,,,,,,,,,,,,,,,,,,,,,,,,,,,,,,,,,,,,,,,,,,,,,,,,,,,,,,,,,,,,,,,,,,,,,,,,,
,697608015709,BCA,26/04/1999,001,2023-09-28_15h43.38.590,OS3_Mult_verification,2022.2.4,Win32,60.29908345,,,48,3.02,1,"[""4"",""8"",""return""]","[2.433600000143059,2.8446000001430605,2.9844000000953628]",0,3,3,23,1,48,,,,,,,,,,,,,,,,,,,,,,,,,,,,,,,,,,,,,,,,,,,,,,,,,,,,,,,,,,,,,,,,,,,,,,,,,,,,,,,,,,,,,,,,,,,,,,,,,,,,,,,,,,,,,,,,,,,,,,,,,,,,,,,,,,,,,,,,,,,,,,,,,,,,,,,,,,,,,,,,,
,697608015709,BCA,26/04/1999,001,2023-09-28_15h43.38.590,OS3_Mult_verification,2022.2.4,Win32,60.29908345,,,25,1.6353,1,"[""2"",""5"",""return""]","[1.265700000047687,1.477200000047688,1.6095000000000113]",0,4,4,13,1,25,,,,,,,,,,,,,,,,,,,,,,,,,,,,,,,,,,,,,,,,,,,,,,,,,,,,,,,,,,,,,,,,,,,,,,,,,,,,,,,,,,,,,,,,,,,,,,,,,,,,,,,,,,,,,,,,,,,,,,,,,,,,,,,,,,,,,,,,,,,,,,,,,,,,,,,,,,,,,,,,,
,697608015709,BCA,26/04/1999,001,2023-09-28_15h43.38.590,OS3_Mult_verification,2022.2.4,Win32,60.29908345,,,45,1.4179,1,"[""4"",""5"",""return""]","[1.1305999999046321,1.2807999999523076,1.3848999998569411]",0,5,5,22,1,45,,,,,,,,,,,,,,,,,,,,,,,,,,,,,,,,,,,,,,,,,,,,,,,,,,,,,,,,,,,,,,,,,,,,,,,,,,,,,,,,,,,,,,,,,,,,,,,,,,,,,,,,,,,,,,,,,,,,,,,,,,,,,,,,,,,,,,,,,,,,,,,,,,,,,,,,,,,,,,,,,
,697608015709,BCA,26/04/1999,001,2023-09-28_15h43.38.590,OS3_Mult_verification,2022.2.4,Win32,60.29908345,,,4,1.6346,1,"[""4"",""return""]","[1.4224999999999994,1.5985999999046356]",0,6,6,0,1,4,,,,,,,,,,,,,,,,,,,,,,,,,,,,,,,,,,,,,,,,,,,,,,,,,,,,,,,,,,,,,,,,,,,,,,,,,,,,,,,,,,,,,,,,,,,,,,,,,,,,,,,,,,,,,,,,,,,,,,,,,,,,,,,,,,,,,,,,,,,,,,,,,,,,,,,,,,,,,,,,,
,697608015709,BCA,26/04/1999,001,2023-09-28_15h43.38.590,OS3_Mult_verification,2022.2.4,Win32,60.29908345,,,35,2.1021,1,"[""3"",""5"",""return""]","[1.5657999999523184,1.870599999904627,2.0757999999523093]",0,7,7,18,1,35,,,,,,,,,,,,,,,,,,,,,,,,,,,,,,,,,,,,,,,,,,,,,,,,,,,,,,,,,,,,,,,,,,,,,,,,,,,,,,,,,,,,,,,,,,,,,,,,,,,,,,,,,,,,,,,,,,,,,,,,,,,,,,,,,,,,,,,,,,,,,,,,,,,,,,,,,,,,,,,,,
,697608015709,BCA,26/04/1999,001,2023-09-28_15h43.38.590,OS3_Mult_verification,2022.2.4,Win32,60.29908345,,,30,1.6852,1,"[""3"",""0"",""return""]","[1.1355000000000075,1.259799999952321,1.6495000000000033]",0,8,8,16,1,30,,,,,,,,,,,,,,,,,,,,,,,,,,,,,,,,,,,,,,,,,,,,,,,,,,,,,,,,,,,,,,,,,,,,,,,,,,,,,,,,,,,,,,,,,,,,,,,,,,,,,,,,,,,,,,,,,,,,,,,,,,,,,,,,,,,,,,,,,,,,,,,,,,,,,,,,,,,,,,,,,
,697608015709,BCA,26/04/1999,001,2023-09-28_15h43.38.590,OS3_Mult_verification,2022.2.4,Win32,60.29908345,,,14,1.5346,1,"[""1"",""4"",""return""]","[0.7977000000476835,1.389400000095364,1.5030999999046344]",0,9,9,6,1,14,,,,,,,,,,,,,,,,,,,,,,,,,,,,,,,,,,,,,,,,,,,,,,,,,,,,,,,,,,,,,,,,,,,,,,,,,,,,,,,,,,,,,,,,,,,,,,,,,,,,,,,,,,,,,,,,,,,,,,,,,,,,,,,,,,,,,,,,,,,,,,,,,,,,,,,,,,,,,,,,,
,697608015709,BCA,26/04/1999,001,2023-09-28_15h43.38.590,OS3_Mult_verification,2022.2.4,Win32,60.29908345,,,15,1.2345,1,"[""1"",""5"",""return""]","[0.7424999999999926,1.048600000143054,1.1982000000476773]",0,10,10,7,1,15,,,,,,,,,,,,,,,,,,,,,,,,,,,,,,,,,,,,,,,,,,,,,,,,,,,,,,,,,,,,,,,,,,,,,,,,,,,,,,,,,,,,,,,,,,,,,,,,,,,,,,,,,,,,,,,,,,,,,,,,,,,,,,,,,,,,,,,,,,,,,,,,,,,,,,,,,,,,,,,,,
,697608015709,BCA,26/04/1999,001,2023-09-28_15h43.38.590,OS3_Mult_verification,2022.2.4,Win32,60.29908345,,,20,1.6348,1,"[""2"",""0"",""return""]","[0.8897000000476822,1.4527000000476846,1.6031000001430442]",0,11,11,10,1,20,,,,,,,,,,,,,,,,,,,,,,,,,,,,,,,,,,,,,,,,,,,,,,,,,,,,,,,,,,,,,,,,,,,,,,,,,,,,,,,,,,,,,,,,,,,,,,,,,,,,,,,,,,,,,,,,,,,,,,,,,,,,,,,,,,,,,,,,,,,,,,,,,,,,,,,,,,,,,,,,,
,697608015709,BCA,26/04/1999,001,2023-09-28_15h43.38.590,OS3_Mult_verification,2022.2.4,Win32,60.29908345,,,12,1.3343,1,"[""1"",""2"",""return""]","[1.0141000001430598,1.214500000000001,1.29840000009537]",0,12,12,5,1,12,,,,,,,,,,,,,,,,,,,,,,,,,,,,,,,,,,,,,,,,,,,,,,,,,,,,,,,,,,,,,,,,,,,,,,,,,,,,,,,,,,,,,,,,,,,,,,,,,,,,,,,,,,,,,,,,,,,,,,,,,,,,,,,,,,,,,,,,,,,,,,,,,,,,,,,,,,,,,,,,,
,697608015709,BCA,26/04/1999,001,2023-09-28_15h43.38.590,OS3_Mult_verification,2022.2.4,Win32,60.29908345,,,27,1.3011,1,"[""2"",""7"",""return""]","[0.6805999999046293,1.1149000000953606,1.2652000000476846]",0,13,13,14,1,27,,,,,,,,,,,,,,,,,,,,,,,,,,,,,,,,,,,,,,,,,,,,,,,,,,,,,,,,,,,,,,,,,,,,,,,,,,,,,,,,,,,,,,,,,,,,,,,,,,,,,,,,,,,,,,,,,,,,,,,,,,,,,,,,,,,,,,,,,,,,,,,,,,,,,,,,,,,,,,,,,
,697608015709,BCA,26/04/1999,001,2023-09-28_15h43.38.590,OS3_Mult_verification,2022.2.4,Win32,60.29908345,,,63,1.9856,1,"[""6"",""3"",""return""]","[1.3409000000953597,1.8097999999523182,1.9554000000953664]",0,14,14,27,1,63,,,,,,,,,,,,,,,,,,,,,,,,,,,,,,,,,,,,,,,,,,,,,,,,,,,,,,,,,,,,,,,,,,,,,,,,,,,,,,,,,,,,,,,,,,,,,,,,,,,,,,,,,,,,,,,,,,,,,,,,,,,,,,,,,,,,,,,,,,,,,,,,,,,,,,,,,,,,,,,,,
,697608015709,BCA,26/04/1999,001,2023-09-28_15h43.38.590,OS3_Mult_verification,2022.2.4,Win32,60.29908345,,,56,1.5514,1,"[""5"",""6"",""return""]","[1.1859000000953728,1.3989000000953666,1.5245000000000033]",0,15,15,26,1,56,,,,,,,,,,,,,,,,,,,,,,,,,,,,,,,,,,,,,,,,,,,,,,,,,,,,,,,,,,,,,,,,,,,,,,,,,,,,,,,,,,,,,,,,,,,,,,,,,,,,,,,,,,,,,,,,,,,,,,,,,,,,,,,,,,,,,,,,,,,,,,,,,,,,,,,,,,,,,,,,,
,697608015709,BCA,26/04/1999,001,2023-09-28_15h43.38.590,OS3_Mult_verification,2022.2.4,Win32,60.29908345,,,16,1.5679,1,"[""1"",""6"",""return""]","[0.8864999999999981,1.3744999999999976,1.5387000000476831]",0,16,16,8,1,16,,,,,,,,,,,,,,,,,,,,,,,,,,,,,,,,,,,,,,,,,,,,,,,,,,,,,,,,,,,,,,,,,,,,,,,,,,,,,,,,,,,,,,,,,,,,,,,,,,,,,,,,,,,,,,,,,,,,,,,,,,,,,,,,,,,,,,,,,,,,,,,,,,,,,,,,,,,,,,,,,
,697608015709,BCA,26/04/1999,001,2023-09-28_15h43.38.590,OS3_Mult_verification,2022.2.4,Win32,60.29908345,,,81,2.9196,1,"[""7"",""backspace"",""8"",""1"",""return""]","[1.0660000000000025,1.768399999856939,2.422099999904617,2.538299999952301,2.8925000000000125]",0,17,17,30,1,81,,,,,,,,,,,,,,,,,,,,,,,,,,,,,,,,,,,,,,,,,,,,,,,,,,,,,,,,,,,,,,,,,,,,,,,,,,,,,,,,,,,,,,,,,,,,,,,,,,,,,,,,,,,,,,,,,,,,,,,,,,,,,,,,,,,,,,,,,,,,,,,,,,,,,,,,,,,,,,,,,
,697608015709,BCA,26/04/1999,001,2023-09-28_15h43.38.590,OS3_Mult_verification,2022.2.4,Win32,60.29908345,,,32,1.5015,1,"[""3"",""2"",""return""]","[0.9020999999046353,1.3149999999999977,1.4647999999523051]",0,18,18,17,1,32,,,,,,,,,,,,,,,,,,,,,,,,,,,,,,,,,,,,,,,,,,,,,,,,,,,,,,,,,,,,,,,,,,,,,,,,,,,,,,,,,,,,,,,,,,,,,,,,,,,,,,,,,,,,,,,,,,,,,,,,,,,,,,,,,,,,,,,,,,,,,,,,,,,,,,,,,,,,,,,,,
,697608015709,BCA,26/04/1999,001,2023-09-28_15h43.38.590,OS3_Mult_verification,2022.2.4,Win32,60.29908345,,,18,1.7017,1,"[""1"",""8"",""return""]","[1.1342999999523329,1.205399999856951,1.665799999952327]",0,19,19,9,1,18,,,,,,,,,,,,,,,,,,,,,,,,,,,,,,,,,,,,,,,,,,,,,,,,,,,,,,,,,,,,,,,,,,,,,,,,,,,,,,,,,,,,,,,,,,,,,,,,,,,,,,,,,,,,,,,,,,,,,,,,,,,,,,,,,,,,,,,,,,,,,,,,,,,,,,,,,,,,,,,,,
,697608015709,BCA,26/04/1999,001,2023-09-28_15h43.38.590,OS3_Mult_verification,2022.2.4,Win32,60.29908345,,,72,1.6184,1,"[""7"",""2"",""return""]","[1.1152999999523274,1.2559000000953802,1.58270000004768]",0,20,20,29,1,72,,,,,,,,,,,,,,,,,,,,,,,,,,,,,,,,,,,,,,,,,,,,,,,,,,,,,,,,,,,,,,,,,,,,,,,,,,,,,,,,,,,,,,,,,,,,,,,,,,,,,,,,,,,,,,,,,,,,,,,,,,,,,,,,,,,,,,,,,,,,,,,,,,,,,,,,,,,,,,,,,
,697608015709,BCA,26/04/1999,001,2023-09-28_15h43.38.590,OS3_Mult_verification,2022.2.4,Win32,60.29908345,,,42,2.1018,1,"[""4"",""2"",""return""]","[1.8152000000476676,1.9430999999046321,2.0689000000953683]",0,21,21,21,1,42,,,,,,,,,,,,,,,,,,,,,,,,,,,,,,,,,,,,,,,,,,,,,,,,,,,,,,,,,,,,,,,,,,,,,,,,,,,,,,,,,,,,,,,,,,,,,,,,,,,,,,,,,,,,,,,,,,,,,,,,,,,,,,,,,,,,,,,,,,,,,,,,,,,,,,,,,,,,,,,,,
,697608015709,BCA,26/04/1999,001,2023-09-28_15h43.38.590,OS3_Mult_verification,2022.2.4,Win32,60.29908345,,,24,1.368,1,"[""2"",""4"",""return""]","[0.80639999985695,1.2154999999999916,1.3394999999999868]",0,22,22,12,1,24,,,,,,,,,,,,,,,,,,,,,,,,,,,,,,,,,,,,,,,,,,,,,,,,,,,,,,,,,,,,,,,,,,,,,,,,,,,,,,,,,,,,,,,,,,,,,,,,,,,,,,,,,,,,,,,,,,,,,,,,,,,,,,,,,,,,,,,,,,,,,,,,,,,,,,,,,,,,,,,,,
,697608015709,BCA,26/04/1999,001,2023-09-28_15h43.38.590,OS3_Mult_verification,2022.2.4,Win32,60.29908345,,,54,1.6183,1,"[""5"",""4"",""return""]","[1.3249999999999886,1.4322000000476862,1.5879000000953738]",0,23,23,25,1,54,,,,,,,,,,,,,,,,,,,,,,,,,,,,,,,,,,,,,,,,,,,,,,,,,,,,,,,,,,,,,,,,,,,,,,,,,,,,,,,,,,,,,,,,,,,,,,,,,,,,,,,,,,,,,,,,,,,,,,,,,,,,,,,,,,,,,,,,,,,,,,,,,,,,,,,,,,,,,,,,,
,697608015709,BCA,26/04/1999,001,2023-09-28_15h43.38.590,OS3_Mult_verification,2022.2.4,Win32,60.29908345,,,40,2.0186,1,"[""4"",""0"",""return""]","[1.5324999999999989,1.615299999952299,1.9852999999523036]",0,24,24,20,1,40,,,,,,,,,,,,,,,,,,,,,,,,,,,,,,,,,,,,,,,,,,,,,,,,,,,,,,,,,,,,,,,,,,,,,,,,,,,,,,,,,,,,,,,,,,,,,,,,,,,,,,,,,,,,,,,,,,,,,,,,,,,,,,,,,,,,,,,,,,,,,,,,,,,,,,,,,,,,,,,,,
,697608015709,BCA,26/04/1999,001,2023-09-28_15h43.38.590,OS3_Mult_verification,2022.2.4,Win32,60.29908345,,,9,1.4348,1,"[""9"",""return""]","[0.8769000000953895,1.4040000000000248]",0,25,25,3,1,9,,,,,,,,,,,,,,,,,,,,,,,,,,,,,,,,,,,,,,,,,,,,,,,,,,,,,,,,,,,,,,,,,,,,,,,,,,,,,,,,,,,,,,,,,,,,,,,,,,,,,,,,,,,,,,,,,,,,,,,,,,,,,,,,,,,,,,,,,,,,,,,,,,,,,,,,,,,,,,,,,
,697608015709,BCA,26/04/1999,001,2023-09-28_15h43.38.590,OS3_Mult_verification,2022.2.4,Win32,60.29908345,,,36,3.2867,1,"[""3"",""6"",""return""]","[2.571099999904618,2.707499999999982,3.2588999998569363]",0,26,26,19,1,36,,,,,,,,,,,,,,,,,,,,,,,,,,,,,,,,,,,,,,,,,,,,,,,,,,,,,,,,,,,,,,,,,,,,,,,,,,,,,,,,,,,,,,,,,,,,,,,,,,,,,,,,,,,,,,,,,,,,,,,,,,,,,,,,,,,,,,,,,,,,,,,,,,,,,,,,,,,,,,,,,
,697608015709,BCA,26/04/1999,001,2023-09-28_15h43.38.590,OS3_Mult_verification,2022.2.4,Win32,60.29908345,,,6,1.2679,1,"[""6"",""return""]","[1.134999999999991,1.240000000000009]",0,27,27,1,1,6,,,,,,,,,,,,,,,,,,,,,,,,,,,,,,,,,,,,,,,,,,,,,,,,,,,,,,,,,,,,,,,,,,,,,,,,,,,,,,,,,,,,,,,,,,,,,,,,,,,,,,,,,,,,,,,,,,,,,,,,,,,,,,,,,,,,,,,,,,,,,,,,,,,,,,,,,,,,,,,,,
,697608015709,BCA,26/04/1999,001,2023-09-28_15h43.38.590,OS3_Mult_verification,2022.2.4,Win32,60.29908345,,,10,1.7017,1,"[""1"",""0"",""return""]","[0.9003000001907537,0.9908000001907453,1.669100000143061]",0,28,28,4,1,10,,,,,,,,,,,,,,,,,,,,,,,,,,,,,,,,,,,,,,,,,,,,,,,,,,,,,,,,,,,,,,,,,,,,,,,,,,,,,,,,,,,,,,,,,,,,,,,,,,,,,,,,,,,,,,,,,,,,,,,,,,,,,,,,,,,,,,,,,,,,,,,,,,,,,,,,,,,,,,,,,
,697608015709,BCA,26/04/1999,001,2023-09-28_15h43.38.590,OS3_Mult_verification,2022.2.4,Win32,60.29908345,,,64,1.7018,1,"[""6"",""4"",""return""]","[1.2339000000953604,1.3199999999999932,1.6672000000476714]",0,29,29,28,1,64,,,,,,,,,,,,,,,,,,,,,,,,,,,,,,,,,,,,,,,,,,,,,,,,,,,,,,,,,,,,,,,,,,,,,,,,,,,,,,,,,,,,,,,,,,,,,,,,,,,,,,,,,,,,,,,,,,,,,,,,,,,,,,,,,,,,,,,,,,,,,,,,,,,,,,,,,,,,,,,,,
,697608015709,BCA,26/04/1999,001,2023-09-28_15h43.38.590,OS3_Mult_verification,2022.2.4,Win32,60.29908345,,,28,1.4847,1,"[""2"",""8"",""return""]","[1.0373000001907542,1.1042000000476833,1.4513000001907415]",0,30,30,15,1,28,,,,,,,,,,,,,,,,,,,,,,,,,,,,,,,,,,,,,,,,,,,,,,,,,,,,,,,,,,,,,,,,,,,,,,,,,,,,,,,,,,,,,,,,,,,,,,,,,,,,,,,,,,,,,,,,,,,,,,,,,,,,,,,,,,,,,,,,,,,,,,,,,,,,,,,,,,,,,,,,,
,697608015709,BCA,26/04/1999,001,2023-09-28_15h43.38.590,OS3_Mult_verification,2022.2.4,Win32,60.29908345,,,54,1.2346,1,"[""5"",""4"",""return""]","[0.8927000000476824,0.9649000000953549,1.2074000000953617]",1,0,31,25,1,54,,,,,,,,,,,,,,,,,,,,,,,,,,,,,,,,,,,,,,,,,,,,,,,,,,,,,,,,,,,,,,,,,,,,,,,,,,,,,,,,,,,,,,,,,,,,,,,,,,,,,,,,,,,,,,,,,,,,,,,,,,,,,,,,,,,,,,,,,,,,,,,,,,,,,,,,,,,,,,,,,
,697608015709,BCA,26/04/1999,001,2023-09-28_15h43.38.590,OS3_Mult_verification,2022.2.4,Win32,60.29908345,,,81,2.0018,1,"[""8"",""2"",""backspace"",""1"",""return""]","[0.948099999904656,1.0842999999523215,1.6167000000477003,1.7883999998569493,1.9717999999523386]",1,1,32,30,1,81,,,,,,,,,,,,,,,,,,,,,,,,,,,,,,,,,,,,,,,,,,,,,,,,,,,,,,,,,,,,,,,,,,,,,,,,,,,,,,,,,,,,,,,,,,,,,,,,,,,,,,,,,,,,,,,,,,,,,,,,,,,,,,,,,,,,,,,,,,,,,,,,,,,,,,,,,,,,,,,,,
,697608015709,BCA,26/04/1999,001,2023-09-28_15h43.38.590,OS3_Mult_verification,2022.2.4,Win32,60.29908345,,,6,1.3412,1,"[""6"",""return""]","[1.191700000047689,1.2990000000000066]",1,2,33,1,1,6,,,,,,,,,,,,,,,,,,,,,,,,,,,,,,,,,,,,,,,,,,,,,,,,,,,,,,,,,,,,,,,,,,,,,,,,,,,,,,,,,,,,,,,,,,,,,,,,,,,,,,,,,,,,,,,,,,,,,,,,,,,,,,,,,,,,,,,,,,,,,,,,,,,,,,,,,,,,,,,,,
,697608015709,BCA,26/04/1999,001,2023-09-28_15h43.38.590,OS3_Mult_verification,2022.2.4,Win32,60.29908345,,,24,1.8924,1,"[""2"",""4"",""return""]","[0.8847000000476726,1.652200000047685,1.8457000000476853]",1,3,34,12,1,24,,,,,,,,,,,,,,,,,,,,,,,,,,,,,,,,,,,,,,,,,,,,,,,,,,,,,,,,,,,,,,,,,,,,,,,,,,,,,,,,,,,,,,,,,,,,,,,,,,,,,,,,,,,,,,,,,,,,,,,,,,,,,,,,,,,,,,,,,,,,,,,,,,,,,,,,,,,,,,,,,
,697608015709,BCA,26/04/1999,001,2023-09-28_15h43.38.590,OS3_Mult_verification,2022.2.4,Win32,60.29908345,,,25,1.6019,1,"[""2"",""5"",""return""]","[0.9515999999046301,1.085099999904628,1.5587999999523277]",1,4,35,13,1,25,,,,,,,,,,,,,,,,,,,,,,,,,,,,,,,,,,,,,,,,,,,,,,,,,,,,,,,,,,,,,,,,,,,,,,,,,,,,,,,,,,,,,,,,,,,,,,,,,,,,,,,,,,,,,,,,,,,,,,,,,,,,,,,,,,,,,,,,,,,,,,,,,,,,,,,,,,,,,,,,,
,697608015709,BCA,26/04/1999,001,2023-09-28_15h43.38.590,OS3_Mult_verification,2022.2.4,Win32,60.29908345,,,8,1.368,1,"[""8"",""return""]","[1.2215999999046403,1.3234000000953756]",1,5,36,2,1,8,,,,,,,,,,,,,,,,,,,,,,,,,,,,,,,,,,,,,,,,,,,,,,,,,,,,,,,,,,,,,,,,,,,,,,,,,,,,,,,,,,,,,,,,,,,,,,,,,,,,,,,,,,,,,,,,,,,,,,,,,,,,,,,,,,,,,,,,,,,,,,,,,,,,,,,,,,,,,,,,,
,697608015709,BCA,26/04/1999,001,2023-09-28_15h43.38.590,OS3_Mult_verification,2022.2.4,Win32,60.29908345,,,45,1.8014,1,"[""4"",""5"",""return""]","[1.1682000000477046,1.2515999999046414,1.754000000000019]",1,6,37,22,1,45,,,,,,,,,,,,,,,,,,,,,,,,,,,,,,,,,,,,,,,,,,,,,,,,,,,,,,,,,,,,,,,,,,,,,,,,,,,,,,,,,,,,,,,,,,,,,,,,,,,,,,,,,,,,,,,,,,,,,,,,,,,,,,,,,,,,,,,,,,,,,,,,,,,,,,,,,,,,,,,,,
,697608015709,BCA,26/04/1999,001,2023-09-28_15h43.38.590,OS3_Mult_verification,2022.2.4,Win32,60.29908345,,,49,1.6918,1,"[""4"",""9"",""return""]","[1.156000000000006,1.3273999998569366,1.6520999999046353]",1,7,38,24,1,49,,,,,,,,,,,,,,,,,,,,,,,,,,,,,,,,,,,,,,,,,,,,,,,,,,,,,,,,,,,,,,,,,,,,,,,,,,,,,,,,,,,,,,,,,,,,,,,,,,,,,,,,,,,,,,,,,,,,,,,,,,,,,,,,,,,,,,,,,,,,,,,,,,,,,,,,,,,,,,,,,
,697608015709,BCA,26/04/1999,001,2023-09-28_15h43.38.590,OS3_Mult_verification,2022.2.4,Win32,60.29908345,,,10,1.5749,1,"[""1"",""0"",""return""]","[0.8742000000476651,0.9680999999046094,1.5355999999046333]",1,8,39,4,1,10,,,,,,,,,,,,,,,,,,,,,,,,,,,,,,,,,,,,,,,,,,,,,,,,,,,,,,,,,,,,,,,,,,,,,,,,,,,,,,,,,,,,,,,,,,,,,,,,,,,,,,,,,,,,,,,,,,,,,,,,,,,,,,,,,,,,,,,,,,,,,,,,,,,,,,,,,,,,,,,,,
,697608015709,BCA,26/04/1999,001,2023-09-28_15h43.38.590,OS3_Mult_verification,2022.2.4,Win32,60.29908345,,,21,1.0176,1,"[""2"",""1"",""return""]","[0.667700000047688,0.8216000001430643,0.9710000000000036]",1,9,40,11,1,21,,,,,,,,,,,,,,,,,,,,,,,,,,,,,,,,,,,,,,,,,,,,,,,,,,,,,,,,,,,,,,,,,,,,,,,,,,,,,,,,,,,,,,,,,,,,,,,,,,,,,,,,,,,,,,,,,,,,,,,,,,,,,,,,,,,,,,,,,,,,,,,,,,,,,,,,,,,,,,,,,
,697608015709,BCA,26/04/1999,001,2023-09-28_15h43.38.590,OS3_Mult_verification,2022.2.4,Win32,60.29908345,,,64,2.4693,1,"[""6"",""4"",""return""]","[1.5686999998092688,1.6990000000000123,2.4245999999046433]",1,10,41,28,1,64,,,,,,,,,,,,,,,,,,,,,,,,,,,,,,,,,,,,,,,,,,,,,,,,,,,,,,,,,,,,,,,,,,,,,,,,,,,,,,,,,,,,,,,,,,,,,,,,,,,,,,,,,,,,,,,,,,,,,,,,,,,,,,,,,,,,,,,,,,,,,,,,,,,,,,,,,,,,,,,,,
,697608015709,BCA,26/04/1999,001,2023-09-28_15h43.38.590,OS3_Mult_verification,2022.2.4,Win32,60.29908345,,,36,1.9523,1,"[""3"",""6"",""return""]","[1.2867999999523079,1.401799999952317,1.902200000047685]",1,11,42,19,1,36,,,,,,,,,,,,,,,,,,,,,,,,,,,,,,,,,,,,,,,,,,,,,,,,,,,,,,,,,,,,,,,,,,,,,,,,,,,,,,,,,,,,,,,,,,,,,,,,,,,,,,,,,,,,,,,,,,,,,,,,,,,,,,,,,,,,,,,,,,,,,,,,,,,,,,,,,,,,,,,,,
,697608015709,BCA,26/04/1999,001,2023-09-28_15h43.38.590,OS3_Mult_verification,2022.2.4,Win32,60.29908345,,,30,1.7014,1,"[""3"",""0"",""return""]","[1.0226999998092765,1.1651999998092606,1.660099999904645]",1,12,43,16,1,30,,,,,,,,,,,,,,,,,,,,,,,,,,,,,,,,,,,,,,,,,,,,,,,,,,,,,,,,,,,,,,,,,,,,,,,,,,,,,,,,,,,,,,,,,,,,,,,,,,,,,,,,,,,,,,,,,,,,,,,,,,,,,,,,,,,,,,,,,,,,,,,,,,,,,,,,,,,,,,,,,
,697608015709,BCA,26/04/1999,001,2023-09-28_15h43.38.590,OS3_Mult_verification,2022.2.4,Win32,60.29908345,,,18,1.5413,1,"[""1"",""8"",""return""]","[1.0084000000953495,1.0897999999523051,1.4952000000476744]",1,13,44,9,1,18,,,,,,,,,,,,,,,,,,,,,,,,,,,,,,,,,,,,,,,,,,,,,,,,,,,,,,,,,,,,,,,,,,,,,,,,,,,,,,,,,,,,,,,,,,,,,,,,,,,,,,,,,,,,,,,,,,,,,,,,,,,,,,,,,,,,,,,,,,,,,,,,,,,,,,,,,,,,,,,,,
,697608015709,BCA,26/04/1999,001,2023-09-28_15h43.38.590,OS3_Mult_verification,2022.2.4,Win32,60.29908345,,,27,1.8522,1,"[""2"",""7"",""return""]","[1.1681999998092465,1.3098999998569525,1.8020999999046126]",1,14,45,14,1,27,,,,,,,,,,,,,,,,,,,,,,,,,,,,,,,,,,,,,,,,,,,,,,,,,,,,,,,,,,,,,,,,,,,,,,,,,,,,,,,,,,,,,,,,,,,,,,,,,,,,,,,,,,,,,,,,,,,,,,,,,,,,,,,,,,,,,,,,,,,,,,,,,,,,,,,,,,,,,,,,,
,697608015709,BCA,26/04/1999,001,2023-09-28_15h43.38.590,OS3_Mult_verification,2022.2.4,Win32,60.29908345,,,15,1.618,1,"[""1"",""5"",""return""]","[0.9041000001430746,1.018200000047699,1.5686000001430784]",1,15,46,7,1,15,,,,,,,,,,,,,,,,,,,,,,,,,,,,,,,,,,,,,,,,,,,,,,,,,,,,,,,,,,,,,,,,,,,,,,,,,,,,,,,,,,,,,,,,,,,,,,,,,,,,,,,,,,,,,,,,,,,,,,,,,,,,,,,,,,,,,,,,,,,,,,,,,,,,,,,,,,,,,,,,,
,697608015709,BCA,26/04/1999,001,2023-09-28_15h43.38.590,OS3_Mult_verification,2022.2.4,Win32,60.29908345,,,4,1.3081,1,"[""4"",""return""]","[1.0737000000476655,1.2686000001430386]",1,16,47,0,1,4,,,,,,,,,,,,,,,,,,,,,,,,,,,,,,,,,,,,,,,,,,,,,,,,,,,,,,,,,,,,,,,,,,,,,,,,,,,,,,,,,,,,,,,,,,,,,,,,,,,,,,,,,,,,,,,,,,,,,,,,,,,,,,,,,,,,,,,,,,,,,,,,,,,,,,,,,,,,,,,,,
,697608015709,BCA,26/04/1999,001,2023-09-28_15h43.38.590,OS3_Mult_verification,2022.2.4,Win32,60.29908345,,,42,1.3616,1,"[""4"",""2"",""return""]","[0.841399999856975,1.1365999999046323,1.3186999998092688]",1,17,48,21,1,42,,,,,,,,,,,,,,,,,,,,,,,,,,,,,,,,,,,,,,,,,,,,,,,,,,,,,,,,,,,,,,,,,,,,,,,,,,,,,,,,,,,,,,,,,,,,,,,,,,,,,,,,,,,,,,,,,,,,,,,,,,,,,,,,,,,,,,,,,,,,,,,,,,,,,,,,,,,,,,,,,
,697608015709,BCA,26/04/1999,001,2023-09-28_15h43.38.590,OS3_Mult_verification,2022.2.4,Win32,60.29908345,,,48,2.3356,1,"[""4"",""8"",""return""]","[1.4197999999523176,1.8057999999523133,2.2862999999523197]",1,18,49,23,1,48,,,,,,,,,,,,,,,,,,,,,,,,,,,,,,,,,,,,,,,,,,,,,,,,,,,,,,,,,,,,,,,,,,,,,,,,,,,,,,,,,,,,,,,,,,,,,,,,,,,,,,,,,,,,,,,,,,,,,,,,,,,,,,,,,,,,,,,,,,,,,,,,,,,,,,,,,,,,,,,,,
,697608015709,BCA,26/04/1999,001,2023-09-28_15h43.38.590,OS3_Mult_verification,2022.2.4,Win32,60.29908345,,,32,2.5858,1,"[""3"",""2"",""return""]","[2.1943000001907365,2.369800000190736,2.539700000047702]",1,19,50,17,1,32,,,,,,,,,,,,,,,,,,,,,,,,,,,,,,,,,,,,,,,,,,,,,,,,,,,,,,,,,,,,,,,,,,,,,,,,,,,,,,,,,,,,,,,,,,,,,,,,,,,,,,,,,,,,,,,,,,,,,,,,,,,,,,,,,,,,,,,,,,,,,,,,,,,,,,,,,,,,,,,,,
,697608015709,BCA,26/04/1999,001,2023-09-28_15h43.38.590,OS3_Mult_verification,2022.2.4,Win32,60.29908345,,,20,1.4345,1,"[""2"",""0"",""return""]","[1.070999999999998,1.1515999999046187,1.3917000000476776]",1,20,51,10,1,20,,,,,,,,,,,,,,,,,,,,,,,,,,,,,,,,,,,,,,,,,,,,,,,,,,,,,,,,,,,,,,,,,,,,,,,,,,,,,,,,,,,,,,,,,,,,,,,,,,,,,,,,,,,,,,,,,,,,,,,,,,,,,,,,,,,,,,,,,,,,,,,,,,,,,,,,,,,,,,,,,
,697608015709,BCA,26/04/1999,001,2023-09-28_15h43.38.590,OS3_Mult_verification,2022.2.4,Win32,60.29908345,,,28,1.6687,1,"[""2"",""8"",""return""]","[1.1362000000476655,1.2216000001430416,1.626499999999993]",1,21,52,15,1,28,,,,,,,,,,,,,,,,,,,,,,,,,,,,,,,,,,,,,,,,,,,,,,,,,,,,,,,,,,,,,,,,,,,,,,,,,,,,,,,,,,,,,,,,,,,,,,,,,,,,,,,,,,,,,,,,,,,,,,,,,,,,,,,,,,,,,,,,,,,,,,,,,,,,,,,,,,,,,,,,,
,697608015709,BCA,26/04/1999,001,2023-09-28_15h43.38.590,OS3_Mult_verification,2022.2.4,Win32,60.29908345,,,9,2.8028,1,"[""8"",""backspace"",""9"",""return""]","[1.0572999999523063,1.9857999999522917,2.086099999904633,2.753400000095354]",1,22,53,3,1,9,,,,,,,,,,,,,,,,,,,,,,,,,,,,,,,,,,,,,,,,,,,,,,,,,,,,,,,,,,,,,,,,,,,,,,,,,,,,,,,,,,,,,,,,,,,,,,,,,,,,,,,,,,,,,,,,,,,,,,,,,,,,,,,,,,,,,,,,,,,,,,,,,,,,,,,,,,,,,,,,,
,697608015709,BCA,26/04/1999,001,2023-09-28_15h43.38.590,OS3_Mult_verification,2022.2.4,Win32,60.29908345,,,72,1.6684,1,"[""7"",""2"",""return""]","[1.0418999998569234,1.336999999999989,1.6239999999999952]",1,23,54,29,1,72,,,,,,,,,,,,,,,,,,,,,,,,,,,,,,,,,,,,,,,,,,,,,,,,,,,,,,,,,,,,,,,,,,,,,,,,,,,,,,,,,,,,,,,,,,,,,,,,,,,,,,,,,,,,,,,,,,,,,,,,,,,,,,,,,,,,,,,,,,,,,,,,,,,,,,,,,,,,,,,,,
,697608015709,BCA,26/04/1999,001,2023-09-28_15h43.38.590,OS3_Mult_verification,2022.2.4,Win32,60.29908345,,,56,1.7351,1,"[""5"",""6"",""return""]","[1.1514999999999986,1.2852000000476664,1.6943000001907365]",1,24,55,26,1,56,,,,,,,,,,,,,,,,,,,,,,,,,,,,,,,,,,,,,,,,,,,,,,,,,,,,,,,,,,,,,,,,,,,,,,,,,,,,,,,,,,,,,,,,,,,,,,,,,,,,,,,,,,,,,,,,,,,,,,,,,,,,,,,,,,,,,,,,,,,,,,,,,,,,,,,,,,,,,,,,,
,697608015709,BCA,26/04/1999,001,2023-09-28_15h43.38.590,OS3_Mult_verification,2022.2.4,Win32,60.29908345,,,40,1.9854,1,"[""4"",""0"",""return""]","[1.5095999999046512,1.6099000000953652,1.941799999952309]",1,25,56,20,1,40,,,,,,,,,,,,,,,,,,,,,,,,,,,,,,,,,,,,,,,,,,,,,,,,,,,,,,,,,,,,,,,,,,,,,,,,,,,,,,,,,,,,,,,,,,,,,,,,,,,,,,,,,,,,,,,,,,,,,,,,,,,,,,,,,,,,,,,,,,,,,,,,,,,,,,,,,,,,,,,,,
,697608015709,BCA,26/04/1999,001,2023-09-28_15h43.38.590,OS3_Mult_verification,2022.2.4,Win32,60.29908345,,,63,2.0686,1,"[""6"",""3"",""return""]","[1.4404000000953658,1.6355000000000075,2.019299999952324]",1,26,57,27,1,63,,,,,,,,,,,,,,,,,,,,,,,,,,,,,,,,,,,,,,,,,,,,,,,,,,,,,,,,,,,,,,,,,,,,,,,,,,,,,,,,,,,,,,,,,,,,,,,,,,,,,,,,,,,,,,,,,,,,,,,,,,,,,,,,,,,,,,,,,,,,,,,,,,,,,,,,,,,,,,,,,
,697608015709,BCA,26/04/1999,001,2023-09-28_15h43.38.590,OS3_Mult_verification,2022.2.4,Win32,60.29908345,,,12,1.1347,1,"[""1"",""2"",""return""]","[0.6843000001907455,0.9348000001907337,1.0848000001907394]",1,27,58,5,1,12,,,,,,,,,,,,,,,,,,,,,,,,,,,,,,,,,,,,,,,,,,,,,,,,,,,,,,,,,,,,,,,,,,,,,,,,,,,,,,,,,,,,,,,,,,,,,,,,,,,,,,,,,,,,,,,,,,,,,,,,,,,,,,,,,,,,,,,,,,,,,,,,,,,,,,,,,,,,,,,,,
,697608015709,BCA,26/04/1999,001,2023-09-28_15h43.38.590,OS3_Mult_verification,2022.2.4,Win32,60.29908345,,,14,1.3344,1,"[""1"",""4"",""return""]","[0.6189999999999998,1.086500000000001,1.286699999809258]",1,28,59,6,1,14,,,,,,,,,,,,,,,,,,,,,,,,,,,,,,,,,,,,,,,,,,,,,,,,,,,,,,,,,,,,,,,,,,,,,,,,,,,,,,,,,,,,,,,,,,,,,,,,,,,,,,,,,,,,,,,,,,,,,,,,,,,,,,,,,,,,,,,,,,,,,,,,,,,,,,,,,,,,,,,,,
,697608015709,BCA,26/04/1999,001,2023-09-28_15h43.38.590,OS3_Mult_verification,2022.2.4,Win32,60.29908345,,,16,1.468,1,"[""1"",""6"",""return""]","[0.9939000000953797,1.0514000000953558,1.4255999999046196]",1,29,60,8,1,16,,,,,,,,,,,,,,,,,,,,,,,,,,,,,,,,,,,,,,,,,,,,,,,,,,,,,,,,,,,,,,,,,,,,,,,,,,,,,,,,,,,,,,,,,,,,,,,,,,,,,,,,,,,,,,,,,,,,,,,,,,,,,,,,,,,,,,,,,,,,,,,,,,,,,,,,,,,,,,,,,
,697608015709,BCA,26/04/1999,001,2023-09-28_15h43.38.590,OS3_Mult_verification,2022.2.4,Win32,60.29908345,,,35,2.4361,1,"[""3"",""5"",""return""]","[1.7400999999046292,1.808299999952311,2.386299999952314]",1,30,61,18,1,35,,,,,,,,,,,,,,,,,,,,,,,,,,,,,,,,,,,,,,,,,,,,,,,,,,,,,,,,,,,,,,,,,,,,,,,,,,,,,,,,,,,,,,,,,,,,,,,,,,,,,,,,,,,,,,,,,,,,,,,,,,,,,,,,,,,,,,,,,,,,,,,,,,,,,,,,,,,,,,,,,
,697608015709,BCA,26/04/1999,001,2023-09-28_15h43.38.590,OS3_Mult_verification,2022.2.4,Win32,60.29908345,,,,,,,,,,,,,,space,2.4444,,,,,,,,,,,,,,,,,,,,,,,,,,,,,,,,,,,,,,,,,,,,,,,,,,,,,,,,,,,,,,,,,,,,,,,,,,,,,,,,,,,,,,,,,,,,,,,,,,,,,,,,,,,,,,,,,,,,,,,,,,,,,,,,,,,,,,,,,,,,,,,,,,,,,,,,,,,,,,,
,697608015709,BCA,26/04/1999,001,2023-09-28_15h43.38.590,OS3_Mult_verification,2022.2.4,Win32,60.29908345,,,,,,,,,,,,,,,,,,,,,,,,,,,,,,,,,,,,,,,,,,,,,,,,,,,,,,,,,,,,,,,,,,,,,,,,,,,,,,,,,,,,,,,,,,,,,,,,,,,,,,,,,,,,,,,,,,,,,,,,,,,,,,,,,,,,,,,,,,,,,,,,,,,,,,,,,,,,,,,,,,,,,,,,,,,,,,
,697608015709,BCA,26/04/1999,001,2023-09-28_15h43.38.590,OS3_Mult_verification,2022.2.4,Win32,60.29908345,,,,,,,,,,,,,,,,space,4.1463,,,,,,,,,,,,,,,,,,,,,,,,,,,,,,,,,,,,,,,,,,,,,,,,,,,,,,,,,,,,,,,,,,,,,,,,,,,,,,,,,,,,,,,,,,,,,,,,,,,,,,,,,,,,,,,,,,,,,,,,,,,,,,,,,,,,,,,,,,,,,,,,,,,,,,,,,,,,,
,697608015709,BCA,26/04/1999,001,2023-09-28_15h43.38.590,OS3_Mult_verification,2022.2.4,Win32,60.29908345,,,,,,,,,,,,,,,,,,22,1.7536,1,"[""2"",""2"",""return""]","[1.1438999998569557,1.335000000000008,1.4575000000000102]",0,0,0,2,1,2 × 11 =,22,,,,,,,,,,,,,,,,,,,,,,,,,,,,,,,,,,,,,,,,,,,,,,,,,,,,,,,,,,,,,,,,,,,,,,,,,,,,,,,,,,,,,,,,,,,,,,,,,,,,,,,,,,,,,,,,,,,,,,,,,,,,,,,,,,,,,,,,,,,,,,,,,
,697608015709,BCA,26/04/1999,001,2023-09-28_15h43.38.590,OS3_Mult_verification,2022.2.4,Win32,60.29908345,,,,,,,,,,,,,,,,,,7,1.9441,1,"[""7"",""return""]","[1.5354000000953931,1.652200000047685]",0,1,1,0,1,1 × 7 =,7,,,,,,,,,,,,,,,,,,,,,,,,,,,,,,,,,,,,,,,,,,,,,,,,,,,,,,,,,,,,,,,,,,,,,,,,,,,,,,,,,,,,,,,,,,,,,,,,,,,,,,,,,,,,,,,,,,,,,,,,,,,,,,,,,,,,,,,,,,,,,,,,,
,697608015709,BCA,26/04/1999,001,2023-09-28_15h43.38.590,OS3_Mult_verification,2022.2.4,Win32,60.29908345,,,,,,,,,,,,,,,,,,20,2.2357,1,"[""2"",""0"",""return""]","[1.001499999999993,1.3543999998569518,1.940299999952316]",0,2,2,1,1,2 × 10 =,20,,,,,,,,,,,,,,,,,,,,,,,,,,,,,,,,,,,,,,,,,,,,,,,,,,,,,,,,,,,,,,,,,,,,,,,,,,,,,,,,,,,,,,,,,,,,,,,,,,,,,,,,,,,,,,,,,,,,,,,,,,,,,,,,,,,,,,,,,,,,,,,,,
,697608015709,BCA,26/04/1999,001,2023-09-28_15h43.38.590,OS3_Mult_verification,2022.2.4,Win32,60.29908345,,,,,,,,,,,,,,,,,,,,,,,,,,,,,,,,,,,,,,,,,,,,,,,,,,,,,,,,,,,,,,,,,,,,,,,,,,,,,,,,,,,,,,,,,,,,,,,,,,,,,,,,,,,,,,,,,,,,,,,,,,,,,,,,,,,,,,,,,,,,,,,,,,,,,,,,,,,,,,,,,,,,,,,,,,,,,,
,697608015709,BCA,26/04/1999,001,2023-09-28_15h43.38.590,OS3_Mult_verification,2022.2.4,Win32,60.29908345,,,,,,,,,,,,,,,,,,,,,,,,,,,,,,,,,,,,,,,,,,,,,,,,,,,,,,,,,,,,,,,,,,,,,,,,,,,,,,,,,,,,,,,,,,,,,,,,,,,,,,,,,,,,,,,,,,,,,,,,,,,,,,,,,,,,,,,,,,,,,,,,,,,,,,,,,,,,,,,,,,,,,,,,,,,,,,
,697608015709,BCA,26/04/1999,001,2023-09-28_15h43.38.590,OS3_Mult_verification,2022.2.4,Win32,60.29908345,,,,,,,,,,,,,,,,,,6,1.7871,1,"[""6"",""return""]","[1.3587999999523106,1.4877999999523013]",,,,,,2 × 3 =,6,0,0,0,0,1,,,,,,,,,,,,,,,,,,,,,,,,,,,,,,,,,,,,,,,,,,,,,,,,,,,,,,,,,,,,,,,,,,,,,,,,,,,,,,,,,,,,,,,,,,,,,,,,,,,,,,,,,,,,,,,,,,,,,,,,,,,,,,,,,,,,,,,,,,,,
,697608015709,BCA,26/04/1999,001,2023-09-28_15h43.38.590,OS3_Mult_verification,2022.2.4,Win32,60.29908345,,,,,,,,,,,,,,,,,,40,2.0348,1,"[""4"",""0"",""return""]","[1.2849000000953765,1.356400000095391,1.7409000000953938]",,,,,,5 × 8 =,40,0,1,1,1,1,,,,,,,,,,,,,,,,,,,,,,,,,,,,,,,,,,,,,,,,,,,,,,,,,,,,,,,,,,,,,,,,,,,,,,,,,,,,,,,,,,,,,,,,,,,,,,,,,,,,,,,,,,,,,,,,,,,,,,,,,,,,,,,,,,,,,,,,,,,,
,697608015709,BCA,26/04/1999,001,2023-09-28_15h43.38.590,OS3_Mult_verification,2022.2.4,Win32,60.29908345,,,,,,,,,,,,,,,,,,12,1.4415,1,"[""1"",""2"",""return""]","[0.8397000000476851,1.051499999999976,1.1517000000476685]",,,,,,3 × 4 =,12,0,2,2,2,1,,,,,,,,,,,,,,,,,,,,,,,,,,,,,,,,,,,,,,,,,,,,,,,,,,,,,,,,,,,,,,,,,,,,,,,,,,,,,,,,,,,,,,,,,,,,,,,,,,,,,,,,,,,,,,,,,,,,,,,,,,,,,,,,,,,,,,,,,,,,
,697608015709,BCA,26/04/1999,001,2023-09-28_15h43.38.590,OS3_Mult_verification,2022.2.4,Win32,60.29908345,,,,,,,,,,,,,,,,,,15,1.7444,1,"[""1"",""5"",""return""]","[0.8762000000476746,1.2517000000476628,1.4354000000953704]",,,,,,5 × 3 =,15,0,3,3,3,1,,,,,,,,,,,,,,,,,,,,,,,,,,,,,,,,,,,,,,,,,,,,,,,,,,,,,,,,,,,,,,,,,,,,,,,,,,,,,,,,,,,,,,,,,,,,,,,,,,,,,,,,,,,,,,,,,,,,,,,,,,,,,,,,,,,,,,,,,,,,
,697608015709,BCA,26/04/1999,001,2023-09-28_15h43.38.590,OS3_Mult_verification,2022.2.4,Win32,60.29908345,,,,,,,,,,,,,,,,,,8,1.7012,1,"[""8"",""return""]","[1.2397000000476908,1.3852000000476892]",,,,,,2 × 4 =,8,0,4,4,4,1,,,,,,,,,,,,,,,,,,,,,,,,,,,,,,,,,,,,,,,,,,,,,,,,,,,,,,,,,,,,,,,,,,,,,,,,,,,,,,,,,,,,,,,,,,,,,,,,,,,,,,,,,,,,,,,,,,,,,,,,,,,,,,,,,,,,,,,,,,,,
,697608015709,BCA,26/04/1999,001,2023-09-28_15h43.38.590,OS3_Mult_verification,2022.2.4,Win32,60.29908345,,,,,,,,,,,,,,,,,,4,1.7848,1,"[""4"",""return""]","[1.3241000001430336,1.4686000001430557]",,,,,,2 × 2 =,4,0,5,5,5,1,,,,,,,,,,,,,,,,,,,,,,,,,,,,,,,,,,,,,,,,,,,,,,,,,,,,,,,,,,,,,,,,,,,,,,,,,,,,,,,,,,,,,,,,,,,,,,,,,,,,,,,,,,,,,,,,,,,,,,,,,,,,,,,,,,,,,,,,,,,,
,697608015709,BCA,26/04/1999,001,2023-09-28_15h43.38.590,OS3_Mult_verification,2022.2.4,Win32,60.29908345,,,,,,,,,,,,,,,,,,20,1.9583,1,"[""2"",""0"",""return""]","[1.1849000000953538,1.268299999952319,1.6686000001430443]",,,,,,4 × 5 =,20,0,6,6,6,1,,,,,,,,,,,,,,,,,,,,,,,,,,,,,,,,,,,,,,,,,,,,,,,,,,,,,,,,,,,,,,,,,,,,,,,,,,,,,,,,,,,,,,,,,,,,,,,,,,,,,,,,,,,,,,,,,,,,,,,,,,,,,,,,,,,,,,,,,,,,
,697608015709,BCA,26/04/1999,001,2023-09-28_15h43.38.590,OS3_Mult_verification,2022.2.4,Win32,60.29908345,,,,,,,,,,,,,,,,,,9,1.9118,1,"[""9"",""return""]","[1.471200000047645,1.609599999904617]",,,,,,3 × 3 =,9,0,7,7,7,1,,,,,,,,,,,,,,,,,,,,,,,,,,,,,,,,,,,,,,,,,,,,,,,,,,,,,,,,,,,,,,,,,,,,,,,,,,,,,,,,,,,,,,,,,,,,,,,,,,,,,,,,,,,,,,,,,,,,,,,,,,,,,,,,,,,,,,,,,,,,
,697608015709,BCA,26/04/1999,001,2023-09-28_15h43.38.590,OS3_Mult_verification,2022.2.4,Win32,60.29908345,,,,,,,,,,,,,,,,,,10,1.7013,1,"[""1"",""0"",""return""]","[1.1014999999999873,1.20150000000001,1.3896999998092952]",,,,,,5 × 2 =,10,0,8,8,8,1,,,,,,,,,,,,,,,,,,,,,,,,,,,,,,,,,,,,,,,,,,,,,,,,,,,,,,,,,,,,,,,,,,,,,,,,,,,,,,,,,,,,,,,,,,,,,,,,,,,,,,,,,,,,,,,,,,,,,,,,,,,,,,,,,,,,,,,,,,,,
,697608015709,BCA,26/04/1999,001,2023-09-28_15h43.38.590,OS3_Mult_verification,2022.2.4,Win32,60.29908345,,,,,,,,,,,,,,,,,,16,2.3022,1,"[""1"",""6"",""return""]","[1.2369000000953747,1.7053000001907321,1.9873000001907712]",,,,,,4 × 4 =,16,0,9,9,9,1,,,,,,,,,,,,,,,,,,,,,,,,,,,,,,,,,,,,,,,,,,,,,,,,,,,,,,,,,,,,,,,,,,,,,,,,,,,,,,,,,,,,,,,,,,,,,,,,,,,,,,,,,,,,,,,,,,,,,,,,,,,,,,,,,,,,,,,,,,,,
,697608015709,BCA,26/04/1999,001,2023-09-28_15h43.38.590,OS3_Mult_verification,2022.2.4,Win32,60.29908345,,,,,,,,,,,,,,,,,,24,2.3688,1,"[""2"",""4"",""return""]","[1.3225000000000477,1.9025000000000318,2.0529000000954056]",,,,,,8 × 3 =,24,0,10,10,10,1,,,,,,,,,,,,,,,,,,,,,,,,,,,,,,,,,,,,,,,,,,,,,,,,,,,,,,,,,,,,,,,,,,,,,,,,,,,,,,,,,,,,,,,,,,,,,,,,,,,,,,,,,,,,,,,,,,,,,,,,,,,,,,,,,,,,,,,,,,,,
,697608015709,BCA,26/04/1999,001,2023-09-28_15h43.38.590,OS3_Mult_verification,2022.2.4,Win32,60.29908345,,,,,,,,,,,,,,,,,,30,4.7882,1,"[""3"",""9"",""backspace"",""0"",""return""]","[1.1683999998570016,2.4197999999523176,3.5923999998569798,3.8281999998092715,4.476699999809284]",,,,,,6 × 5 =,30,0,11,11,11,1,,,,,,,,,,,,,,,,,,,,,,,,,,,,,,,,,,,,,,,,,,,,,,,,,,,,,,,,,,,,,,,,,,,,,,,,,,,,,,,,,,,,,,,,,,,,,,,,,,,,,,,,,,,,,,,,,,,,,,,,,,,,,,,,,,,,,,,,,,,,
,697608015709,BCA,26/04/1999,001,2023-09-28_15h43.38.590,OS3_Mult_verification,2022.2.4,Win32,60.29908345,,,,,,,,,,,,,,,,,,14,1.6435,1,"[""1"",""4"",""return""]","[0.9910000000000423,1.1942999999523636,1.335400000095376]",,,,,,7 × 2 =,14,0,12,12,12,1,,,,,,,,,,,,,,,,,,,,,,,,,,,,,,,,,,,,,,,,,,,,,,,,,,,,,,,,,,,,,,,,,,,,,,,,,,,,,,,,,,,,,,,,,,,,,,,,,,,,,,,,,,,,,,,,,,,,,,,,,,,,,,,,,,,,,,,,,,,,
,697608015709,BCA,26/04/1999,001,2023-09-28_15h43.38.590,OS3_Mult_verification,2022.2.4,Win32,60.29908345,,,,,,,,,,,,,,,,,,27,2.7529,1,"[""2"",""7"",""return""]","[1.9025000000000318,1.9692999999523408,2.462500000000034]",,,,,,3 × 9 =,27,0,13,13,13,1,,,,,,,,,,,,,,,,,,,,,,,,,,,,,,,,,,,,,,,,,,,,,,,,,,,,,,,,,,,,,,,,,,,,,,,,,,,,,,,,,,,,,,,,,,,,,,,,,,,,,,,,,,,,,,,,,,,,,,,,,,,,,,,,,,,,,,,,,,,,
,697608015709,BCA,26/04/1999,001,2023-09-28_15h43.38.590,OS3_Mult_verification,2022.2.4,Win32,60.29908345,,,,,,,,,,,,,,,,,,16,2.0438,1,"[""1"",""6"",""return""]","[1.1941000001430666,1.2652000000476846,1.7416000001430234]",,,,,,2 × 8 =,16,0,14,14,14,1,,,,,,,,,,,,,,,,,,,,,,,,,,,,,,,,,,,,,,,,,,,,,,,,,,,,,,,,,,,,,,,,,,,,,,,,,,,,,,,,,,,,,,,,,,,,,,,,,,,,,,,,,,,,,,,,,,,,,,,,,,,,,,,,,,,,,,,,,,,,
,697608015709,BCA,26/04/1999,001,2023-09-28_15h43.38.590,OS3_Mult_verification,2022.2.4,Win32,60.29908345,,,,,,,,,,,,,,,,,,24,2.6858,1,"[""2"",""4"",""return""]","[1.5085000000000264,1.9859000000953984,2.37659999990467]",,,,,,4 × 6 =,24,0,15,15,15,1,,,,,,,,,,,,,,,,,,,,,,,,,,,,,,,,,,,,,,,,,,,,,,,,,,,,,,,,,,,,,,,,,,,,,,,,,,,,,,,,,,,,,,,,,,,,,,,,,,,,,,,,,,,,,,,,,,,,,,,,,,,,,,,,,,,,,,,,,,,,
,697608015709,BCA,26/04/1999,001,2023-09-28_15h43.38.590,OS3_Mult_verification,2022.2.4,Win32,60.29908345,,,,,,,,,,,,,,,,,,21,1.7181,1,"[""2"",""1"",""return""]","[1.1580000000000155,1.285299999952315,1.40920000004769]",,,,,,7 × 3 =,21,0,16,16,16,1,,,,,,,,,,,,,,,,,,,,,,,,,,,,,,,,,,,,,,,,,,,,,,,,,,,,,,,,,,,,,,,,,,,,,,,,,,,,,,,,,,,,,,,,,,,,,,,,,,,,,,,,,,,,,,,,,,,,,,,,,,,,,,,,,,,,,,,,,,,,
,697608015709,BCA,26/04/1999,001,2023-09-28_15h43.38.590,OS3_Mult_verification,2022.2.4,Win32,60.29908345,,,,,,,,,,,,,,,,,,27,2.6436,1,"[""2"",""7"",""return""]","[1.242700000047705,1.8600000000000136,2.319600000143055]",,,,,,9 × 3 =,27,0,17,17,17,1,,,,,,,,,,,,,,,,,,,,,,,,,,,,,,,,,,,,,,,,,,,,,,,,,,,,,,,,,,,,,,,,,,,,,,,,,,,,,,,,,,,,,,,,,,,,,,,,,,,,,,,,,,,,,,,,,,,,,,,,,,,,,,,,,,,,,,,,,,,,
,697608015709,BCA,26/04/1999,001,2023-09-28_15h43.38.590,OS3_Mult_verification,2022.2.4,Win32,60.29908345,,,,,,,,,,,,,,,,,,28,2.9788,1,"[""2"",""8"",""return""]","[1.869299999952318,2.1862999999523254,2.6792999999523204]",,,,,,4 × 7 =,28,0,18,18,18,1,,,,,,,,,,,,,,,,,,,,,,,,,,,,,,,,,,,,,,,,,,,,,,,,,,,,,,,,,,,,,,,,,,,,,,,,,,,,,,,,,,,,,,,,,,,,,,,,,,,,,,,,,,,,,,,,,,,,,,,,,,,,,,,,,,,,,,,,,,,,
,697608015709,BCA,26/04/1999,001,2023-09-28_15h43.38.590,OS3_Mult_verification,2022.2.4,Win32,60.29908345,,,,,,,,,,,,,,,,,,18,1.9427,1,"[""1"",""8"",""return""]","[1.1403000001907344,1.2184000000954143,1.6432000000477274]",,,,,,2 × 9 =,18,0,19,19,19,1,,,,,,,,,,,,,,,,,,,,,,,,,,,,,,,,,,,,,,,,,,,,,,,,,,,,,,,,,,,,,,,,,,,,,,,,,,,,,,,,,,,,,,,,,,,,,,,,,,,,,,,,,,,,,,,,,,,,,,,,,,,,,,,,,,,,,,,,,,,,
,697608015709,BCA,26/04/1999,001,2023-09-28_15h43.38.590,OS3_Mult_verification,2022.2.4,Win32,60.29908345,,,,,,,,,,,,,,,,,,72,2.3851,1,"[""7"",""2"",""return""]","[1.5619000000953633,1.805499999999995,2.0694000000953565]",,,,,,9 × 8 =,72,0,20,20,20,1,,,,,,,,,,,,,,,,,,,,,,,,,,,,,,,,,,,,,,,,,,,,,,,,,,,,,,,,,,,,,,,,,,,,,,,,,,,,,,,,,,,,,,,,,,,,,,,,,,,,,,,,,,,,,,,,,,,,,,,,,,,,,,,,,,,,,,,,,,,,
,697608015709,BCA,26/04/1999,001,2023-09-28_15h43.38.590,OS3_Mult_verification,2022.2.4,Win32,60.29908345,,,,,,,,,,,,,,,,,,42,2.7528,1,"[""4"",""2"",""return""]","[1.9102000000476664,2.2027999999522763,2.453099999904623]",,,,,,7 × 6 =,42,0,21,21,21,1,,,,,,,,,,,,,,,,,,,,,,,,,,,,,,,,,,,,,,,,,,,,,,,,,,,,,,,,,,,,,,,,,,,,,,,,,,,,,,,,,,,,,,,,,,,,,,,,,,,,,,,,,,,,,,,,,,,,,,,,,,,,,,,,,,,,,,,,,,,,
,697608015709,BCA,26/04/1999,001,2023-09-28_15h43.38.590,OS3_Mult_verification,2022.2.4,Win32,60.29908345,,,,,,,,,,,,,,,,,,54,2.8425,1,"[""5"",""4"",""return""]","[1.988700000047686,2.1223999998569525,2.536299999952348]",,,,,,6 × 9 =,54,0,22,22,22,1,,,,,,,,,,,,,,,,,,,,,,,,,,,,,,,,,,,,,,,,,,,,,,,,,,,,,,,,,,,,,,,,,,,,,,,,,,,,,,,,,,,,,,,,,,,,,,,,,,,,,,,,,,,,,,,,,,,,,,,,,,,,,,,,,,,,,,,,,,,,
,697608015709,BCA,26/04/1999,001,2023-09-28_15h43.38.590,OS3_Mult_verification,2022.2.4,Win32,60.29908345,,,,,,,,,,,,,,,,,,45,4.307,1,"[""4"",""5"",""return""]","[3.55440000009537,3.737900000095351,4.011799999952302]",,,,,,9 × 5 =,45,0,23,23,23,1,,,,,,,,,,,,,,,,,,,,,,,,,,,,,,,,,,,,,,,,,,,,,,,,,,,,,,,,,,,,,,,,,,,,,,,,,,,,,,,,,,,,,,,,,,,,,,,,,,,,,,,,,,,,,,,,,,,,,,,,,,,,,,,,,,,,,,,,,,,,
,697608015709,BCA,26/04/1999,001,2023-09-28_15h43.38.590,OS3_Mult_verification,2022.2.4,Win32,60.29908345,,,,,,,,,,,,,,,,,,56,3.9196,1,"[""5"",""6"",""return""]","[2.4871999998092633,2.7098999998569298,3.6210999999046294]",,,,,,8 × 7 =,56,0,24,24,24,1,,,,,,,,,,,,,,,,,,,,,,,,,,,,,,,,,,,,,,,,,,,,,,,,,,,,,,,,,,,,,,,,,,,,,,,,,,,,,,,,,,,,,,,,,,,,,,,,,,,,,,,,,,,,,,,,,,,,,,,,,,,,,,,,,,,,,,,,,,,,
,697608015709,BCA,26/04/1999,001,2023-09-28_15h43.38.590,OS3_Mult_verification,2022.2.4,Win32,60.29908345,,,,,,,,,,,,,,,,,,36,2.4709,1,"[""3"",""6"",""return""]","[1.3685999999046317,2.024499999999989,2.1692999999523295]",,,,,,6 × 6 =,36,0,25,25,25,1,,,,,,,,,,,,,,,,,,,,,,,,,,,,,,,,,,,,,,,,,,,,,,,,,,,,,,,,,,,,,,,,,,,,,,,,,,,,,,,,,,,,,,,,,,,,,,,,,,,,,,,,,,,,,,,,,,,,,,,,,,,,,,,,,,,,,,,,,,,,
,697608015709,BCA,26/04/1999,001,2023-09-28_15h43.38.590,OS3_Mult_verification,2022.2.4,Win32,60.29908345,,,,,,,,,,,,,,,,,,35,2.5856,1,"[""3"",""5"",""return""]","[1.8432000000476592,2.102599999904612,2.2777000000476733]",,,,,,5 × 7 =,35,0,26,26,26,1,,,,,,,,,,,,,,,,,,,,,,,,,,,,,,,,,,,,,,,,,,,,,,,,,,,,,,,,,,,,,,,,,,,,,,,,,,,,,,,,,,,,,,,,,,,,,,,,,,,,,,,,,,,,,,,,,,,,,,,,,,,,,,,,,,,,,,,,,,,,
,697608015709,BCA,26/04/1999,001,2023-09-28_15h43.38.590,OS3_Mult_verification,2022.2.4,Win32,60.29908345,,,,,,,,,,,,,,,,,,36,3.0859,1,"[""3"",""6"",""return""]","[2.1027000000477187,2.6098000001907167,2.7752000000476755]",,,,,,4 × 9 =,36,0,27,27,27,1,,,,,,,,,,,,,,,,,,,,,,,,,,,,,,,,,,,,,,,,,,,,,,,,,,,,,,,,,,,,,,,,,,,,,,,,,,,,,,,,,,,,,,,,,,,,,,,,,,,,,,,,,,,,,,,,,,,,,,,,,,,,,,,,,,,,,,,,,,,,
,697608015709,BCA,26/04/1999,001,2023-09-28_15h43.38.590,OS3_Mult_verification,2022.2.4,Win32,60.29908345,,,,,,,,,,,,,,,,,,48,2.5446,1,"[""4"",""8"",""return""]","[1.6370000000000005,1.7690000000000055,2.2362000000476883]",,,,,,8 × 6 =,48,0,28,28,28,1,,,,,,,,,,,,,,,,,,,,,,,,,,,,,,,,,,,,,,,,,,,,,,,,,,,,,,,,,,,,,,,,,,,,,,,,,,,,,,,,,,,,,,,,,,,,,,,,,,,,,,,,,,,,,,,,,,,,,,,,,,,,,,,,,,,,,,,,,,,,
,697608015709,BCA,26/04/1999,001,2023-09-28_15h43.38.590,OS3_Mult_verification,2022.2.4,Win32,60.29908345,,,,,,,,,,,,,,,,,,63,2.7357,1,"[""6"",""3"",""return""]","[1.776700000047697,2.0860000000000127,2.4195000000000277]",,,,,,9 × 7 =,63,0,29,29,29,1,,,,,,,,,,,,,,,,,,,,,,,,,,,,,,,,,,,,,,,,,,,,,,,,,,,,,,,,,,,,,,,,,,,,,,,,,,,,,,,,,,,,,,,,,,,,,,,,,,,,,,,,,,,,,,,,,,,,,,,,,,,,,,,,,,,,,,,,,,,,
,697608015709,BCA,26/04/1999,001,2023-09-28_15h43.38.590,OS3_Mult_verification,2022.2.4,Win32,60.29908345,,,,,,,,,,,,,,,,,,12,1.5014,1,"[""1"",""2"",""return""]","[0.8177000000476937,1.0346000001430298,1.202100000143048]",,,,,,4 × 3 =,12,0,30,30,30,1,,,,,,,,,,,,,,,,,,,,,,,,,,,,,,,,,,,,,,,,,,,,,,,,,,,,,,,,,,,,,,,,,,,,,,,,,,,,,,,,,,,,,,,,,,,,,,,,,,,,,,,,,,,,,,,,,,,,,,,,,,,,,,,,,,,,,,,,,,,,
,697608015709,BCA,26/04/1999,001,2023-09-28_15h43.38.590,OS3_Mult_verification,2022.2.4,Win32,60.29908345,,,,,,,,,,,,,,,,,,25,2.1084,1,"[""2"",""5"",""return""]","[1.2517000000476628,1.635499999999979,1.8161000001430239]",,,,,,5 × 5 =,25,0,31,31,31,1,,,,,,,,,,,,,,,,,,,,,,,,,,,,,,,,,,,,,,,,,,,,,,,,,,,,,,,,,,,,,,,,,,,,,,,,,,,,,,,,,,,,,,,,,,,,,,,,,,,,,,,,,,,,,,,,,,,,,,,,,,,,,,,,,,,,,,,,,,,,
,697608015709,BCA,26/04/1999,001,2023-09-28_15h43.38.590,OS3_Mult_verification,2022.2.4,Win32,60.29908345,,,,,,,,,,,,,,,,,,6,3.0863,1,"[""6"",""return""]","[2.619799999952363,2.7867999999523363]",,,,,,3 × 2 =,6,0,32,32,32,1,,,,,,,,,,,,,,,,,,,,,,,,,,,,,,,,,,,,,,,,,,,,,,,,,,,,,,,,,,,,,,,,,,,,,,,,,,,,,,,,,,,,,,,,,,,,,,,,,,,,,,,,,,,,,,,,,,,,,,,,,,,,,,,,,,,,,,,,,,,,
,697608015709,BCA,26/04/1999,001,2023-09-28_15h43.38.590,OS3_Mult_verification,2022.2.4,Win32,60.29908345,,,,,,,,,,,,,,,,,,20,2.0043,1,"[""2"",""0"",""return""]","[0.9014999999999986,1.2852000000476664,1.7022000000476964]",,,,,,5 × 4 =,20,0,33,33,33,1,,,,,,,,,,,,,,,,,,,,,,,,,,,,,,,,,,,,,,,,,,,,,,,,,,,,,,,,,,,,,,,,,,,,,,,,,,,,,,,,,,,,,,,,,,,,,,,,,,,,,,,,,,,,,,,,,,,,,,,,,,,,,,,,,,,,,,,,,,,,
,697608015709,BCA,26/04/1999,001,2023-09-28_15h43.38.590,OS3_Mult_verification,2022.2.4,Win32,60.29908345,,,,,,,,,,,,,,,,,,8,1.9416,1,"[""8"",""return""]","[1.4019999999999868,1.6520999999046353]",,,,,,4 × 2 =,8,0,34,34,34,1,,,,,,,,,,,,,,,,,,,,,,,,,,,,,,,,,,,,,,,,,,,,,,,,,,,,,,,,,,,,,,,,,,,,,,,,,,,,,,,,,,,,,,,,,,,,,,,,,,,,,,,,,,,,,,,,,,,,,,,,,,,,,,,,,,,,,,,,,,,,
,697608015709,BCA,26/04/1999,001,2023-09-28_15h43.38.590,OS3_Mult_verification,2022.2.4,Win32,60.29908345,,,,,,,,,,,,,,,,,,12,1.9185,1,"[""1"",""2"",""return""]","[1.2850999999046167,1.4524000000953947,1.6185999999046317]",,,,,,2 × 6 =,12,0,35,35,35,1,,,,,,,,,,,,,,,,,,,,,,,,,,,,,,,,,,,,,,,,,,,,,,,,,,,,,,,,,,,,,,,,,,,,,,,,,,,,,,,,,,,,,,,,,,,,,,,,,,,,,,,,,,,,,,,,,,,,,,,,,,,,,,,,,,,,,,,,,,,,
,697608015709,BCA,26/04/1999,001,2023-09-28_15h43.38.590,OS3_Mult_verification,2022.2.4,Win32,60.29908345,,,,,,,,,,,,,,,,,,15,1.728,1,"[""1"",""5"",""return""]","[0.9012000000477087,1.318399999856922,1.4218999998569757]",,,,,,3 × 5 =,15,0,36,36,36,1,,,,,,,,,,,,,,,,,,,,,,,,,,,,,,,,,,,,,,,,,,,,,,,,,,,,,,,,,,,,,,,,,,,,,,,,,,,,,,,,,,,,,,,,,,,,,,,,,,,,,,,,,,,,,,,,,,,,,,,,,,,,,,,,,,,,,,,,,,,,
,697608015709,BCA,26/04/1999,001,2023-09-28_15h43.38.590,OS3_Mult_verification,2022.2.4,Win32,60.29908345,,,,,,,,,,,,,,,,,,18,2.0888,1,"[""1"",""8""]","[1.1514999999999986,1.502099999904658]",,,,,,6 × 3 =,18,0,37,37,37,1,,,,,,,,,,,,,,,,,,,,,,,,,,,,,,,,,,,,,,,,,,,,,,,,,,,,,,,,,,,,,,,,,,,,,,,,,,,,,,,,,,,,,,,,,,,,,,,,,,,,,,,,,,,,,,,,,,,,,,,,,,,,,,,,,,,,,,,,,,,,
,697608015709,BCA,26/04/1999,001,2023-09-28_15h43.38.590,OS3_Mult_verification,2022.2.4,Win32,60.29908345,,,,,,,,,,,,,,,,space,1.8211,,,,,,,,,,,,,,,,,,TRUE,3.3772,-0.012037037,-0.363888889,1,0,0,0,0,0,1,1,practice trial,,3,3,,,,,,,,,,,,,,,,,,,,,,,,,,,,,,,,,,,,,,,,,,,,,,,,,,,,,,,,,,,,,,,,,,,,,,,,,,,,,,,,,,,,,,,,,,,,,,,,,,,,,,,,,,,,,,,,,,,,,,,,,,,,
,697608015709,BCA,26/04/1999,001,2023-09-28_15h43.38.590,OS3_Mult_verification,2022.2.4,Win32,60.29908345,,,,,,,,,,,,,,,,,,,,,,,,,,,,,,,,,,,TRUE,2.5699,0.076851852,-0.348148148,1,0,0,0,1,1,0,1,practice trial,,3,3,,,,,,,,,,,,,,,,,,,,,,,,,,,,,,,,,,,,,,,,,,,,,,,,,,,,,,,,,,,,,,,,,,,,,,,,,,,,,,,,,,,,,,,,,,,,,,,,,,,,,,,,,,,,,,,,,,,,,,,,,,,,
,697608015709,BCA,26/04/1999,001,2023-09-28_15h43.38.590,OS3_Mult_verification,2022.2.4,Win32,60.29908345,,,,,,,,,,,,,,,,,,,,,,,,,,,,,,,,,,,TRUE,2.2856,0.119444444,-0.377777778,1,0,0,0,2,2,2,1,practice trial,,3,3,,,,,,,,,,,,,,,,,,,,,,,,,,,,,,,,,,,,,,,,,,,,,,,,,,,,,,,,,,,,,,,,,,,,,,,,,,,,,,,,,,,,,,,,,,,,,,,,,,,,,,,,,,,,,,,,,,,,,,,,,,,,
,697608015709,BCA,26/04/1999,001,2023-09-28_15h43.38.590,OS3_Mult_verification,2022.2.4,Win32,60.29908345,,,,,,,,,,,,,,,,,,,,,,,,,,,,,,,,,,,TRUE,1.2608,0.093518519,-0.355555556,1,0,0,,,,,,Trial #1,,2,2,0,0,0,0,1,2,,,,,,,,,,,,,,,,,,,,,,,,,,,,,,,,,,,,,,,,,,,,,,,,,,,,,,,,,,,,,,,,,,,,,,,,,,,,,,,,,,,,,,,,,,,,,,,,,,,,,,,,,,,,,,,,,,,,,,
,697608015709,BCA,26/04/1999,001,2023-09-28_15h43.38.590,OS3_Mult_verification,2022.2.4,Win32,60.29908345,,,,,,,,,,,,,,,,,,,,,,,,,,,,,,,,,,,TRUE,1.5183,0.053703704,-0.365740741,1,0,0,,,,,,Trial #1,,2,2,0,1,1,1,1,2,,,,,,,,,,,,,,,,,,,,,,,,,,,,,,,,,,,,,,,,,,,,,,,,,,,,,,,,,,,,,,,,,,,,,,,,,,,,,,,,,,,,,,,,,,,,,,,,,,,,,,,,,,,,,,,,,,,,,,
,697608015709,BCA,26/04/1999,001,2023-09-28_15h43.38.590,OS3_Mult_verification,2022.2.4,Win32,60.29908345,,,,,,,,,,,,,,,,,,,,,,,,,,,,,,,,,,,TRUE,1.4183,0.015740741,-0.317592593,1,0,0,,,,,,Trial #1,,2,2,0,2,2,2,1,2,,,,,,,,,,,,,,,,,,,,,,,,,,,,,,,,,,,,,,,,,,,,,,,,,,,,,,,,,,,,,,,,,,,,,,,,,,,,,,,,,,,,,,,,,,,,,,,,,,,,,,,,,,,,,,,,,,,,,,
,697608015709,BCA,26/04/1999,001,2023-09-28_15h43.38.590,OS3_Mult_verification,2022.2.4,Win32,60.29908345,,,,,,,,,,,,,,,,,,,,,,,,,,,,,,,,,,,TRUE,1.4884,0.027777778,-0.34537037,1,0,0,,,,,,Trial #2,,3,3,0,0,0,0,1,3,,,,,,,,,,,,,,,,,,,,,,,,,,,,,,,,,,,,,,,,,,,,,,,,,,,,,,,,,,,,,,,,,,,,,,,,,,,,,,,,,,,,,,,,,,,,,,,,,,,,,,,,,,,,,,,,,,,,,,
,697608015709,BCA,26/04/1999,001,2023-09-28_15h43.38.590,OS3_Mult_verification,2022.2.4,Win32,60.29908345,,,,,,,,,,,,,,,,,,,,,,,,,,,,,,,,,,,TRUE,1.7686,0.047222222,-0.357407407,1,0,0,,,,,,Trial #2,,3,3,0,1,1,1,1,3,,,,,,,,,,,,,,,,,,,,,,,,,,,,,,,,,,,,,,,,,,,,,,,,,,,,,,,,,,,,,,,,,,,,,,,,,,,,,,,,,,,,,,,,,,,,,,,,,,,,,,,,,,,,,,,,,,,,,,
,697608015709,BCA,26/04/1999,001,2023-09-28_15h43.38.590,OS3_Mult_verification,2022.2.4,Win32,60.29908345,,,,,,,,,,,,,,,,,,,,,,,,,,,,,,,,,,,TRUE,1.8186,0.061111111,-0.365740741,1,0,0,,,,,,Trial #2,,3,3,0,2,2,2,1,3,,,,,,,,,,,,,,,,,,,,,,,,,,,,,,,,,,,,,,,,,,,,,,,,,,,,,,,,,,,,,,,,,,,,,,,,,,,,,,,,,,,,,,,,,,,,,,,,,,,,,,,,,,,,,,,,,,,,,,
,697608015709,BCA,26/04/1999,001,2023-09-28_15h43.38.590,OS3_Mult_verification,2022.2.4,Win32,60.29908345,,,,,,,,,,,,,,,,,,,,,,,,,,,,,,,,,,,TRUE,2.0619,0.016666667,-0.351851852,1,0,0,,,,,,Trial #3,,3,3,0,0,0,0,1,4,,,,,,,,,,,,,,,,,,,,,,,,,,,,,,,,,,,,,,,,,,,,,,,,,,,,,,,,,,,,,,,,,,,,,,,,,,,,,,,,,,,,,,,,,,,,,,,,,,,,,,,,,,,,,,,,,,,,,,
,697608015709,BCA,26/04/1999,001,2023-09-28_15h43.38.590,OS3_Mult_verification,2022.2.4,Win32,60.29908345,,,,,,,,,,,,,,,,,,,,,,,,,,,,,,,,,,,TRUE,1.9524,0.07962963,-0.342592593,1,0,0,,,,,,Trial #3,,3,3,0,1,1,1,1,4,,,,,,,,,,,,,,,,,,,,,,,,,,,,,,,,,,,,,,,,,,,,,,,,,,,,,,,,,,,,,,,,,,,,,,,,,,,,,,,,,,,,,,,,,,,,,,,,,,,,,,,,,,,,,,,,,,,,,,
,697608015709,BCA,26/04/1999,001,2023-09-28_15h43.38.590,OS3_Mult_verification,2022.2.4,Win32,60.29908345,,,,,,,,,,,,,,,,,,,,,,,,,,,,,,,,,,,TRUE,1.8782,0.059259259,-0.342592593,1,0,0,,,,,,Trial #3,,3,3,0,2,2,2,1,4,,,,,,,,,,,,,,,,,,,,,,,,,,,,,,,,,,,,,,,,,,,,,,,,,,,,,,,,,,,,,,,,,,,,,,,,,,,,,,,,,,,,,,,,,,,,,,,,,,,,,,,,,,,,,,,,,,,,,,
,697608015709,BCA,26/04/1999,001,2023-09-28_15h43.38.590,OS3_Mult_verification,2022.2.4,Win32,60.29908345,,,,,,,,,,,,,,,,,,,,,,,,,,,,,,,,,,,TRUE,2.7029,0.034259259,-0.344444444,1,0,0,,,,,,Trial #4,,4,4,0,0,0,0,1,5,,,,,,,,,,,,,,,,,,,,,,,,,,,,,,,,,,,,,,,,,,,,,,,,,,,,,,,,,,,,,,,,,,,,,,,,,,,,,,,,,,,,,,,,,,,,,,,,,,,,,,,,,,,,,,,,,,,,,,
,697608015709,BCA,26/04/1999,001,2023-09-28_15h43.38.590,OS3_Mult_verification,2022.2.4,Win32,60.29908345,,,,,,,,,,,,,,,,,,,,,,,,,,,,,,,,,,,TRUE,2.5358,0.038888889,-0.350925926,1,0,0,,,,,,Trial #4,,4,4,0,1,1,1,1,5,,,,,,,,,,,,,,,,,,,,,,,,,,,,,,,,,,,,,,,,,,,,,,,,,,,,,,,,,,,,,,,,,,,,,,,,,,,,,,,,,,,,,,,,,,,,,,,,,,,,,,,,,,,,,,,,,,,,,,
,697608015709,BCA,26/04/1999,001,2023-09-28_15h43.38.590,OS3_Mult_verification,2022.2.4,Win32,60.29908345,,,,,,,,,,,,,,,,,,,,,,,,,,,,,,,,,,,TRUE,2.446,0.081481481,-0.313888889,1,0,0,,,,,,Trial #4,,4,4,0,2,2,2,1,5,,,,,,,,,,,,,,,,,,,,,,,,,,,,,,,,,,,,,,,,,,,,,,,,,,,,,,,,,,,,,,,,,,,,,,,,,,,,,,,,,,,,,,,,,,,,,,,,,,,,,,,,,,,,,,,,,,,,,,
,697608015709,BCA,26/04/1999,001,2023-09-28_15h43.38.590,OS3_Mult_verification,2022.2.4,Win32,60.29908345,,,,,,,,,,,,,,,,,,,,,,,,,,,,,,,,,,,TRUE,3.597,0.112962963,-0.326851852,1,0,0,,,,,,Trial #5,,4,4,0,0,0,0,1,6,,,,,,,,,,,,,,,,,,,,,,,,,,,,,,,,,,,,,,,,,,,,,,,,,,,,,,,,,,,,,,,,,,,,,,,,,,,,,,,,,,,,,,,,,,,,,,,,,,,,,,,,,,,,,,,,,,,,,,
,697608015709,BCA,26/04/1999,001,2023-09-28_15h43.38.590,OS3_Mult_verification,2022.2.4,Win32,60.29908345,,,,,,,,,,,,,,,,,,,,,,,,,,,,,,,,,,,TRUE,2.8437,0.116666667,-0.337962963,1,0,0,,,,,,Trial #5,,4,4,0,1,1,1,1,6,,,,,,,,,,,,,,,,,,,,,,,,,,,,,,,,,,,,,,,,,,,,,,,,,,,,,,,,,,,,,,,,,,,,,,,,,,,,,,,,,,,,,,,,,,,,,,,,,,,,,,,,,,,,,,,,,,,,,,
,697608015709,BCA,26/04/1999,001,2023-09-28_15h43.38.590,OS3_Mult_verification,2022.2.4,Win32,60.29908345,,,,,,,,,,,,,,,,,,,,,,,,,,,,,,,,,,,TRUE,3.2106,0.125,-0.350925926,1,0,0,,,,,,Trial #5,,4,4,0,2,2,2,1,6,,,,,,,,,,,,,,,,,,,,,,,,,,,,,,,,,,,,,,,,,,,,,,,,,,,,,,,,,,,,,,,,,,,,,,,,,,,,,,,,,,,,,,,,,,,,,,,,,,,,,,,,,,,,,,,,,,,,,,
,697608015709,BCA,26/04/1999,001,2023-09-28_15h43.38.590,OS3_Mult_verification,2022.2.4,Win32,60.29908345,,,,,,,,,,,,,,,,,,,,,,,,,,,,,,,,,,,TRUE,3.2941,0.07962963,-0.344444444,1,0,0,,,,,,Trial #6,,4,4,0,0,0,0,1,7,,,,,,,,,,,,,,,,,,,,,,,,,,,,,,,,,,,,,,,,,,,,,,,,,,,,,,,,,,,,,,,,,,,,,,,,,,,,,,,,,,,,,,,,,,,,,,,,,,,,,,,,,,,,,,,,,,,,,,
,697608015709,BCA,26/04/1999,001,2023-09-28_15h43.38.590,OS3_Mult_verification,2022.2.4,Win32,60.29908345,,,,,,,,,,,,,,,,,,,,,,,,,,,,,,,,,,,TRUE,3.654,0.063888889,-0.352777778,1,0,0,,,,,,Trial #6,,4,4,0,1,1,1,1,7,,,,,,,,,,,,,,,,,,,,,,,,,,,,,,,,,,,,,,,,,,,,,,,,,,,,,,,,,,,,,,,,,,,,,,,,,,,,,,,,,,,,,,,,,,,,,,,,,,,,,,,,,,,,,,,,,,,,,,
,697608015709,BCA,26/04/1999,001,2023-09-28_15h43.38.590,OS3_Mult_verification,2022.2.4,Win32,60.29908345,,,,,,,,,,,,,,,,,,,,,,,,,,,,,,,,,,,TRUE,3.9713,0.026851852,-0.335185185,1,0,0,,,,,,Trial #6,,4,4,0,2,2,2,1,7,,,,,,,,,,,,,,,,,,,,,,,,,,,,,,,,,,,,,,,,,,,,,,,,,,,,,,,,,,,,,,,,,,,,,,,,,,,,,,,,,,,,,,,,,,,,,,,,,,,,,,,,,,,,,,,,,,,,,,
,697608015709,BCA,26/04/1999,001,2023-09-28_15h43.38.590,OS3_Mult_verification,2022.2.4,Win32,60.29908345,,,,,,,,,,,,,,,,,,,,,,,,,,,,,,,,,,,FALSE,3.8113,0.075,-0.325,1,0,0,,,,,,Trial #7,,4,4,0,0,0,0,1,8,,,,,,,,,,,,,,,,,,,,,,,,,,,,,,,,,,,,,,,,,,,,,,,,,,,,,,,,,,,,,,,,,,,,,,,,,,,,,,,,,,,,,,,,,,,,,,,,,,,,,,,,,,,,,,,,,,,,,,
,697608015709,BCA,26/04/1999,001,2023-09-28_15h43.38.590,OS3_Mult_verification,2022.2.4,Win32,60.29908345,,,,,,,,,,,,,,,,,,,,,,,,,,,,,,,,,,,TRUE,4.655,0.061111111,-0.350925926,1,0,0,,,,,,Trial #7,,4,4,0,1,1,1,1,8,,,,,,,,,,,,,,,,,,,,,,,,,,,,,,,,,,,,,,,,,,,,,,,,,,,,,,,,,,,,,,,,,,,,,,,,,,,,,,,,,,,,,,,,,,,,,,,,,,,,,,,,,,,,,,,,,,,,,,
,697608015709,BCA,26/04/1999,001,2023-09-28_15h43.38.590,OS3_Mult_verification,2022.2.4,Win32,60.29908345,,,,,,,,,,,,,,,,,,,,,,,,,,,,,,,,,,,FALSE,4.1952,0.097222222,-0.325925926,1,0,0,,,,,,Trial #7,,4,4,0,2,2,2,1,8,,,,,,,,,,,,,,,,,,,,,,,,,,,,,,,,,,,,,,,,,,,,,,,,,,,,,,,,,,,,,,,,,,,,,,,,,,,,,,,,,,,,,,,,,,,,,,,,,,,,,,,,,,,,,,,,,,,,,,
,697608015709,BCA,26/04/1999,001,2023-09-28_15h43.38.590,OS3_Mult_verification,2022.2.4,Win32,60.29908345,,,,,,,,,,,,,,,,,,,,,,,,,,,,,,,,,,,,,,,,,,,,,,,,,,,,,,,,,0,0,0,0,1,,,,,,,,,,,,,,,,,,,,,,,,,,,,,,,,,,,,,,,,,,,,,,,,,,,,,,,,,,,,,,,,,,,,,,,,,,,,,,,,,,,,,,,,,,,,,,,,,,,,,,,,,,,,,,,,,
,697608015709,BCA,26/04/1999,001,2023-09-28_15h43.38.590,OS3_Mult_verification,2022.2.4,Win32,60.29908345,,,,,,,,,,,,,,,,,,,,,,,,,,,,,,,,,,,,,,,,,,,,,,,,,,,,,,,,,,,,,,0,0,0,0,1,0,1,0,,,,,,,,,,,,,,,,,,,,,,,,,,,,,,,,,,,,,,,,,,,,,,,,,,,,,,,,,,,,,,,,,,,,,,,,,,,,,,,,,,,,,,,,,,,,,,,,,,,,,,,,,
,697608015709,BCA,26/04/1999,001,2023-09-28_15h43.38.590,OS3_Mult_verification,2022.2.4,Win32,60.29908345,,,,,,,,,,,,,,,,space,2.1856,,,,,,,,,,,,,,,,,,,,,,,,,,,,,,,,,,,,,,,,,,,,,,,,,,,,,space,8.1077,321,2.9854,1,"[""3"",""2"",""1"",""return""]","[0.6772999999523108,0.9521999998091815,1.2440999999046198,2.9517999999523]",0,0,0,1,1,3,321,Audio/321.mp3,practice,,,,,,,,,,,,,,,,,,,,,,,,,,,,,,,,,,,,,,,,,,,,,,,,,,,,,,,,,,,,,,,,,,,,,,,,,,,,,,,,,,,,,,,,,
,697608015709,BCA,26/04/1999,001,2023-09-28_15h43.38.590,OS3_Mult_verification,2022.2.4,Win32,60.29908345,,,,,,,,,,,,,,,,,,,,,,,,,,,,,,,,,,,,,,,,,,,,,,,,,,,,,,,,,,,,,,,,,,,,,,,,123,1.4346,1,"[""1"",""2"",""3"",""return""]","[0.7009000000954302,0.957099999904699,1.1680000000000064,1.4015999999046471]",0,1,1,0,1,3,123,Audio/123.mp3,practice,,,,,,,,,,,,,,,,,,,,,,,,,,,,,,,,,,,,,,,,,,,,,,,,,,,,,,,,,,,,,,,,,,,,,,,,,,,,,,,,,,,,,,,,,
,697608015709,BCA,26/04/1999,001,2023-09-28_15h43.38.590,OS3_Mult_verification,2022.2.4,Win32,60.29908345,,,,,,,,,,,,,,,,,,,,,,,,,,,,,,,,,,,,,,,,,,,,,,,,,,,,,,,,,,,,,,,,,,,,,,,,911,1.7854,1,"[""9"",""1"",""1"",""return""]","[0.717899999856968,0.9895000000000209,1.1903999998569361,1.7527999999523445]",0,2,2,2,1,3,911,Audio/911.mp3,practice,,,,,,,,,,,,,,,,,,,,,,,,,,,,,,,,,,,,,,,,,,,,,,,,,,,,,,,,,,,,,,,,,,,,,,,,,,,,,,,,,,,,,,,,,
,697608015709,BCA,26/04/1999,001,2023-09-28_15h43.38.590,OS3_Mult_verification,2022.2.4,Win32,60.29908345,,,,,,,,,,,,,,,,,,,,,,,,,,,,,,,,,,,,,,,,,,,,,,,,,,,,,,,,,,,,,,,,,,,,,,,,97,1.7323,1,"[""9"",""7"",""return""]","[0.8744000000953065,1.0504999999999427,1.701600000143003]",,,,,,2,97,Audio/97.mp3,WAIS,0,0,0,0,1,,,,,,,,,,,,,,,,,,,,,,,,,,,,,,,,,,,,,,,,,,,,,,,,,,,,,,,,,,,,,,,,,,,,,,,,,,,,,,,,,,,,
,697608015709,BCA,26/04/1999,001,2023-09-28_15h43.38.590,OS3_Mult_verification,2022.2.4,Win32,60.29908345,,,,,,,,,,,,,,,,,,,,,,,,,,,,,,,,,,,,,,,,,,,,,,,,,,,,,,,,,,,,,,,,,,,,,,,,63,1.952,1,"[""6"",""3"",""return""]","[1.553599999904577,1.7260999999045907,1.9213999998569307]",,,,,,2,63,Audio/63.mp3,WAIS,0,1,1,1,1,,,,,,,,,,,,,,,,,,,,,,,,,,,,,,,,,,,,,,,,,,,,,,,,,,,,,,,,,,,,,,,,,,,,,,,,,,,,,,,,,,,,
,697608015709,BCA,26/04/1999,001,2023-09-28_15h43.38.590,OS3_Mult_verification,2022.2.4,Win32,60.29908345,,,,,,,,,,,,,,,,,,,,,,,,,,,,,,,,,,,,,,,,,,,,,,,,,,,,,,,,,,,,,,,,,,,,,,,,,,,,,,,,,,,,,,,,,,,0,0,0,0,1,digitSpan_stim/twoWAIS.xlsx,,,,,,,,,,,,,,,,,,,,,,,,,,,,,,,,,,,,,,,,,,,,,,,,,,,,,,,,,,,,,,,,,,,,,,,,,,,,,,
,697608015709,BCA,26/04/1999,001,2023-09-28_15h43.38.590,OS3_Mult_verification,2022.2.4,Win32,60.29908345,,,,,,,,,,,,,,,,,,,,,,,,,,,,,,,,,,,,,,,,,,,,,,,,,,,,,,,,,,,,,,,,,,,,,,,,582,1.6353,1,"[""5"",""8"",""2"",""return""]","[0.3675999999046553,0.5722999999522926,1.3110999999046271,1.6117000000476764]",,,,,,3,582,Audio/582.mp3,WAIS,0,0,0,0,1,,,,,,,,,,,,,,,,,,,,,,,,,,,,,,,,,,,,,,,,,,,,,,,,,,,,,,,,,,,,,,,,,,,,,,,,,,,,,,,,,,,,
,697608015709,BCA,26/04/1999,001,2023-09-28_15h43.38.590,OS3_Mult_verification,2022.2.4,Win32,60.29908345,,,,,,,,,,,,,,,,,,,,,,,,,,,,,,,,,,,,,,,,,,,,,,,,,,,,,,,,,,,,,,,,,,,,,,,,694,1.268,1,"[""6"",""9"",""4"",""return""]","[0.32459999990464894,0.4847999999523154,0.6343999998570098,1.241599999904679]",,,,,,3,694,Audio/694.mp3,WAIS,0,1,1,1,1,,,,,,,,,,,,,,,,,,,,,,,,,,,,,,,,,,,,,,,,,,,,,,,,,,,,,,,,,,,,,,,,,,,,,,,,,,,,,,,,,,,,
,697608015709,BCA,26/04/1999,001,2023-09-28_15h43.38.590,OS3_Mult_verification,2022.2.4,Win32,60.29908345,,,,,,,,,,,,,,,,,,,,,,,,,,,,,,,,,,,,,,,,,,,,,,,,,,,,,,,,,,,,,,,,,,,,,,,,,,,,,,,,,,,,,,,,,,,0,1,1,1,1,digitSpan_stim/threeWAIS.xlsx,,,,,,,,,,,,,,,,,,,,,,,,,,,,,,,,,,,,,,,,,,,,,,,,,,,,,,,,,,,,,,,,,,,,,,,,,,,,,,
,697608015709,BCA,26/04/1999,001,2023-09-28_15h43.38.590,OS3_Mult_verification,2022.2.4,Win32,60.29908345,,,,,,,,,,,,,,,,,,,,,,,,,,,,,,,,,,,,,,,,,,,,,,,,,,,,,,,,,,,,,,,,,,,,,,,,7286,2.7195,1,"[""7"",""2"",""8"",""6"",""return""]","[0.3367999999522908,0.5427000000477165,0.7247999999523245,2.0782999999522644,2.689599999904658]",,,,,,4,7286,Audio/7286.mp3,WAIS,0,0,0,0,1,,,,,,,,,,,,,,,,,,,,,,,,,,,,,,,,,,,,,,,,,,,,,,,,,,,,,,,,,,,,,,,,,,,,,,,,,,,,,,,,,,,,
,697608015709,BCA,26/04/1999,001,2023-09-28_15h43.38.590,OS3_Mult_verification,2022.2.4,Win32,60.29908345,,,,,,,,,,,,,,,,,,,,,,,,,,,,,,,,,,,,,,,,,,,,,,,,,,,,,,,,,,,,,,,,,,,,,,,,6439,2.2526,1,"[""6"",""4"",""3"",""9"",""return""]","[0.5414000000953365,1.2530999999046344,1.452299999952288,1.5760999999046135,2.220299999952317]",,,,,,4,6439,Audio/6439.mp3,WAIS,0,1,1,1,1,,,,,,,,,,,,,,,,,,,,,,,,,,,,,,,,,,,,,,,,,,,,,,,,,,,,,,,,,,,,,,,,,,,,,,,,,,,,,,,,,,,,
,697608015709,BCA,26/04/1999,001,2023-09-28_15h43.38.590,OS3_Mult_verification,2022.2.4,Win32,60.29908345,,,,,,,,,,,,,,,,,,,,,,,,,,,,,,,,,,,,,,,,,,,,,,,,,,,,,,,,,,,,,,,,,,,,,,,,,,,,,,,,,,,,,,,,,,,0,2,2,2,1,digitSpan_stim/fourWAIS.xlsx,,,,,,,,,,,,,,,,,,,,,,,,,,,,,,,,,,,,,,,,,,,,,,,,,,,,,,,,,,,,,,,,,,,,,,,,,,,,,,
,697608015709,BCA,26/04/1999,001,2023-09-28_15h43.38.590,OS3_Mult_verification,2022.2.4,Win32,60.29908345,,,,,,,,,,,,,,,,,,,,,,,,,,,,,,,,,,,,,,,,,,,,,,,,,,,,,,,,,,,,,,,,,,,,,,,,42731,3.0866,1,"[""4"",""2"",""7"",""3"",""1"",""return""]","[0.8421999998092815,1.2893999998569825,1.65300000000002,2.186599999904729,2.408999999999992,3.053799999952389]",,,,,,5,42731,Audio/42731.mp3,WAIS,0,0,0,0,1,,,,,,,,,,,,,,,,,,,,,,,,,,,,,,,,,,,,,,,,,,,,,,,,,,,,,,,,,,,,,,,,,,,,,,,,,,,,,,,,,,,,
,697608015709,BCA,26/04/1999,001,2023-09-28_15h43.38.590,OS3_Mult_verification,2022.2.4,Win32,60.29908345,,,,,,,,,,,,,,,,,,,,,,,,,,,,,,,,,,,,,,,,,,,,,,,,,,,,,,,,,,,,,,,,,,,,,,,,75836,4.5046,1,"[""7"",""5"",""8"",""3"",""6"",""return""]","[0.7409999999999854,1.092999999999961,2.336700000047699,2.7700999999045735,2.9035999999046,4.479299999952332]",,,,,,5,75836,Audio/75836.mp3,WAIS,0,1,1,1,1,,,,,,,,,,,,,,,,,,,,,,,,,,,,,,,,,,,,,,,,,,,,,,,,,,,,,,,,,,,,,,,,,,,,,,,,,,,,,,,,,,,,
,697608015709,BCA,26/04/1999,001,2023-09-28_15h43.38.590,OS3_Mult_verification,2022.2.4,Win32,60.29908345,,,,,,,,,,,,,,,,,,,,,,,,,,,,,,,,,,,,,,,,,,,,,,,,,,,,,,,,,,,,,,,,,,,,,,,,,,,,,,,,,,,,,,,,,,,0,3,3,3,1,digitSpan_stim/fiveWAIS.xlsx,,,,,,,,,,,,,,,,,,,,,,,,,,,,,,,,,,,,,,,,,,,,,,,,,,,,,,,,,,,,,,,,,,,,,,,,,,,,,,
,697608015709,BCA,26/04/1999,001,2023-09-28_15h43.38.590,OS3_Mult_verification,2022.2.4,Win32,60.29908345,,,,,,,,,,,,,,,,,,,,,,,,,,,,,,,,,,,,,,,,,,,,,,,,,,,,,,,,,,,,,,,,,,,,,,,,392487,3.7705,1,"[""3"",""9"",""2"",""4"",""8"",""7"",""return""]","[0.939599999904658,1.1362999999522572,1.6940999999045516,2.1365999999046608,2.820700000047623,2.991700000047672,3.7382999999522326]",,,,,,6,392487,Audio/392487.mp3,WAIS,0,0,0,0,1,,,,,,,,,,,,,,,,,,,,,,,,,,,,,,,,,,,,,,,,,,,,,,,,,,,,,,,,,,,,,,,,,,,,,,,,,,,,,,,,,,,,
,697608015709,BCA,26/04/1999,001,2023-09-28_15h43.38.590,OS3_Mult_verification,2022.2.4,Win32,60.29908345,,,,,,,,,,,,,,,,,,,,,,,,,,,,,,,,,,,,,,,,,,,,,,,,,,,,,,,,,,,,,,,,,,,,,,,,619473,8.5257,1,"[""6"",""1"",""9"",""4"",""7"",""3"",""return""]","[5.372899999856941,5.879099999904611,6.597899999856963,7.642599999904633,7.909700000047678,8.14270000004774,8.493000000000052]",,,,,,6,619473,Audio/619473.mp3,WAIS,0,1,1,1,1,,,,,,,,,,,,,,,,,,,,,,,,,,,,,,,,,,,,,,,,,,,,,,,,,,,,,,,,,,,,,,,,,,,,,,,,,,,,,,,,,,,,
,697608015709,BCA,26/04/1999,001,2023-09-28_15h43.38.590,OS3_Mult_verification,2022.2.4,Win32,60.29908345,,,,,,,,,,,,,,,,,,,,,,,,,,,,,,,,,,,,,,,,,,,,,,,,,,,,,,,,,,,,,,,,,,,,,,,,,,,,,,,,,,,,,,,,,,,0,4,4,4,1,digitSpan_stim/sixWAIS.xlsx,,,,,,,,,,,,,,,,,,,,,,,,,,,,,,,,,,,,,,,,,,,,,,,,,,,,,,,,,,,,,,,,,,,,,,,,,,,,,,
,697608015709,BCA,26/04/1999,001,2023-09-28_15h43.38.590,OS3_Mult_verification,2022.2.4,Win32,60.29908345,,,,,,,,,,,,,,,,,,,,,,,,,,,,,,,,,,,,,,,,,,,,,,,,,,,,,,,,,,,,,,,,,,,,,,,,6917428,5.0554,1,"[""6"",""9"",""1"",""7"",""4"",""2"",""8"",""return""]","[0.884700000047701,1.6058000001906976,2.5201000001430884,2.7870000000000346,3.473900000095341,3.891200000047661,4.1720000000000255,5.0263000001907585]",,,,,,7,6917428,Audio/6917428.mp3,WAIS,0,0,0,0,1,,,,,,,,,,,,,,,,,,,,,,,,,,,,,,,,,,,,,,,,,,,,,,,,,,,,,,,,,,,,,,,,,,,,,,,,,,,,,,,,,,,,
,697608015709,BCA,26/04/1999,001,2023-09-28_15h43.38.590,OS3_Mult_verification,2022.2.4,Win32,60.29908345,,,,,,,,,,,,,,,,,,,,,,,,,,,,,,,,,,,,,,,,,,,,,,,,,,,,,,,,,,,,,,,,,,,,,,,,4179386,5.9563,1,"[""4"",""1"",""7"",""9"",""3"",""8"",""6"",""return""]","[1.8122999999523017,2.207200000047692,2.6929999999999836,3.626100000143083,4.4220000000000255,4.906100000143056,5.122900000095342,5.9292999999522635]",,,,,,7,4179386,Audio/4179386.mp3,WAIS,0,1,1,1,1,,,,,,,,,,,,,,,,,,,,,,,,,,,,,,,,,,,,,,,,,,,,,,,,,,,,,,,,,,,,,,,,,,,,,,,,,,,,,,,,,,,,
,697608015709,BCA,26/04/1999,001,2023-09-28_15h43.38.590,OS3_Mult_verification,2022.2.4,Win32,60.29908345,,,,,,,,,,,,,,,,,,,,,,,,,,,,,,,,,,,,,,,,,,,,,,,,,,,,,,,,,,,,,,,,,,,,,,,,,,,,,,,,,,,,,,,,,,,0,5,5,5,1,digitSpan_stim/sevenWAIS.xlsx,,,,,,,,,,,,,,,,,,,,,,,,,,,,,,,,,,,,,,,,,,,,,,,,,,,,,,,,,,,,,,,,,,,,,,,,,,,,,,
,697608015709,BCA,26/04/1999,001,2023-09-28_15h43.38.590,OS3_Mult_verification,2022.2.4,Win32,60.29908345,,,,,,,,,,,,,,,,,,,,,,,,,,,,,,,,,,,,,,,,,,,,,,,,,,,,,,,,,,,,,,,,,,,,,,,,38296174,5.0716,1,"[""3"",""8"",""2"",""9"",""6"",""1"",""7"",""4"",""return""]","[1.6357000000476773,2.0365000000000464,2.4363000001908404,2.986500000000092,3.4255000000000564,3.7787000000477065,4.291200000047752,4.68850000000009,5.039500000000089]",,,,,,8,38296174,Audio/38296174.mp3,WAIS,0,0,0,0,1,,,,,,,,,,,,,,,,,,,,,,,,,,,,,,,,,,,,,,,,,,,,,,,,,,,,,,,,,,,,,,,,,,,,,,,,,,,,,,,,,,,,
,697608015709,BCA,26/04/1999,001,2023-09-28_15h43.38.590,OS3_Mult_verification,2022.2.4,Win32,60.29908345,,,,,,,,,,,,,,,,,,,,,,,,,,,,,,,,,,,,,,,,,,,,,,,,,,,,,,,,,,,,,,,,,,,,,,,,5813237,16.3677,0,"[""5"",""8"",""1"",""3"",""2"",""3"",""7"",""return""]","[5.694900000095345,7.4422000000477055,10.979600000143137,11.462900000095374,13.598600000143051,15.21760000014308,15.434300000190774,16.33990000009544]",,,,,,8,58132647,Audio/58132647.mp3,WAIS,0,1,1,1,1,,,,,,,,,,,,,,,,,,,,,,,,,,,,,,,,,,,,,,,,,,,,,,,,,,,,,,,,,,,,,,,,,,,,,,,,,,,,,,,,,,,,
,697608015709,BCA,26/04/1999,001,2023-09-28_15h43.38.590,OS3_Mult_verification,2022.2.4,Win32,60.29908345,,,,,,,,,,,,,,,,,,,,,,,,,,,,,,,,,,,,,,,,,,,,,,,,,,,,,,,,,,,,,,,,,,,,,,,,,,,,,,,,,,,,,,,,,,,0,6,6,6,1,digitSpan_stim/eightWAIS.xlsx,,,,,,,,,,,,,,,,,,,,,,,,,,,,,,,,,,,,,,,,,,,,,,,,,,,,,,,,,,,,,,,,,,,,,,,,,,,,,,
,697608015709,BCA,26/04/1999,001,2023-09-28_15h43.38.590,OS3_Mult_verification,2022.2.4,Win32,60.29908345,,,,,,,,,,,,,,,,,,,,,,,,,,,,,,,,,,,,,,,,,,,,,,,,,,,,,,,,,,,,,,,,,,,,,,,,2758134,7.875,0,"[""2"",""7"",""5"",""8"",""1"",""3"",""4"",""return""]","[2.903500000000008,3.1537000000477065,4.305100000143057,5.973600000143051,6.24840000009533,6.880999999999972,7.027900000095315,7.850400000095306]",,,,,,9,275863194,Audio/275863194.mp3,WAIS,0,0,0,0,1,,,,,,,,,,,,,,,,,,,,,,,,,,,,,,,,,,,,,,,,,,,,,,,,,,,,,,,,,,,,,,,,,,,,,,,,,,,,,,,,,,,,
,697608015709,BCA,26/04/1999,001,2023-09-28_15h43.38.590,OS3_Mult_verification,2022.2.4,Win32,60.29908345,,,,,,,,,,,,,,,,,,,,,,,,,,,,,,,,,,,,,,,,,,,,,,,,,,,,,,,,,,,,,,,,,,,,,,,,71534538,15.767,0,"[""7"",""1"",""5"",""3"",""4"",""5"",""3"",""8"",""return""]","[1.902899999857027,2.07189999985701,2.7535999999047363,7.041299999952344,7.876099999904682,14.20339999985697,14.825799999952324,14.933299999952396,15.740199999809306]",,,,,,9,713942568,Audio/713942568.mp3,WAIS,0,1,1,1,1,,,,,,,,,,,,,,,,,,,,,,,,,,,,,,,,,,,,,,,,,,,,,,,,,,,,,,,,,,,,,,,,,,,,,,,,,,,,,,,,,,,,
,697608015709,BCA,26/04/1999,001,2023-09-28_15h43.38.590,OS3_Mult_verification,2022.2.4,Win32,60.29908345,,,,,,,,,,,,,,,,,,,,,,,,,,,,,,,,,,,,,,,,,,,,,,,,,,,,,,,,,,,,,,,,,,,,,,,,,,,,,,,,,,WAIS,,,,,,,,,,,,,,,0,0,0,1,1,digitSpan_stim/WAIS.xlsx,,,,,,,,,,,,,,,,,,,,,,,,,,,,,,,,,,,,,,,,,,,,,,,,,,,,,,,,,,,,,,,,,,,,,,,,
,697608015709,BCA,26/04/1999,001,2023-09-28_15h43.38.590,OS3_Mult_verification,2022.2.4,Win32,60.29908345,,,,,,,,,,,,,,,,,,,,,,,,,,,,,,,,,,,,,,,,,,,,,,,,,,,,,,,,,,,,,,,,,,,,,,,,46,1.702,1,"[""4"",""6"",""return""]","[0.8849000000953993,0.9850000000000136,1.672400000095422]",,,,,,2,46,Audio/46.mp3,EGNER,0,0,0,0,1,,,,,,,,,,,,,,,,,,,,,,,,,,,,,,,,,,,,,,,,,,,,,,,,,,,,,,,,,,,,,,,,,,,,,,,,,,,,,,,,,,,,
,697608015709,BCA,26/04/1999,001,2023-09-28_15h43.38.590,OS3_Mult_verification,2022.2.4,Win32,60.29908345,,,,,,,,,,,,,,,,,,,,,,,,,,,,,,,,,,,,,,,,,,,,,,,,,,,,,,,,,,,,,,,,,,,,,,,,82,2.5525,1,"[""8"",""2"",""return""]","[0.8042000000476719,0.8852000000476892,2.523099999904616]",,,,,,2,82,Audio/82.mp3,EGNER,0,1,1,1,1,,,,,,,,,,,,,,,,,,,,,,,,,,,,,,,,,,,,,,,,,,,,,,,,,,,,,,,,,,,,,,,,,,,,,,,,,,,,,,,,,,,,
,697608015709,BCA,26/04/1999,001,2023-09-28_15h43.38.590,OS3_Mult_verification,2022.2.4,Win32,60.29908345,,,,,,,,,,,,,,,,,,,,,,,,,,,,,,,,,,,,,,,,,,,,,,,,,,,,,,,,,,,,,,,,,,,,,,,,,,,,,,,,,,,,,,,,,,,0,0,0,0,1,digitSpan_stim/twoAudio.xlsx,,,,,,,,,,,,,,,,,,,,,,,,,,,,,,,,,,,,,,,,,,,,,,,,,,,,,,,,,,,,,,,,,,,,,,,,,,,,,,
,697608015709,BCA,26/04/1999,001,2023-09-28_15h43.38.590,OS3_Mult_verification,2022.2.4,Win32,60.29908345,,,,,,,,,,,,,,,,,,,,,,,,,,,,,,,,,,,,,,,,,,,,,,,,,,,,,,,,,,,,,,,,,,,,,,,,157,1.8689,1,"[""1"",""5"",""7"",""return""]","[0.467700000047671,0.7529000000953374,1.0682999999523872,1.8362999999523026]",,,,,,3,157,Audio/157.mp3,EGNER,0,0,0,0,1,,,,,,,,,,,,,,,,,,,,,,,,,,,,,,,,,,,,,,,,,,,,,,,,,,,,,,,,,,,,,,,,,,,,,,,,,,,,,,,,,,,,
,697608015709,BCA,26/04/1999,001,2023-09-28_15h43.38.590,OS3_Mult_verification,2022.2.4,Win32,60.29908345,,,,,,,,,,,,,,,,,,,,,,,,,,,,,,,,,,,,,,,,,,,,,,,,,,,,,,,,,,,,,,,,,,,,,,,,397,3.103,1,"[""3"",""9"",""7"",""return""]","[1.5039000000954275,2.10320000004765,2.4702000000477256,3.078200000047673]",,,,,,3,397,Audio/397.mp3,EGNER,0,1,1,1,1,,,,,,,,,,,,,,,,,,,,,,,,,,,,,,,,,,,,,,,,,,,,,,,,,,,,,,,,,,,,,,,,,,,,,,,,,,,,,,,,,,,,
,697608015709,BCA,26/04/1999,001,2023-09-28_15h43.38.590,OS3_Mult_verification,2022.2.4,Win32,60.29908345,,,,,,,,,,,,,,,,,,,,,,,,,,,,,,,,,,,,,,,,,,,,,,,,,,,,,,,,,,,,,,,,,,,,,,,,,,,,,,,,,,,,,,,,,,,0,1,1,1,1,digitSpan_stim/threeAudio.xlsx,,,,,,,,,,,,,,,,,,,,,,,,,,,,,,,,,,,,,,,,,,,,,,,,,,,,,,,,,,,,,,,,,,,,,,,,,,,,,,
,697608015709,BCA,26/04/1999,001,2023-09-28_15h43.38.590,OS3_Mult_verification,2022.2.4,Win32,60.29908345,,,,,,,,,,,,,,,,,,,,,,,,,,,,,,,,,,,,,,,,,,,,,,,,,,,,,,,,,,,,,,,,,,,,,,,,6352,3.5037,1,"[""6"",""3"",""5"",""2"",""return""]","[1.118300000190743,1.6266000001430712,2.1866000001430166,2.572200000047701,3.4710000000000036]",,,,,,4,6352,Audio/6352.mp3,EGNER,0,0,0,0,1,,,,,,,,,,,,,,,,,,,,,,,,,,,,,,,,,,,,,,,,,,,,,,,,,,,,,,,,,,,,,,,,,,,,,,,,,,,,,,,,,,,,
,697608015709,BCA,26/04/1999,001,2023-09-28_15h43.38.590,OS3_Mult_verification,2022.2.4,Win32,60.29908345,,,,,,,,,,,,,,,,,,,,,,,,,,,,,,,,,,,,,,,,,,,,,,,,,,,,,,,,,,,,,,,,,,,,,,,,9184,4.8719,1,"[""9"",""1"",""8"",""4"",""return""]","[2.074899999856939,2.4912999999522754,3.754899999856889,4.105199999809315,4.84729999995227]",,,,,,4,9184,Audio/9184.mp3,EGNER,0,1,1,1,1,,,,,,,,,,,,,,,,,,,,,,,,,,,,,,,,,,,,,,,,,,,,,,,,,,,,,,,,,,,,,,,,,,,,,,,,,,,,,,,,,,,,
,697608015709,BCA,26/04/1999,001,2023-09-28_15h43.38.590,OS3_Mult_verification,2022.2.4,Win32,60.29908345,,,,,,,,,,,,,,,,,,,,,,,,,,,,,,,,,,,,,,,,,,,,,,,,,,,,,,,,,,,,,,,,,,,,,,,,,,,,,,,,,,,,,,,,,,,0,2,2,2,1,digitSpan_stim/fourAudio.xlsx,,,,,,,,,,,,,,,,,,,,,,,,,,,,,,,,,,,,,,,,,,,,,,,,,,,,,,,,,,,,,,,,,,,,,,,,,,,,,,
,697608015709,BCA,26/04/1999,001,2023-09-28_15h43.38.590,OS3_Mult_verification,2022.2.4,Win32,60.29908345,,,,,,,,,,,,,,,,,,,,,,,,,,,,,,,,,,,,,,,,,,,,,,,,,,,,,,,,,,,,,,,,,,,,,,,,59281,6.3068,1,"[""5"",""9"",""2"",""8"",""1"",""return""]","[3.1225999999046508,3.662199999809218,4.138299999952324,5.055899999856933,5.440699999809226,6.2740999999045926]",,,,,,5,59281,Audio/59281.mp3,EGNER,0,0,0,0,1,,,,,,,,,,,,,,,,,,,,,,,,,,,,,,,,,,,,,,,,,,,,,,,,,,,,,,,,,,,,,,,,,,,,,,,,,,,,,,,,,,,,
,697608015709,BCA,26/04/1999,001,2023-09-28_15h43.38.590,OS3_Mult_verification,2022.2.4,Win32,60.29908345,,,,,,,,,,,,,,,,,,,,,,,,,,,,,,,,,,,,,,,,,,,,,,,,,,,,,,,,,,,,,,,,,,,,,,,,64738,6.5234,1,"[""6"",""4"",""7"",""3"",""8"",""return""]","[2.1529000000954284,2.875,4.722100000143087,5.27770000004773,5.8657000000476955,6.490600000143104]",,,,,,5,64738,Audio/64738.mp3,EGNER,0,1,1,1,1,,,,,,,,,,,,,,,,,,,,,,,,,,,,,,,,,,,,,,,,,,,,,,,,,,,,,,,,,,,,,,,,,,,,,,,,,,,,,,,,,,,,
,697608015709,BCA,26/04/1999,001,2023-09-28_15h43.38.590,OS3_Mult_verification,2022.2.4,Win32,60.29908345,,,,,,,,,,,,,,,,,,,,,,,,,,,,,,,,,,,,,,,,,,,,,,,,,,,,,,,,,,,,,,,,,,,,,,,,,,,,,,,,,,,,,,,,,,,0,3,3,3,1,digitSpan_stim/fiveAudio.xlsx,,,,,,,,,,,,,,,,,,,,,,,,,,,,,,,,,,,,,,,,,,,,,,,,,,,,,,,,,,,,,,,,,,,,,,,,,,,,,,
,697608015709,BCA,26/04/1999,001,2023-09-28_15h43.38.590,OS3_Mult_verification,2022.2.4,Win32,60.29908345,,,,,,,,,,,,,,,,,,,,,,,,,,,,,,,,,,,,,,,,,,,,,,,,,,,,,,,,,,,,,,,,,,,,,,,,396172,7.0743,1,"[""3"",""9"",""6"",""1"",""7"",""2"",""return""]","[2.187399999857007,4.538799999952289,5.089399999856937,5.458099999904675,6.023700000047711,6.3820999999046535,7.041500000000042]",,,,,,6,396172,Audio/396172.mp3,EGNER,0,0,0,0,1,,,,,,,,,,,,,,,,,,,,,,,,,,,,,,,,,,,,,,,,,,,,,,,,,,,,,,,,,,,,,,,,,,,,,,,,,,,,,,,,,,,,
,697608015709,BCA,26/04/1999,001,2023-09-28_15h43.38.590,OS3_Mult_verification,2022.2.4,Win32,60.29908345,,,,,,,,,,,,,,,,,,,,,,,,,,,,,,,,,,,,,,,,,,,,,,,,,,,,,,,,,,,,,,,,,,,,,,,,594631,6.874,1,"[""5"",""9"",""4"",""6"",""3"",""1"",""return""]","[3.1219999999999573,3.9784000000953483,5.197700000047689,5.456600000143112,5.830400000095324,6.06060000014304,6.841700000047695]",,,,,,6,594631,Audio/594631.mp3,EGNER,0,1,1,1,1,,,,,,,,,,,,,,,,,,,,,,,,,,,,,,,,,,,,,,,,,,,,,,,,,,,,,,,,,,,,,,,,,,,,,,,,,,,,,,,,,,,,
,697608015709,BCA,26/04/1999,001,2023-09-28_15h43.38.590,OS3_Mult_verification,2022.2.4,Win32,60.29908345,,,,,,,,,,,,,,,,,,,,,,,,,,,,,,,,,,,,,,,,,,,,,,,,,,,,,,,,,,,,,,,,,,,,,,,,,,,,,,,,,,,,,,,,,,,0,4,4,4,1,digitSpan_stim/sixAudio.xlsx,,,,,,,,,,,,,,,,,,,,,,,,,,,,,,,,,,,,,,,,,,,,,,,,,,,,,,,,,,,,,,,,,,,,,,,,,,,,,,
,697608015709,BCA,26/04/1999,001,2023-09-28_15h43.38.590,OS3_Mult_verification,2022.2.4,Win32,60.29908345,,,,,,,,,,,,,,,,,,,,,,,,,,,,,,,,,,,,,,,,,,,,,,,,,,,,,,,,,,,,,,,,,,,,,,,,8241973,7.3911,1,"[""8"",""2"",""4"",""1"",""9"",""7"",""3"",""return""]","[3.6898000001907576,4.1049000000954265,4.839200000047754,5.073300000190784,5.91510000014307,6.24190000009537,6.714200000047754,7.363400000095453]",,,,,,7,8241973,Audio/8241973.mp3,EGNER,0,0,0,0,1,,,,,,,,,,,,,,,,,,,,,,,,,,,,,,,,,,,,,,,,,,,,,,,,,,,,,,,,,,,,,,,,,,,,,,,,,,,,,,,,,,,,
,697608015709,BCA,26/04/1999,001,2023-09-28_15h43.38.590,OS3_Mult_verification,2022.2.4,Win32,60.29908345,,,,,,,,,,,,,,,,,,,,,,,,,,,,,,,,,,,,,,,,,,,,,,,,,,,,,,,,,,,,,,,,,,,,,,,,2814367,7.291,1,"[""2"",""8"",""1"",""4"",""3"",""6"",""7"",""return""]","[2.5865999999045926,3.387499999999932,3.8439999999999372,4.578200000047673,5.663700000047697,6.527099999904635,6.691099999904623,7.25839999985692]",,,,,,7,2814367,Audio/2814367.mp3,EGNER,0,1,1,1,1,,,,,,,,,,,,,,,,,,,,,,,,,,,,,,,,,,,,,,,,,,,,,,,,,,,,,,,,,,,,,,,,,,,,,,,,,,,,,,,,,,,,
,697608015709,BCA,26/04/1999,001,2023-09-28_15h43.38.590,OS3_Mult_verification,2022.2.4,Win32,60.29908345,,,,,,,,,,,,,,,,,,,,,,,,,,,,,,,,,,,,,,,,,,,,,,,,,,,,,,,,,,,,,,,,,,,,,,,,,,,,,,,,,,,,,,,,,,,0,5,5,5,1,digitSpan_stim/sevenAudio.xlsx,,,,,,,,,,,,,,,,,,,,,,,,,,,,,,,,,,,,,,,,,,,,,,,,,,,,,,,,,,,,,,,,,,,,,,,,,,,,,,
,697608015709,BCA,26/04/1999,001,2023-09-28_15h43.38.590,OS3_Mult_verification,2022.2.4,Win32,60.29908345,,,,,,,,,,,,,,,,,,,,,,,,,,,,,,,,,,,,,,,,,,,,,,,,,,,,,,,,,,,,,,,,,,,,,,,,53824164,8.6926,0,"[""5"",""3"",""8"",""2"",""4"",""1"",""6"",""4"",""return""]","[3.8580999999046526,4.24220000004766,5.091700000047695,5.573200000047677,6.107799999952363,6.462799999952381,7.358700000047747,7.808999999999969,8.667700000047716]",,,,,,8,53827164,Audio/53827164.mp3,EGNER,0,0,0,0,1,,,,,,,,,,,,,,,,,,,,,,,,,,,,,,,,,,,,,,,,,,,,,,,,,,,,,,,,,,,,,,,,,,,,,,,,,,,,,,,,,,,,
,697608015709,BCA,26/04/1999,001,2023-09-28_15h43.38.590,OS3_Mult_verification,2022.2.4,Win32,60.29908345,,,,,,,,,,,,,,,,,,,,,,,,,,,,,,,,,,,,,,,,,,,,,,,,,,,,,,,,,,,,,,,,,,,,,,,,75241739,9.3599,1,"[""7"",""5"",""2"",""4"",""1"",""7"",""3"",""9"",""return""]","[4.346800000190797,4.738900000095327,5.159600000142973,6.260300000190682,6.6276000001430475,7.441800000190824,7.964400000095338,8.562300000190817,9.331300000190822]",,,,,,8,75241739,Audio/75241739.mp3,EGNER,0,1,1,1,1,,,,,,,,,,,,,,,,,,,,,,,,,,,,,,,,,,,,,,,,,,,,,,,,,,,,,,,,,,,,,,,,,,,,,,,,,,,,,,,,,,,,
,697608015709,BCA,26/04/1999,001,2023-09-28_15h43.38.590,OS3_Mult_verification,2022.2.4,Win32,60.29908345,,,,,,,,,,,,,,,,,,,,,,,,,,,,,,,,,,,,,,,,,,,,,,,,,,,,,,,,,,,,,,,,,,,,,,,,,,,,,,,,,,,,,,,,,,,0,6,6,6,1,digitSpan_stim/eightAudio.xlsx,,,,,,,,,,,,,,,,,,,,,,,,,,,,,,,,,,,,,,,,,,,,,,,,,,,,,,,,,,,,,,,,,,,,,,,,,,,,,,
,697608015709,BCA,26/04/1999,001,2023-09-28_15h43.38.590,OS3_Mult_verification,2022.2.4,Win32,60.29908345,,,,,,,,,,,,,,,,,,,,,,,,,,,,,,,,,,,,,,,,,,,,,,,,,,,,,,,,,,,,,,,,,,,,,,,,682594316,10.1776,1,"[""6"",""8"",""2"",""5"",""9"",""4"",""3"",""1"",""6"",""return""]","[1.8084000000953893,2.3366000001431075,2.7867999999523363,3.437600000142993,5.6814999999999145,6.249200000047722,8.384200000047713,8.626600000143071,9.299700000047778,10.147900000095433]",,,,,,9,682594316,Audio/682594316.mp3,EGNER,0,0,0,0,1,,,,,,,,,,,,,,,,,,,,,,,,,,,,,,,,,,,,,,,,,,,,,,,,,,,,,,,,,,,,,,,,,,,,,,,,,,,,,,,,,,,,
,697608015709,BCA,26/04/1999,001,2023-09-28_15h43.38.590,OS3_Mult_verification,2022.2.4,Win32,60.29908345,,,,,,,,,,,,,,,,,,,,,,,,,,,,,,,,,,,,,,,,,,,,,,,,,,,,,,,,,,,,,,,,,,,,,,,,142963768,11.4454,0,"[""1"",""4"",""2"",""9"",""6"",""3"",""7"",""6"",""8"",""return""]","[2.18620000004762,2.9874000000954766,3.9045000000000982,5.611200000047575,7.04110000014316,7.864200000047731,8.811400000095318,9.710799999952314,10.779799999952274,11.41840000009529]",,,,,,9,142963758,Audio/142963758.mp3,EGNER,0,1,1,1,1,,,,,,,,,,,,,,,,,,,,,,,,,,,,,,,,,,,,,,,,,,,,,,,,,,,,,,,,,,,,,,,,,,,,,,,,,,,,,,,,,,,,
,697608015709,BCA,26/04/1999,001,2023-09-28_15h43.38.590,OS3_Mult_verification,2022.2.4,Win32,60.29908345,,,,,,,,,,,,,,,,,,,,,,,,,,,,,,,,,,,,,,,,,,,,,,,,,,,,,,,,,,,,,,,,,,,,,,,,,,,,,,,,,,,,,,,,,,,0,7,7,7,1,digitSpan_stim/nineAudio.xlsx,,,,,,,,,,,,,,,,,,,,,,,,,,,,,,,,,,,,,,,,,,,,,,,,,,,,,,,,,,,,,,,,,,,,,,,,,,,,,,
,697608015709,BCA,26/04/1999,001,2023-09-28_15h43.38.590,OS3_Mult_verification,2022.2.4,Win32,60.29908345,,,,,,,,,,,,,,,,,,,,,,,,,,,,,,,,,,,,,,,,,,,,,,,,,,,,,,,,,,,,,,,,,,,,,,,,,,,,,,,,,,Egner,,,,,,,,,,,,,,,0,1,1,0,1,digitSpan_stim/Egner.xlsx,,,,,,,,,,,,,,,,,,,,,,,,,,,,,,,,,,,,,,,,,,,,,,,,,,,,,,,,,,,,,,,,,,,,,,,,
,697608015709,BCA,26/04/1999,001,2023-09-28_15h43.38.590,OS3_Mult_verification,2022.2.4,Win32,60.29908345,,,,,,,,,,,,,,,,,,,,,,,,,,,,,,,,,,,,,,,,,,,,,,,,,,,,,,,,,,,,,,,,,,,,,,,,,,,,,,,,,,,,,,,,,,,,,,,,,,,,,,,0,0,0,0,1,,,,,,,,,,,,,,,,,,,,,,,,,,,,,,,,,,,,,,,,,,,,,,,,,,,,,,,,,,,,,,,,,,,
,697608015709,BCA,26/04/1999,001,2023-09-28_15h43.38.590,OS3_Mult_verification,2022.2.4,Win32,60.29908345,,,,,,,,,,,,,,,,,,,,,,,,,,,,,,,,,,,,,,,,,,,,,,,,,,,,,,,,,,,,,,0,1,1,1,1,0,0,1,,,,,,,,,,,,,,,,,,,,,,,,,,,,,,,,,,,,,,,,,,,,,,,,,,,,,,,,,,,,,,,,,,,,,,,,,,,,,,,,,,,,,,,,,,,,,,,,,,,,,,,,,
,697608015709,BCA,26/04/1999,001,2023-09-28_15h43.38.590,OS3_Mult_verification,2022.2.4,Win32,60.29908345,,,,,,,,,,,,,,,,space,1.5327,,,,,,,,,,,,,,,,,,,,,,,,,,,,,,,,,,,,,,,,,,,,,,,,,,,,,,,,,,,,,,,,,,,,,,,,,,,,,,,,,,,,,,,,,,,right,1,0.8509,0,0,0,1,1,practice,7,8,7 | 8,1,0.065,0.05,incongruent,right,,,,,,,,,,,,,,,,,,,,,,,,,,,,,,,,,,,,,,,,,,,,,,,,,,
,697608015709,BCA,26/04/1999,001,2023-09-28_15h43.38.590,OS3_Mult_verification,2022.2.4,Win32,60.29908345,,,,,,,,,,,,,,,,,,,,,,,,,,,,,,,,,,,,,,,,,,,,,,,,,,,,,,,,,,,,,,,,,,,,,,,,,,,,,,,,,,,,,,,,,,,,,,,,,,,,,,,,,,,,right,1,0.6282,0,1,1,2,1,practice,4,9,4 | 9,5,0.06,0.06,neutral,right,,,,,,,,,,,,,,,,,,,,,,,,,,,,,,,,,,,,,,,,,,,,,,,,,,
,697608015709,BCA,26/04/1999,001,2023-09-28_15h43.38.590,OS3_Mult_verification,2022.2.4,Win32,60.29908345,,,,,,,,,,,,,,,,,,,,,,,,,,,,,,,,,,,,,,,,,,,,,,,,,,,,,,,,,,,,,,,,,,,,,,,,,,,,,,,,,,,,,,,,,,,,,,,,,,,,,,,,,,,,right,1,0.4867,0,2,2,0,1,practice,1,2,1 | 2,1,0.05,0.065,congruent,right,,,,,,,,,,,,,,,,,,,,,,,,,,,,,,,,,,,,,,,,,,,,,,,,,,
,697608015709,BCA,26/04/1999,001,2023-09-28_15h43.38.590,OS3_Mult_verification,2022.2.4,Win32,60.29908345,,,,,,,,,,,,,,,,,,,,,,,,,,,,,,,,,,,,,,,,,,,,,,,,,,,,,,,,,,,,,,,,,,,,,,,,,,,,,,,,,,,,,,,,,,,,,,,,,,,,,,,,,,,,right,1,0.7124,,,,,,magnitude,7,9,7 | 9,2,0.065,0.05,incongruent,right,0,0,0,35,1,,,,,,,,,,,,,,,,,,,,,,,,,,,,,,,,,,,,,,,,,,,,,
,697608015709,BCA,26/04/1999,001,2023-09-28_15h43.38.590,OS3_Mult_verification,2022.2.4,Win32,60.29908345,,,,,,,,,,,,,,,,,,,,,,,,,,,,,,,,,,,,,,,,,,,,,,,,,,,,,,,,,,,,,,,,,,,,,,,,,,,,,,,,,,,,,,,,,,,,,,,,,,,,,,,,,,,,left,1,0.632,,,,,,magnitude,8,6,8 | 6,2,0.06,0.06,neutral,left,0,1,1,62,1,,,,,,,,,,,,,,,,,,,,,,,,,,,,,,,,,,,,,,,,,,,,,
,697608015709,BCA,26/04/1999,001,2023-09-28_15h43.38.590,OS3_Mult_verification,2022.2.4,Win32,60.29908345,,,,,,,,,,,,,,,,,,,,,,,,,,,,,,,,,,,,,,,,,,,,,,,,,,,,,,,,,,,,,,,,,,,,,,,,,,,,,,,,,,,,,,,,,,,,,,,,,,,,,,,,,,,,left,1,0.5831,,,,,,magnitude,2,1,2 | 1,1,0.06,0.06,neutral,left,0,2,2,52,1,,,,,,,,,,,,,,,,,,,,,,,,,,,,,,,,,,,,,,,,,,,,,
,697608015709,BCA,26/04/1999,001,2023-09-28_15h43.38.590,OS3_Mult_verification,2022.2.4,Win32,60.29908345,,,,,,,,,,,,,,,,,,,,,,,,,,,,,,,,,,,,,,,,,,,,,,,,,,,,,,,,,,,,,,,,,,,,,,,,,,,,,,,,,,,,,,,,,,,,,,,,,,,,,,,,,,,,right,1,0.467,,,,,,magnitude,7,9,7 | 9,2,0.05,0.065,congruent,right,0,3,3,11,1,,,,,,,,,,,,,,,,,,,,,,,,,,,,,,,,,,,,,,,,,,,,,
,697608015709,BCA,26/04/1999,001,2023-09-28_15h43.38.590,OS3_Mult_verification,2022.2.4,Win32,60.29908345,,,,,,,,,,,,,,,,,,,,,,,,,,,,,,,,,,,,,,,,,,,,,,,,,,,,,,,,,,,,,,,,,,,,,,,,,,,,,,,,,,,,,,,,,,,,,,,,,,,,,,,,,,,,right,1,0.5315,,,,,,magnitude,1,3,1 | 3,2,0.05,0.065,congruent,right,0,4,4,8,1,,,,,,,,,,,,,,,,,,,,,,,,,,,,,,,,,,,,,,,,,,,,,
,697608015709,BCA,26/04/1999,001,2023-09-28_15h43.38.590,OS3_Mult_verification,2022.2.4,Win32,60.29908345,,,,,,,,,,,,,,,,,,,,,,,,,,,,,,,,,,,,,,,,,,,,,,,,,,,,,,,,,,,,,,,,,,,,,,,,,,,,,,,,,,,,,,,,,,,,,,,,,,,,,,,,,,,,left,1,0.5679,,,,,,magnitude,9,4,9 | 4,5,0.06,0.06,neutral,left,0,5,5,71,1,,,,,,,,,,,,,,,,,,,,,,,,,,,,,,,,,,,,,,,,,,,,,
,697608015709,BCA,26/04/1999,001,2023-09-28_15h43.38.590,OS3_Mult_verification,2022.2.4,Win32,60.29908345,,,,,,,,,,,,,,,,,,,,,,,,,,,,,,,,,,,,,,,,,,,,,,,,,,,,,,,,,,,,,,,,,,,,,,,,,,,,,,,,,,,,,,,,,,,,,,,,,,,,,,,,,,,,right,1,0.5661,,,,,,magnitude,1,3,1 | 3,2,0.065,0.05,incongruent,right,0,6,6,32,1,,,,,,,,,,,,,,,,,,,,,,,,,,,,,,,,,,,,,,,,,,,,,
,697608015709,BCA,26/04/1999,001,2023-09-28_15h43.38.590,OS3_Mult_verification,2022.2.4,Win32,60.29908345,,,,,,,,,,,,,,,,,,,,,,,,,,,,,,,,,,,,,,,,,,,,,,,,,,,,,,,,,,,,,,,,,,,,,,,,,,,,,,,,,,,,,,,,,,,,,,,,,,,,,,,,,,,,right,1,0.5834,,,,,,magnitude,4,9,4 | 9,5,0.05,0.065,congruent,right,0,7,7,19,1,,,,,,,,,,,,,,,,,,,,,,,,,,,,,,,,,,,,,,,,,,,,,
,697608015709,BCA,26/04/1999,001,2023-09-28_15h43.38.590,OS3_Mult_verification,2022.2.4,Win32,60.29908345,,,,,,,,,,,,,,,,,,,,,,,,,,,,,,,,,,,,,,,,,,,,,,,,,,,,,,,,,,,,,,,,,,,,,,,,,,,,,,,,,,,,,,,,,,,,,,,,,,,,,,,,,,,,left,1,0.5136,,,,,,magnitude,6,1,6 | 1,5,0.065,0.05,congruent,left,0,8,8,20,1,,,,,,,,,,,,,,,,,,,,,,,,,,,,,,,,,,,,,,,,,,,,,
,697608015709,BCA,26/04/1999,001,2023-09-28_15h43.38.590,OS3_Mult_verification,2022.2.4,Win32,60.29908345,,,,,,,,,,,,,,,,,,,,,,,,,,,,,,,,,,,,,,,,,,,,,,,,,,,,,,,,,,,,,,,,,,,,,,,,,,,,,,,,,,,,,,,,,,,,,,,,,,,,,,,,,,,,left,1,0.6004,,,,,,magnitude,4,2,4 | 2,2,0.05,0.065,incongruent,left,0,9,9,37,1,,,,,,,,,,,,,,,,,,,,,,,,,,,,,,,,,,,,,,,,,,,,,
,697608015709,BCA,26/04/1999,001,2023-09-28_15h43.38.590,OS3_Mult_verification,2022.2.4,Win32,60.29908345,,,,,,,,,,,,,,,,,,,,,,,,,,,,,,,,,,,,,,,,,,,,,,,,,,,,,,,,,,,,,,,,,,,,,,,,,,,,,,,,,,,,,,,,,,,,,,,,,,,,,,,,,,,,right,1,0.6029,,,,,,magnitude,7,9,7 | 9,2,0.06,0.06,neutral,right,0,10,10,59,1,,,,,,,,,,,,,,,,,,,,,,,,,,,,,,,,,,,,,,,,,,,,,
,697608015709,BCA,26/04/1999,001,2023-09-28_15h43.38.590,OS3_Mult_verification,2022.2.4,Win32,60.29908345,,,,,,,,,,,,,,,,,,,,,,,,,,,,,,,,,,,,,,,,,,,,,,,,,,,,,,,,,,,,,,,,,,,,,,,,,,,,,,,,,,,,,,,,,,,,,,,,,,,,,,,,,,,,left,1,0.7239,,,,,,magnitude,8,6,8 | 6,2,0.05,0.065,incongruent,left,0,11,11,38,1,,,,,,,,,,,,,,,,,,,,,,,,,,,,,,,,,,,,,,,,,,,,,
,697608015709,BCA,26/04/1999,001,2023-09-28_15h43.38.590,OS3_Mult_verification,2022.2.4,Win32,60.29908345,,,,,,,,,,,,,,,,,,,,,,,,,,,,,,,,,,,,,,,,,,,,,,,,,,,,,,,,,,,,,,,,,,,,,,,,,,,,,,,,,,,,,,,,,,,,,,,,,,,,,,,,,,,,left,1,0.5507,,,,,,magnitude,8,3,8 | 3,5,0.05,0.065,incongruent,left,0,12,12,46,1,,,,,,,,,,,,,,,,,,,,,,,,,,,,,,,,,,,,,,,,,,,,,
,697608015709,BCA,26/04/1999,001,2023-09-28_15h43.38.590,OS3_Mult_verification,2022.2.4,Win32,60.29908345,,,,,,,,,,,,,,,,,,,,,,,,,,,,,,,,,,,,,,,,,,,,,,,,,,,,,,,,,,,,,,,,,,,,,,,,,,,,,,,,,,,,,,,,,,,,,,,,,,,,,,,,,,,,right,0,0.6743,,,,,,magnitude,9,8,9 | 8,1,0.065,0.05,congruent,left,0,13,13,7,1,,,,,,,,,,,,,,,,,,,,,,,,,,,,,,,,,,,,,,,,,,,,,
,697608015709,BCA,26/04/1999,001,2023-09-28_15h43.38.590,OS3_Mult_verification,2022.2.4,Win32,60.29908345,,,,,,,,,,,,,,,,,,,,,,,,,,,,,,,,,,,,,,,,,,,,,,,,,,,,,,,,,,,,,,,,,,,,,,,,,,,,,,,,,,,,,,,,,,,,,,,,,,,,,,,,,,,,left,1,0.7644,,,,,,magnitude,7,6,7 | 6,1,0.065,0.05,congruent,left,0,14,14,6,1,,,,,,,,,,,,,,,,,,,,,,,,,,,,,,,,,,,,,,,,,,,,,
,697608015709,BCA,26/04/1999,001,2023-09-28_15h43.38.590,OS3_Mult_verification,2022.2.4,Win32,60.29908345,,,,,,,,,,,,,,,,,,,,,,,,,,,,,,,,,,,,,,,,,,,,,,,,,,,,,,,,,,,,,,,,,,,,,,,,,,,,,,,,,,,,,,,,,,,,,,,,,,,,,,,,,,,,left,1,0.9557,,,,,,magnitude,8,6,8 | 6,2,0.065,0.05,congruent,left,0,15,15,14,1,,,,,,,,,,,,,,,,,,,,,,,,,,,,,,,,,,,,,,,,,,,,,
,697608015709,BCA,26/04/1999,001,2023-09-28_15h43.38.590,OS3_Mult_verification,2022.2.4,Win32,60.29908345,,,,,,,,,,,,,,,,,,,,,,,,,,,,,,,,,,,,,,,,,,,,,,,,,,,,,,,,,,,,,,,,,,,,,,,,,,,,,,,,,,,,,,,,,,,,,,,,,,,,,,,,,,,,left,1,0.701,,,,,,magnitude,7,2,7 | 2,5,0.05,0.065,incongruent,left,0,16,16,45,1,,,,,,,,,,,,,,,,,,,,,,,,,,,,,,,,,,,,,,,,,,,,,
,697608015709,BCA,26/04/1999,001,2023-09-28_15h43.38.590,OS3_Mult_verification,2022.2.4,Win32,60.29908345,,,,,,,,,,,,,,,,,,,,,,,,,,,,,,,,,,,,,,,,,,,,,,,,,,,,,,,,,,,,,,,,,,,,,,,,,,,,,,,,,,,,,,,,,,,,,,,,,,,,,,,,,,,,left,1,0.6148,,,,,,magnitude,9,7,9 | 7,2,0.065,0.05,congruent,left,0,17,17,15,1,,,,,,,,,,,,,,,,,,,,,,,,,,,,,,,,,,,,,,,,,,,,,
,697608015709,BCA,26/04/1999,001,2023-09-28_15h43.38.590,OS3_Mult_verification,2022.2.4,Win32,60.29908345,,,,,,,,,,,,,,,,,,,,,,,,,,,,,,,,,,,,,,,,,,,,,,,,,,,,,,,,,,,,,,,,,,,,,,,,,,,,,,,,,,,,,,,,,,,,,,,,,,,,,,,,,,,,right,1,0.9385,,,,,,magnitude,6,8,6 | 8,2,0.05,0.065,congruent,right,0,18,18,10,1,,,,,,,,,,,,,,,,,,,,,,,,,,,,,,,,,,,,,,,,,,,,,
,697608015709,BCA,26/04/1999,001,2023-09-28_15h43.38.590,OS3_Mult_verification,2022.2.4,Win32,60.29908345,,,,,,,,,,,,,,,,,,,,,,,,,,,,,,,,,,,,,,,,,,,,,,,,,,,,,,,,,,,,,,,,,,,,,,,,,,,,,,,,,,,,,,,,,,,,,,,,,,,,,,,,,,,,right,1,0.5148,,,,,,magnitude,1,2,1 | 2,1,0.06,0.06,neutral,right,0,19,19,48,1,,,,,,,,,,,,,,,,,,,,,,,,,,,,,,,,,,,,,,,,,,,,,
,697608015709,BCA,26/04/1999,001,2023-09-28_15h43.38.590,OS3_Mult_verification,2022.2.4,Win32,60.29908345,,,,,,,,,,,,,,,,,,,,,,,,,,,,,,,,,,,,,,,,,,,,,,,,,,,,,,,,,,,,,,,,,,,,,,,,,,,,,,,,,,,,,,,,,,,,,,,,,,,,,,,,,,,,left,1,0.4809,,,,,,magnitude,7,2,7 | 2,5,0.065,0.05,congruent,left,0,20,20,21,1,,,,,,,,,,,,,,,,,,,,,,,,,,,,,,,,,,,,,,,,,,,,,
,697608015709,BCA,26/04/1999,001,2023-09-28_15h43.38.590,OS3_Mult_verification,2022.2.4,Win32,60.29908345,,,,,,,,,,,,,,,,,,,,,,,,,,,,,,,,,,,,,,,,,,,,,,,,,,,,,,,,,,,,,,,,,,,,,,,,,,,,,,,,,,,,,,,,,,,,,,,,,,,,,,,,,,,,left,1,0.5504,,,,,,magnitude,9,8,9 | 8,1,0.06,0.06,neutral,left,0,21,21,55,1,,,,,,,,,,,,,,,,,,,,,,,,,,,,,,,,,,,,,,,,,,,,,
,697608015709,BCA,26/04/1999,001,2023-09-28_15h43.38.590,OS3_Mult_verification,2022.2.4,Win32,60.29908345,,,,,,,,,,,,,,,,,,,,,,,,,,,,,,,,,,,,,,,,,,,,,,,,,,,,,,,,,,,,,,,,,,,,,,,,,,,,,,,,,,,,,,,,,,,,,,,,,,,,,,,,,,,,right,1,0.5858,,,,,,magnitude,3,4,3 | 4,1,0.065,0.05,incongruent,right,0,22,22,25,1,,,,,,,,,,,,,,,,,,,,,,,,,,,,,,,,,,,,,,,,,,,,,
,697608015709,BCA,26/04/1999,001,2023-09-28_15h43.38.590,OS3_Mult_verification,2022.2.4,Win32,60.29908345,,,,,,,,,,,,,,,,,,,,,,,,,,,,,,,,,,,,,,,,,,,,,,,,,,,,,,,,,,,,,,,,,,,,,,,,,,,,,,,,,,,,,,,,,,,,,,,,,,,,,,,,,,,,left,1,0.6527,,,,,,magnitude,7,6,7 | 6,1,0.05,0.065,incongruent,left,0,23,23,30,1,,,,,,,,,,,,,,,,,,,,,,,,,,,,,,,,,,,,,,,,,,,,,
,697608015709,BCA,26/04/1999,001,2023-09-28_15h43.38.590,OS3_Mult_verification,2022.2.4,Win32,60.29908345,,,,,,,,,,,,,,,,,,,,,,,,,,,,,,,,,,,,,,,,,,,,,,,,,,,,,,,,,,,,,,,,,,,,,,,,,,,,,,,,,,,,,,,,,,,,,,,,,,,,,,,,,,,,right,1,0.7172,,,,,,magnitude,4,9,4 | 9,5,0.06,0.06,neutral,right,0,24,24,67,1,,,,,,,,,,,,,,,,,,,,,,,,,,,,,,,,,,,,,,,,,,,,,
,697608015709,BCA,26/04/1999,001,2023-09-28_15h43.38.590,OS3_Mult_verification,2022.2.4,Win32,60.29908345,,,,,,,,,,,,,,,,,,,,,,,,,,,,,,,,,,,,,,,,,,,,,,,,,,,,,,,,,,,,,,,,,,,,,,,,,,,,,,,,,,,,,,,,,,,,,,,,,,,,,,,,,,,,left,1,0.4975,,,,,,magnitude,3,1,3 | 1,2,0.065,0.05,congruent,left,0,25,25,12,1,,,,,,,,,,,,,,,,,,,,,,,,,,,,,,,,,,,,,,,,,,,,,
,697608015709,BCA,26/04/1999,001,2023-09-28_15h43.38.590,OS3_Mult_verification,2022.2.4,Win32,60.29908345,,,,,,,,,,,,,,,,,,,,,,,,,,,,,,,,,,,,,,,,,,,,,,,,,,,,,,,,,,,,,,,,,,,,,,,,,,,,,,,,,,,,,,,,,,,,,,,,,,,,,,,,,,,,left,1,0.7002,,,,,,magnitude,7,6,7 | 6,1,0.06,0.06,neutral,left,0,26,26,54,1,,,,,,,,,,,,,,,,,,,,,,,,,,,,,,,,,,,,,,,,,,,,,
,697608015709,BCA,26/04/1999,001,2023-09-28_15h43.38.590,OS3_Mult_verification,2022.2.4,Win32,60.29908345,,,,,,,,,,,,,,,,,,,,,,,,,,,,,,,,,,,,,,,,,,,,,,,,,,,,,,,,,,,,,,,,,,,,,,,,,,,,,,,,,,,,,,,,,,,,,,,,,,,,,,,,,,,,right,1,0.7668,,,,,,magnitude,6,7,6 | 7,1,0.05,0.065,congruent,right,0,27,27,2,1,,,,,,,,,,,,,,,,,,,,,,,,,,,,,,,,,,,,,,,,,,,,,
,697608015709,BCA,26/04/1999,001,2023-09-28_15h43.38.590,OS3_Mult_verification,2022.2.4,Win32,60.29908345,,,,,,,,,,,,,,,,,,,,,,,,,,,,,,,,,,,,,,,,,,,,,,,,,,,,,,,,,,,,,,,,,,,,,,,,,,,,,,,,,,,,,,,,,,,,,,,,,,,,,,,,,,,,right,1,0.6032,,,,,,magnitude,1,3,1 | 3,2,0.06,0.06,neutral,right,0,28,28,56,1,,,,,,,,,,,,,,,,,,,,,,,,,,,,,,,,,,,,,,,,,,,,,
,697608015709,BCA,26/04/1999,001,2023-09-28_15h43.38.590,OS3_Mult_verification,2022.2.4,Win32,60.29908345,,,,,,,,,,,,,,,,,,,,,,,,,,,,,,,,,,,,,,,,,,,,,,,,,,,,,,,,,,,,,,,,,,,,,,,,,,,,,,,,,,,,,,,,,,,,,,,,,,,,,,,,,,,,right,1,0.6172,,,,,,magnitude,2,4,2 | 4,2,0.06,0.06,neutral,right,0,29,29,57,1,,,,,,,,,,,,,,,,,,,,,,,,,,,,,,,,,,,,,,,,,,,,,
,697608015709,BCA,26/04/1999,001,2023-09-28_15h43.38.590,OS3_Mult_verification,2022.2.4,Win32,60.29908345,,,,,,,,,,,,,,,,,,,,,,,,,,,,,,,,,,,,,,,,,,,,,,,,,,,,,,,,,,,,,,,,,,,,,,,,,,,,,,,,,,,,,,,,,,,,,,,,,,,,,,,,,,,,left,1,0.4996,,,,,,magnitude,4,3,4 | 3,1,0.065,0.05,congruent,left,0,30,30,5,1,,,,,,,,,,,,,,,,,,,,,,,,,,,,,,,,,,,,,,,,,,,,,
,697608015709,BCA,26/04/1999,001,2023-09-28_15h43.38.590,OS3_Mult_verification,2022.2.4,Win32,60.29908345,,,,,,,,,,,,,,,,,,,,,,,,,,,,,,,,,,,,,,,,,,,,,,,,,,,,,,,,,,,,,,,,,,,,,,,,,,,,,,,,,,,,,,,,,,,,,,,,,,,,,,,,,,,,right,1,0.5,,,,,,magnitude,1,6,1 | 6,5,0.05,0.065,congruent,right,0,31,31,16,1,,,,,,,,,,,,,,,,,,,,,,,,,,,,,,,,,,,,,,,,,,,,,
,697608015709,BCA,26/04/1999,001,2023-09-28_15h43.38.590,OS3_Mult_verification,2022.2.4,Win32,60.29908345,,,,,,,,,,,,,,,,,,,,,,,,,,,,,,,,,,,,,,,,,,,,,,,,,,,,,,,,,,,,,,,,,,,,,,,,,,,,,,,,,,,,,,,,,,,,,,,,,,,,,,,,,,,,left,1,0.5044,,,,,,magnitude,9,4,9 | 4,5,0.065,0.05,congruent,left,0,32,32,23,1,,,,,,,,,,,,,,,,,,,,,,,,,,,,,,,,,,,,,,,,,,,,,
,697608015709,BCA,26/04/1999,001,2023-09-28_15h43.38.590,OS3_Mult_verification,2022.2.4,Win32,60.29908345,,,,,,,,,,,,,,,,,,,,,,,,,,,,,,,,,,,,,,,,,,,,,,,,,,,,,,,,,,,,,,,,,,,,,,,,,,,,,,,,,,,,,,,,,,,,,,,,,,,,,,,,,,,,left,0,0.5805,,,,,,magnitude,6,7,6 | 7,1,0.065,0.05,incongruent,right,0,33,33,26,1,,,,,,,,,,,,,,,,,,,,,,,,,,,,,,,,,,,,,,,,,,,,,
,697608015709,BCA,26/04/1999,001,2023-09-28_15h43.38.590,OS3_Mult_verification,2022.2.4,Win32,60.29908345,,,,,,,,,,,,,,,,,,,,,,,,,,,,,,,,,,,,,,,,,,,,,,,,,,,,,,,,,,,,,,,,,,,,,,,,,,,,,,,,,,,,,,,,,,,,,,,,,,,,,,,,,,,,right,1,0.6553,,,,,,magnitude,2,7,2 | 7,5,0.06,0.06,neutral,right,0,34,34,65,1,,,,,,,,,,,,,,,,,,,,,,,,,,,,,,,,,,,,,,,,,,,,,
,697608015709,BCA,26/04/1999,001,2023-09-28_15h43.38.590,OS3_Mult_verification,2022.2.4,Win32,60.29908345,,,,,,,,,,,,,,,,,,,,,,,,,,,,,,,,,,,,,,,,,,,,,,,,,,,,,,,,,,,,,,,,,,,,,,,,,,,,,,,,,,,,,,,,,,,,,,,,,,,,,,,,,,,,right,1,0.5638,,,,,,magnitude,3,8,3 | 8,5,0.065,0.05,incongruent,right,0,35,35,42,1,,,,,,,,,,,,,,,,,,,,,,,,,,,,,,,,,,,,,,,,,,,,,
,697608015709,BCA,26/04/1999,001,2023-09-28_15h43.38.590,OS3_Mult_verification,2022.2.4,Win32,60.29908345,,,,,,,,,,,,,,,,,,,,,,,,,,,,,,,,,,,,,,,,,,,,,,,,,,,,,,,,,,,,,,,,,,,,,,,,,,,,,,,,,,,,,,,,,,,,,,,,,,,,,,,,,,,,left,1,0.5701,,,,,,magnitude,9,7,9 | 7,2,0.05,0.065,incongruent,left,0,36,36,39,1,,,,,,,,,,,,,,,,,,,,,,,,,,,,,,,,,,,,,,,,,,,,,
,697608015709,BCA,26/04/1999,001,2023-09-28_15h43.38.590,OS3_Mult_verification,2022.2.4,Win32,60.29908345,,,,,,,,,,,,,,,,,,,,,,,,,,,,,,,,,,,,,,,,,,,,,,,,,,,,,,,,,,,,,,,,,,,,,,,,,,,,,,,,,,,,,,,,,,,,,,,,,,,,,,,,,,,,left,1,0.8411,,,,,,magnitude,9,8,9 | 8,1,0.05,0.065,incongruent,left,0,37,37,31,1,,,,,,,,,,,,,,,,,,,,,,,,,,,,,,,,,,,,,,,,,,,,,
,697608015709,BCA,26/04/1999,001,2023-09-28_15h43.38.590,OS3_Mult_verification,2022.2.4,Win32,60.29908345,,,,,,,,,,,,,,,,,,,,,,,,,,,,,,,,,,,,,,,,,,,,,,,,,,,,,,,,,,,,,,,,,,,,,,,,,,,,,,,,,,,,,,,,,,,,,,,,,,,,,,,,,,,,right,1,0.685,,,,,,magnitude,3,8,3 | 8,5,0.05,0.065,congruent,right,0,38,38,18,1,,,,,,,,,,,,,,,,,,,,,,,,,,,,,,,,,,,,,,,,,,,,,
,697608015709,BCA,26/04/1999,001,2023-09-28_15h43.38.590,OS3_Mult_verification,2022.2.4,Win32,60.29908345,,,,,,,,,,,,,,,,,,,,,,,,,,,,,,,,,,,,,,,,,,,,,,,,,,,,,,,,,,,,,,,,,,,,,,,,,,,,,,,,,,,,,,,,,,,,,,,,,,,,,,,,,,,,left,0,0.5671,,,,,,magnitude,8,9,8 | 9,1,0.065,0.05,incongruent,right,0,39,39,27,1,,,,,,,,,,,,,,,,,,,,,,,,,,,,,,,,,,,,,,,,,,,,,
,697608015709,BCA,26/04/1999,001,2023-09-28_15h43.38.590,OS3_Mult_verification,2022.2.4,Win32,60.29908345,,,,,,,,,,,,,,,,,,,,,,,,,,,,,,,,,,,,,,,,,,,,,,,,,,,,,,,,,,,,,,,,,,,,,,,,,,,,,,,,,,,,,,,,,,,,,,,,,,,,,,,,,,,,right,1,1.1189,,,,,,magnitude,3,4,3 | 4,1,0.06,0.06,neutral,right,0,40,40,49,1,,,,,,,,,,,,,,,,,,,,,,,,,,,,,,,,,,,,,,,,,,,,,
,697608015709,BCA,26/04/1999,001,2023-09-28_15h43.38.590,OS3_Mult_verification,2022.2.4,Win32,60.29908345,,,,,,,,,,,,,,,,,,,,,,,,,,,,,,,,,,,,,,,,,,,,,,,,,,,,,,,,,,,,,,,,,,,,,,,,,,,,,,,,,,,,,,,,,,,,,,,,,,,,,,,,,,,,right,1,0.8843,,,,,,magnitude,8,9,8 | 9,1,0.06,0.06,neutral,right,0,41,41,51,1,,,,,,,,,,,,,,,,,,,,,,,,,,,,,,,,,,,,,,,,,,,,,
,697608015709,BCA,26/04/1999,001,2023-09-28_15h43.38.590,OS3_Mult_verification,2022.2.4,Win32,60.29908345,,,,,,,,,,,,,,,,,,,,,,,,,,,,,,,,,,,,,,,,,,,,,,,,,,,,,,,,,,,,,,,,,,,,,,,,,,,,,,,,,,,,,,,,,,,,,,,,,,,,,,,,,,,,left,1,0.8865,,,,,,magnitude,4,3,4 | 3,1,0.06,0.06,neutral,left,0,42,42,53,1,,,,,,,,,,,,,,,,,,,,,,,,,,,,,,,,,,,,,,,,,,,,,
,697608015709,BCA,26/04/1999,001,2023-09-28_15h43.38.590,OS3_Mult_verification,2022.2.4,Win32,60.29908345,,,,,,,,,,,,,,,,,,,,,,,,,,,,,,,,,,,,,,,,,,,,,,,,,,,,,,,,,,,,,,,,,,,,,,,,,,,,,,,,,,,,,,,,,,,,,,,,,,,,,,,,,,,,left,1,0.8509,,,,,,magnitude,2,1,2 | 1,1,0.05,0.065,incongruent,left,0,43,43,28,1,,,,,,,,,,,,,,,,,,,,,,,,,,,,,,,,,,,,,,,,,,,,,
,697608015709,BCA,26/04/1999,001,2023-09-28_15h43.38.590,OS3_Mult_verification,2022.2.4,Win32,60.29908345,,,,,,,,,,,,,,,,,,,,,,,,,,,,,,,,,,,,,,,,,,,,,,,,,,,,,,,,,,,,,,,,,,,,,,,,,,,,,,,,,,,,,,,,,,,,,,,,,,,,,,,,,,,,right,1,0.6567,,,,,,magnitude,1,6,1 | 6,5,0.065,0.05,incongruent,right,0,44,44,40,1,,,,,,,,,,,,,,,,,,,,,,,,,,,,,,,,,,,,,,,,,,,,,
,697608015709,BCA,26/04/1999,001,2023-09-28_15h43.38.590,OS3_Mult_verification,2022.2.4,Win32,60.29908345,,,,,,,,,,,,,,,,,,,,,,,,,,,,,,,,,,,,,,,,,,,,,,,,,,,,,,,,,,,,,,,,,,,,,,,,,,,,,,,,,,,,,,,,,,,,,,,,,,,,,,,,,,,,left,1,0.688,,,,,,magnitude,9,4,9 | 4,5,0.05,0.065,incongruent,left,0,45,45,47,1,,,,,,,,,,,,,,,,,,,,,,,,,,,,,,,,,,,,,,,,,,,,,
,697608015709,BCA,26/04/1999,001,2023-09-28_15h43.38.590,OS3_Mult_verification,2022.2.4,Win32,60.29908345,,,,,,,,,,,,,,,,,,,,,,,,,,,,,,,,,,,,,,,,,,,,,,,,,,,,,,,,,,,,,,,,,,,,,,,,,,,,,,,,,,,,,,,,,,,,,,,,,,,,,,,,,,,,right,1,0.902,,,,,,magnitude,8,9,8 | 9,1,0.05,0.065,congruent,right,0,46,46,3,1,,,,,,,,,,,,,,,,,,,,,,,,,,,,,,,,,,,,,,,,,,,,,
,697608015709,BCA,26/04/1999,001,2023-09-28_15h43.38.590,OS3_Mult_verification,2022.2.4,Win32,60.29908345,,,,,,,,,,,,,,,,,,,,,,,,,,,,,,,,,,,,,,,,,,,,,,,,,,,,,,,,,,,,,,,,,,,,,,,,,,,,,,,,,,,,,,,,,,,,,,,,,,,,,,,,,,,,left,1,0.6638,,,,,,magnitude,4,3,4 | 3,1,0.05,0.065,incongruent,left,0,47,47,29,1,,,,,,,,,,,,,,,,,,,,,,,,,,,,,,,,,,,,,,,,,,,,,
,697608015709,BCA,26/04/1999,001,2023-09-28_15h43.38.590,OS3_Mult_verification,2022.2.4,Win32,60.29908345,,,,,,,,,,,,,,,,,,,,,,,,,,,,,,,,,,,,,,,,,,,,,,,,,,,,,,,,,,,,,,,,,,,,,,,,,,,,,,,,,,,,,,,,,,,,,,,,,,,,,,,,,,,,left,1,0.6554,,,,,,magnitude,9,7,9 | 7,2,0.06,0.06,neutral,left,0,48,48,63,1,,,,,,,,,,,,,,,,,,,,,,,,,,,,,,,,,,,,,,,,,,,,,
,697608015709,BCA,26/04/1999,001,2023-09-28_15h43.38.590,OS3_Mult_verification,2022.2.4,Win32,60.29908345,,,,,,,,,,,,,,,,,,,,,,,,,,,,,,,,,,,,,,,,,,,,,,,,,,,,,,,,,,,,,,,,,,,,,,,,,,,,,,,,,,,,,,,,,,,,,,,,,,,,,,,,,,,,left,1,0.604,,,,,,magnitude,7,2,7 | 2,5,0.06,0.06,neutral,left,0,49,49,69,1,,,,,,,,,,,,,,,,,,,,,,,,,,,,,,,,,,,,,,,,,,,,,
,697608015709,BCA,26/04/1999,001,2023-09-28_15h43.38.590,OS3_Mult_verification,2022.2.4,Win32,60.29908345,,,,,,,,,,,,,,,,,,,,,,,,,,,,,,,,,,,,,,,,,,,,,,,,,,,,,,,,,,,,,,,,,,,,,,,,,,,,,,,,,,,,,,,,,,,,,,,,,,,,,,,,,,,,right,1,0.4837,,,,,,magnitude,2,4,2 | 4,2,0.05,0.065,congruent,right,0,50,50,9,1,,,,,,,,,,,,,,,,,,,,,,,,,,,,,,,,,,,,,,,,,,,,,
,697608015709,BCA,26/04/1999,001,2023-09-28_15h43.38.590,OS3_Mult_verification,2022.2.4,Win32,60.29908345,,,,,,,,,,,,,,,,,,,,,,,,,,,,,,,,,,,,,,,,,,,,,,,,,,,,,,,,,,,,,,,,,,,,,,,,,,,,,,,,,,,,,,,,,,,,,,,,,,,,,,,,,,,,right,1,0.5411,,,,,,magnitude,1,2,1 | 2,1,0.065,0.05,incongruent,right,0,51,51,24,1,,,,,,,,,,,,,,,,,,,,,,,,,,,,,,,,,,,,,,,,,,,,,
,697608015709,BCA,26/04/1999,001,2023-09-28_15h43.38.590,OS3_Mult_verification,2022.2.4,Win32,60.29908345,,,,,,,,,,,,,,,,,,,,,,,,,,,,,,,,,,,,,,,,,,,,,,,,,,,,,,,,,,,,,,,,,,,,,,,,,,,,,,,,,,,,,,,,,,,,,,,,,,,,,,,,,,,,left,1,0.5163,,,,,,magnitude,6,1,6 | 1,5,0.06,0.06,neutral,left,0,52,52,68,1,,,,,,,,,,,,,,,,,,,,,,,,,,,,,,,,,,,,,,,,,,,,,
,697608015709,BCA,26/04/1999,001,2023-09-28_15h43.38.590,OS3_Mult_verification,2022.2.4,Win32,60.29908345,,,,,,,,,,,,,,,,,,,,,,,,,,,,,,,,,,,,,,,,,,,,,,,,,,,,,,,,,,,,,,,,,,,,,,,,,,,,,,,,,,,,,,,,,,,,,,,,,,,,,,,,,,,,right,1,0.7561,,,,,,magnitude,6,8,6 | 8,2,0.065,0.05,incongruent,right,0,53,53,34,1,,,,,,,,,,,,,,,,,,,,,,,,,,,,,,,,,,,,,,,,,,,,,
,697608015709,BCA,26/04/1999,001,2023-09-28_15h43.38.590,OS3_Mult_verification,2022.2.4,Win32,60.29908345,,,,,,,,,,,,,,,,,,,,,,,,,,,,,,,,,,,,,,,,,,,,,,,,,,,,,,,,,,,,,,,,,,,,,,,,,,,,,,,,,,,,,,,,,,,,,,,,,,,,,,,,,,,,left,1,0.5342,,,,,,magnitude,4,2,4 | 2,2,0.06,0.06,neutral,left,0,54,54,61,1,,,,,,,,,,,,,,,,,,,,,,,,,,,,,,,,,,,,,,,,,,,,,
,697608015709,BCA,26/04/1999,001,2023-09-28_15h43.38.590,OS3_Mult_verification,2022.2.4,Win32,60.29908345,,,,,,,,,,,,,,,,,,,,,,,,,,,,,,,,,,,,,,,,,,,,,,,,,,,,,,,,,,,,,,,,,,,,,,,,,,,,,,,,,,,,,,,,,,,,,,,,,,,,,,,,,,,,right,1,0.4965,,,,,,magnitude,1,2,1 | 2,1,0.05,0.065,congruent,right,0,55,55,0,1,,,,,,,,,,,,,,,,,,,,,,,,,,,,,,,,,,,,,,,,,,,,,
,697608015709,BCA,26/04/1999,001,2023-09-28_15h43.38.590,OS3_Mult_verification,2022.2.4,Win32,60.29908345,,,,,,,,,,,,,,,,,,,,,,,,,,,,,,,,,,,,,,,,,,,,,,,,,,,,,,,,,,,,,,,,,,,,,,,,,,,,,,,,,,,,,,,,,,,,,,,,,,,,,,,,,,,,left,1,0.5715,,,,,,magnitude,8,3,8 | 3,5,0.06,0.06,neutral,left,0,56,56,70,1,,,,,,,,,,,,,,,,,,,,,,,,,,,,,,,,,,,,,,,,,,,,,
,697608015709,BCA,26/04/1999,001,2023-09-28_15h43.38.590,OS3_Mult_verification,2022.2.4,Win32,60.29908345,,,,,,,,,,,,,,,,,,,,,,,,,,,,,,,,,,,,,,,,,,,,,,,,,,,,,,,,,,,,,,,,,,,,,,,,,,,,,,,,,,,,,,,,,,,,,,,,,,,,,,,,,,,,left,1,0.5309,,,,,,magnitude,8,3,8 | 3,5,0.065,0.05,congruent,left,0,57,57,22,1,,,,,,,,,,,,,,,,,,,,,,,,,,,,,,,,,,,,,,,,,,,,,
,697608015709,BCA,26/04/1999,001,2023-09-28_15h43.38.590,OS3_Mult_verification,2022.2.4,Win32,60.29908345,,,,,,,,,,,,,,,,,,,,,,,,,,,,,,,,,,,,,,,,,,,,,,,,,,,,,,,,,,,,,,,,,,,,,,,,,,,,,,,,,,,,,,,,,,,,,,,,,,,,,,,,,,,,left,1,0.6032,,,,,,magnitude,4,2,4 | 2,2,0.065,0.05,congruent,left,0,58,58,13,1,,,,,,,,,,,,,,,,,,,,,,,,,,,,,,,,,,,,,,,,,,,,,
,697608015709,BCA,26/04/1999,001,2023-09-28_15h43.38.590,OS3_Mult_verification,2022.2.4,Win32,60.29908345,,,,,,,,,,,,,,,,,,,,,,,,,,,,,,,,,,,,,,,,,,,,,,,,,,,,,,,,,,,,,,,,,,,,,,,,,,,,,,,,,,,,,,,,,,,,,,,,,,,,,,,,,,,,right,1,0.5641,,,,,,magnitude,2,7,2 | 7,5,0.065,0.05,incongruent,right,0,59,59,41,1,,,,,,,,,,,,,,,,,,,,,,,,,,,,,,,,,,,,,,,,,,,,,
,697608015709,BCA,26/04/1999,001,2023-09-28_15h43.38.590,OS3_Mult_verification,2022.2.4,Win32,60.29908345,,,,,,,,,,,,,,,,,,,,,,,,,,,,,,,,,,,,,,,,,,,,,,,,,,,,,,,,,,,,,,,,,,,,,,,,,,,,,,,,,,,,,,,,,,,,,,,,,,,,,,,,,,,,left,0,0.6172,,,,,,magnitude,6,7,6 | 7,1,0.06,0.06,neutral,right,0,60,60,50,1,,,,,,,,,,,,,,,,,,,,,,,,,,,,,,,,,,,,,,,,,,,,,
,697608015709,BCA,26/04/1999,001,2023-09-28_15h43.38.590,OS3_Mult_verification,2022.2.4,Win32,60.29908345,,,,,,,,,,,,,,,,,,,,,,,,,,,,,,,,,,,,,,,,,,,,,,,,,,,,,,,,,,,,,,,,,,,,,,,,,,,,,,,,,,,,,,,,,,,,,,,,,,,,,,,,,,,,right,1,1.1172,,,,,,magnitude,2,7,2 | 7,5,0.05,0.065,congruent,right,0,61,61,17,1,,,,,,,,,,,,,,,,,,,,,,,,,,,,,,,,,,,,,,,,,,,,,
,697608015709,BCA,26/04/1999,001,2023-09-28_15h43.38.590,OS3_Mult_verification,2022.2.4,Win32,60.29908345,,,,,,,,,,,,,,,,,,,,,,,,,,,,,,,,,,,,,,,,,,,,,,,,,,,,,,,,,,,,,,,,,,,,,,,,,,,,,,,,,,,,,,,,,,,,,,,,,,,,,,,,,,,,right,1,0.5171,,,,,,magnitude,1,6,1 | 6,5,0.06,0.06,neutral,right,0,62,62,64,1,,,,,,,,,,,,,,,,,,,,,,,,,,,,,,,,,,,,,,,,,,,,,
,697608015709,BCA,26/04/1999,001,2023-09-28_15h43.38.590,OS3_Mult_verification,2022.2.4,Win32,60.29908345,,,,,,,,,,,,,,,,,,,,,,,,,,,,,,,,,,,,,,,,,,,,,,,,,,,,,,,,,,,,,,,,,,,,,,,,,,,,,,,,,,,,,,,,,,,,,,,,,,,,,,,,,,,,left,1,0.5667,,,,,,magnitude,3,1,3 | 1,2,0.06,0.06,neutral,left,0,63,63,60,1,,,,,,,,,,,,,,,,,,,,,,,,,,,,,,,,,,,,,,,,,,,,,
,697608015709,BCA,26/04/1999,001,2023-09-28_15h43.38.590,OS3_Mult_verification,2022.2.4,Win32,60.29908345,,,,,,,,,,,,,,,,,,,,,,,,,,,,,,,,,,,,,,,,,,,,,,,,,,,,,,,,,,,,,,,,,,,,,,,,,,,,,,,,,,,,,,,,,,,,,,,,,,,,,,,,,,,,right,1,0.5653,,,,,,magnitude,2,4,2 | 4,2,0.065,0.05,incongruent,right,0,64,64,33,1,,,,,,,,,,,,,,,,,,,,,,,,,,,,,,,,,,,,,,,,,,,,,
,697608015709,BCA,26/04/1999,001,2023-09-28_15h43.38.590,OS3_Mult_verification,2022.2.4,Win32,60.29908345,,,,,,,,,,,,,,,,,,,,,,,,,,,,,,,,,,,,,,,,,,,,,,,,,,,,,,,,,,,,,,,,,,,,,,,,,,,,,,,,,,,,,,,,,,,,,,,,,,,,,,,,,,,,left,1,0.5977,,,,,,magnitude,2,1,2 | 1,1,0.065,0.05,congruent,left,0,65,65,4,1,,,,,,,,,,,,,,,,,,,,,,,,,,,,,,,,,,,,,,,,,,,,,
