windowSize,participant,group,DOB (DD/MM/YEAR),session,date,expName,psychopyVersion,OS,frameRate,typing_instr_resp.keys,typing_instr_resp.rt,typing_response,typing_rt,typing_score,typingSpeed_input_resp.keys,typingSpeed_input_resp.rt,typing_speed_trials.thisRepN,typing_speed_trials.thisTrialN,typing_speed_trials.thisN,typing_speed_trials.thisIndex,typing_speed_trials.ran,typing_speed_stim,typing_report_resp.keys,typing_report_resp.rt,vpt_trial_resp1.keys,vpt_trial_resp1.rt,typedResponse,fluency_rt,fluency_score,fluencyInputResp.keys,fluencyInputResp.rt,fluencyPracLoop.thisRepN,fluencyPracLoop.thisTrialN,fluencyPracLoop.thisN,fluencyPracLoop.thisIndex,fluencyPracLoop.ran,problem,answers,fluencyLoop.thisRepN,fluencyLoop.thisTrialN,fluencyLoop.thisN,fluencyLoop.thisIndex,fluencyLoop.ran,sampleAudio_resp.keys,sampleAudio_resp.rt,subjResponse,audio_rt,DS_score,inputResp.keys,inputResp.rt,audioPracticeLoop.thisRepN,audioPracticeLoop.thisTrialN,audioPracticeLoop.thisN,audioPracticeLoop.thisIndex,audioPracticeLoop.ran,digitSpan,digits_audioStim,soundsFile,typeDS,audioTrials_Loop.thisRepN,audioTrials_Loop.thisTrialN,audioTrials_Loop.thisN,audioTrials_Loop.thisIndex,audioTrials_Loop.ran,audioBlocks_loop.thisRepN,audioBlocks_loop.thisTrialN,audioBlocks_loop.thisN,audioBlocks_loop.thisIndex,audioBlocks_loop.ran,ConditionFile,digitSpanTask_loop.thisRepN,digitSpanTask_loop.thisTrialN,digitSpanTask_loop.thisN,digitSpanTask_loop.thisIndex,digitSpanTask_loop.ran,dsFile,TASK_C.thisRepN,TASK_C.thisTrialN,TASK_C.thisN,TASK_C.thisIndex,TASK_C.ran,controlTaskOrder.thisRepN,controlTaskOrder.thisTrialN,controlTaskOrder.thisN,controlTaskOrder.thisIndex,controlTaskOrder.ran,nRepsTask1,nRepsTask2,nRepsTask3,stroopResp.keys,stroopResp.corr,stroopResp.rt,stroopPracLoop.thisRepN,stroopPracLoop.thisTrialN,stroopPracLoop.thisN,stroopPracLoop.thisIndex,stroopPracLoop.ran,stroopCond,leftNo,rightNo,displayProblem,numDistance,leftNo_size,rightNo_size,Dims,keyAnswer,stroopLoop.thisRepN,stroopLoop.thisTrialN,stroopLoop.thisN,stroopLoop.thisIndex,stroopLoop.ran,stroopBlocks.thisRepN,stroopBlocks.thisTrialN,stroopBlocks.thisN,stroopBlocks.thisIndex,stroopBlocks.ran,stroop_condition,stroop_pracFile,ActionInst,instrImage,TASK_A.thisRepN,TASK_A.thisTrialN,TASK_A.thisN,TASK_A.thisIndex,TASK_A.ran,vptCorrect,vpt_rt,respMouse.x,respMouse.y,respMouse.leftButton,respMouse.midButton,respMouse.rightButton,vptPracticeLoop.thisRepN,vptPracticeLoop.thisTrialN,vptPracticeLoop.thisN,vptPracticeLoop.thisIndex,vptPracticeLoop.ran,trialType,tiles,rows,cols,vptTrialLoop.thisRepN,vptTrialLoop.thisTrialN,vptTrialLoop.thisN,vptTrialLoop.thisIndex,vptTrialLoop.ran,noOfBlocks,TASK_B.thisRepN,TASK_B.thisTrialN,TASK_B.thisN,TASK_B.thisIndex,TASK_B.ran,veriStim_resp.keys,veriStim_resp.corr,veriStim_resp.rt,verificationPracLoop.thisRepN,verificationPracLoop.thisTrialN,verificationPracLoop.thisN,verificationPracLoop.thisIndex,verificationPracLoop.ran,mult_problem,mult_answer,mult_type,error_distance,interferenceScore,problemType,interferenceLevel,problemSize,img_leftButton,img_rightButton,veriLoop.thisRepN,veriLoop.thisTrialN,veriLoop.thisN,veriLoop.thisIndex,veriLoop.ran,veriBlock.thisRepN,veriBlock.thisTrialN,veriBlock.thisN,veriBlock.thisIndex,veriBlock.ran,verificationFiles,end_resp.keys,end_resp.rt
"[1182,551]",414654074748,CAB,19/04/1999,001,2023-09-28_13h01.53.046,OS3_Mult_verification,2022.2.4,Win32,15.00060002,,,,,,,,,,,,,,,,,,,,,,,,,,,,,,,,,,,,,,,,,,,,,,,,,,,,,,,,,,,,,,,,,,,,,,,,,,,,,,,,,,,,,,,,,,,,,,,,,,,,,,,,,,,,,,,,,,,,,,,,,,,,,,,,,,,,,,,,,,,,,,,,,,,,,,,,,,,,,,,,,,,,,,,,,,,,,,
,414654074748,CAB,19/04/1999,001,2023-09-28_13h01.53.046,OS3_Mult_verification,2022.2.4,Win32,15.00060002,,,,,,,,,,,,,,,,,,,,,,,,,,,,,,,,,,,,,,,,,,,,,,,,,,,,,,,,,,,,,,,,,,,,,,,,,,,,,,,,,,,,,,,,,,,,,,,,,,,,,,,,,,,,,,,,,,,,,,,,,,,,,,,,,,,,,,,,,,,,,,,,,,,,,,,,,,,,,,,,,,,,,,,,,,,,,,
,414654074748,CAB,19/04/1999,001,2023-09-28_13h01.53.046,OS3_Mult_verification,2022.2.4,Win32,15.00060002,space,4.0049,,,,,,,,,,,,,,,,,,,,,,,,,,,,,,,,,,,,,,,,,,,,,,,,,,,,,,,,,,,,,,,,,,,,,,,,,,,,,,,,,,,,,,,,,,,,,,,,,,,,,,,,,,,,,,,,,,,,,,,,,,,,,,,,,,,,,,,,,,,,,,,,,,,,,,,,,,,,,,,,,,,,,,,,,,,,
,414654074748,CAB,19/04/1999,001,2023-09-28_13h01.53.046,OS3_Mult_verification,2022.2.4,Win32,15.00060002,,,35,4.3827,1,"[""3"",""5"",""return""]","[2.4062999999970316,2.585799999997022,4.224899999991067]",0,0,0,18,1,35,,,,,,,,,,,,,,,,,,,,,,,,,,,,,,,,,,,,,,,,,,,,,,,,,,,,,,,,,,,,,,,,,,,,,,,,,,,,,,,,,,,,,,,,,,,,,,,,,,,,,,,,,,,,,,,,,,,,,,,,,,,,,,,,,,,,,,,,,,,,,,,,,,,,,,,,,,,,,,,,,
,414654074748,CAB,19/04/1999,001,2023-09-28_13h01.53.046,OS3_Mult_verification,2022.2.4,Win32,15.00060002,,,18,1.8362,1,"[""1"",""8"",""return""]","[0.9739999999999895,1.4122000000029828,1.6691000000089389]",0,1,1,9,1,18,,,,,,,,,,,,,,,,,,,,,,,,,,,,,,,,,,,,,,,,,,,,,,,,,,,,,,,,,,,,,,,,,,,,,,,,,,,,,,,,,,,,,,,,,,,,,,,,,,,,,,,,,,,,,,,,,,,,,,,,,,,,,,,,,,,,,,,,,,,,,,,,,,,,,,,,,,,,,,,,,
,414654074748,CAB,19/04/1999,001,2023-09-28_13h01.53.046,OS3_Mult_verification,2022.2.4,Win32,15.00060002,,,16,1.6516,1,"[""1"",""6"",""return""]","[0.7941000000089531,1.1594000000059594,1.5030000000000001]",0,2,2,8,1,16,,,,,,,,,,,,,,,,,,,,,,,,,,,,,,,,,,,,,,,,,,,,,,,,,,,,,,,,,,,,,,,,,,,,,,,,,,,,,,,,,,,,,,,,,,,,,,,,,,,,,,,,,,,,,,,,,,,,,,,,,,,,,,,,,,,,,,,,,,,,,,,,,,,,,,,,,,,,,,,,,
,414654074748,CAB,19/04/1999,001,2023-09-28_13h01.53.046,OS3_Mult_verification,2022.2.4,Win32,15.00060002,,,81,2.1047,1,"[""8"",""1"",""return""]","[1.1475999999940427,1.4794000000059526,1.9302000000029835]",0,3,3,30,1,81,,,,,,,,,,,,,,,,,,,,,,,,,,,,,,,,,,,,,,,,,,,,,,,,,,,,,,,,,,,,,,,,,,,,,,,,,,,,,,,,,,,,,,,,,,,,,,,,,,,,,,,,,,,,,,,,,,,,,,,,,,,,,,,,,,,,,,,,,,,,,,,,,,,,,,,,,,,,,,,,,
,414654074748,CAB,19/04/1999,001,2023-09-28_13h01.53.046,OS3_Mult_verification,2022.2.4,Win32,15.00060002,,,8,1.9144,1,"[""8"",""return""]","[1.3998999999910495,1.7532999999970116]",0,4,4,2,1,8,,,,,,,,,,,,,,,,,,,,,,,,,,,,,,,,,,,,,,,,,,,,,,,,,,,,,,,,,,,,,,,,,,,,,,,,,,,,,,,,,,,,,,,,,,,,,,,,,,,,,,,,,,,,,,,,,,,,,,,,,,,,,,,,,,,,,,,,,,,,,,,,,,,,,,,,,,,,,,,,,
,414654074748,CAB,19/04/1999,001,2023-09-28_13h01.53.046,OS3_Mult_verification,2022.2.4,Win32,15.00060002,,,20,1.6375,1,"[""2"",""0"",""return""]","[0.8747000000029885,1.2075000000000102,1.4852999999970251]",0,5,5,10,1,20,,,,,,,,,,,,,,,,,,,,,,,,,,,,,,,,,,,,,,,,,,,,,,,,,,,,,,,,,,,,,,,,,,,,,,,,,,,,,,,,,,,,,,,,,,,,,,,,,,,,,,,,,,,,,,,,,,,,,,,,,,,,,,,,,,,,,,,,,,,,,,,,,,,,,,,,,,,,,,,,,
,414654074748,CAB,19/04/1999,001,2023-09-28_13h01.53.046,OS3_Mult_verification,2022.2.4,Win32,15.00060002,,,24,1.6994,1,"[""2"",""4"",""return""]","[0.8319999999999936,1.0909000000059592,1.5290999999940311]",0,6,6,12,1,24,,,,,,,,,,,,,,,,,,,,,,,,,,,,,,,,,,,,,,,,,,,,,,,,,,,,,,,,,,,,,,,,,,,,,,,,,,,,,,,,,,,,,,,,,,,,,,,,,,,,,,,,,,,,,,,,,,,,,,,,,,,,,,,,,,,,,,,,,,,,,,,,,,,,,,,,,,,,,,,,,
,414654074748,CAB,19/04/1999,001,2023-09-28_13h01.53.046,OS3_Mult_verification,2022.2.4,Win32,15.00060002,,,72,2.0014,1,"[""7"",""2"",""return""]","[1.0366999999880875,1.3961999999880845,1.828000000000003]",0,7,7,29,1,72,,,,,,,,,,,,,,,,,,,,,,,,,,,,,,,,,,,,,,,,,,,,,,,,,,,,,,,,,,,,,,,,,,,,,,,,,,,,,,,,,,,,,,,,,,,,,,,,,,,,,,,,,,,,,,,,,,,,,,,,,,,,,,,,,,,,,,,,,,,,,,,,,,,,,,,,,,,,,,,,,
,414654074748,CAB,19/04/1999,001,2023-09-28_13h01.53.046,OS3_Mult_verification,2022.2.4,Win32,15.00060002,,,4,2.9611,1,"[""3"",""backspace"",""4"",""return""]","[0.78630000001192,2.3584999999999923,2.534700000002985,2.8006000000089415]",0,8,8,0,1,4,,,,,,,,,,,,,,,,,,,,,,,,,,,,,,,,,,,,,,,,,,,,,,,,,,,,,,,,,,,,,,,,,,,,,,,,,,,,,,,,,,,,,,,,,,,,,,,,,,,,,,,,,,,,,,,,,,,,,,,,,,,,,,,,,,,,,,,,,,,,,,,,,,,,,,,,,,,,,,,,,
,414654074748,CAB,19/04/1999,001,2023-09-28_13h01.53.046,OS3_Mult_verification,2022.2.4,Win32,15.00060002,,,40,1.8946,1,"[""4"",""0"",""return""]","[1.1877000000029767,1.3674000000059578,1.7254000000059477]",0,9,9,20,1,40,,,,,,,,,,,,,,,,,,,,,,,,,,,,,,,,,,,,,,,,,,,,,,,,,,,,,,,,,,,,,,,,,,,,,,,,,,,,,,,,,,,,,,,,,,,,,,,,,,,,,,,,,,,,,,,,,,,,,,,,,,,,,,,,,,,,,,,,,,,,,,,,,,,,,,,,,,,,,,,,,
,414654074748,CAB,19/04/1999,001,2023-09-28_13h01.53.046,OS3_Mult_verification,2022.2.4,Win32,15.00060002,,,56,1.6052,1,"[""5"",""6"",""return""]","[1.0796999999880796,1.2573999999910512,1.4328999999910508]",0,10,10,26,1,56,,,,,,,,,,,,,,,,,,,,,,,,,,,,,,,,,,,,,,,,,,,,,,,,,,,,,,,,,,,,,,,,,,,,,,,,,,,,,,,,,,,,,,,,,,,,,,,,,,,,,,,,,,,,,,,,,,,,,,,,,,,,,,,,,,,,,,,,,,,,,,,,,,,,,,,,,,,,,,,,,
,414654074748,CAB,19/04/1999,001,2023-09-28_13h01.53.046,OS3_Mult_verification,2022.2.4,Win32,15.00060002,,,32,1.5688,1,"[""3"",""2"",""return""]","[1.0700000000000074,1.2397000000029834,1.4086000000089456]",0,11,11,17,1,32,,,,,,,,,,,,,,,,,,,,,,,,,,,,,,,,,,,,,,,,,,,,,,,,,,,,,,,,,,,,,,,,,,,,,,,,,,,,,,,,,,,,,,,,,,,,,,,,,,,,,,,,,,,,,,,,,,,,,,,,,,,,,,,,,,,,,,,,,,,,,,,,,,,,,,,,,,,,,,,,,
,414654074748,CAB,19/04/1999,001,2023-09-28_13h01.53.046,OS3_Mult_verification,2022.2.4,Win32,15.00060002,,,12,1.4405,1,"[""1"",""2"",""return""]","[0.7987999999970157,0.9838999999910527,1.2754999999999939]",0,12,12,5,1,12,,,,,,,,,,,,,,,,,,,,,,,,,,,,,,,,,,,,,,,,,,,,,,,,,,,,,,,,,,,,,,,,,,,,,,,,,,,,,,,,,,,,,,,,,,,,,,,,,,,,,,,,,,,,,,,,,,,,,,,,,,,,,,,,,,,,,,,,,,,,,,,,,,,,,,,,,,,,,,,,,
,414654074748,CAB,19/04/1999,001,2023-09-28_13h01.53.046,OS3_Mult_verification,2022.2.4,Win32,15.00060002,,,45,1.6104,1,"[""4"",""5"",""return""]","[1.1022000000029806,1.1927000000029864,1.449900000005968]",0,13,13,22,1,45,,,,,,,,,,,,,,,,,,,,,,,,,,,,,,,,,,,,,,,,,,,,,,,,,,,,,,,,,,,,,,,,,,,,,,,,,,,,,,,,,,,,,,,,,,,,,,,,,,,,,,,,,,,,,,,,,,,,,,,,,,,,,,,,,,,,,,,,,,,,,,,,,,,,,,,,,,,,,,,,,
,414654074748,CAB,19/04/1999,001,2023-09-28_13h01.53.046,OS3_Mult_verification,2022.2.4,Win32,15.00060002,,,21,1.3742,1,"[""2"",""1"",""return""]","[0.8667999999970135,1.044599999994034,1.2152999999970149]",0,14,14,11,1,21,,,,,,,,,,,,,,,,,,,,,,,,,,,,,,,,,,,,,,,,,,,,,,,,,,,,,,,,,,,,,,,,,,,,,,,,,,,,,,,,,,,,,,,,,,,,,,,,,,,,,,,,,,,,,,,,,,,,,,,,,,,,,,,,,,,,,,,,,,,,,,,,,,,,,,,,,,,,,,,,,
,414654074748,CAB,19/04/1999,001,2023-09-28_13h01.53.046,OS3_Mult_verification,2022.2.4,Win32,15.00060002,,,30,1.6494,1,"[""3"",""0"",""return""]","[0.9776000000089482,1.145200000002987,1.4784999999999968]",0,15,15,16,1,30,,,,,,,,,,,,,,,,,,,,,,,,,,,,,,,,,,,,,,,,,,,,,,,,,,,,,,,,,,,,,,,,,,,,,,,,,,,,,,,,,,,,,,,,,,,,,,,,,,,,,,,,,,,,,,,,,,,,,,,,,,,,,,,,,,,,,,,,,,,,,,,,,,,,,,,,,,,,,,,,,
,414654074748,CAB,19/04/1999,001,2023-09-28_13h01.53.046,OS3_Mult_verification,2022.2.4,Win32,15.00060002,,,48,2.0757,1,"[""4"",""8"",""return""]","[1.4887999999970134,1.6523999999910615,1.9159999999999968]",0,16,16,23,1,48,,,,,,,,,,,,,,,,,,,,,,,,,,,,,,,,,,,,,,,,,,,,,,,,,,,,,,,,,,,,,,,,,,,,,,,,,,,,,,,,,,,,,,,,,,,,,,,,,,,,,,,,,,,,,,,,,,,,,,,,,,,,,,,,,,,,,,,,,,,,,,,,,,,,,,,,,,,,,,,,,
,414654074748,CAB,19/04/1999,001,2023-09-28_13h01.53.046,OS3_Mult_verification,2022.2.4,Win32,15.00060002,,,28,1.5917,1,"[""2"",""8"",""return""]","[1.0791999999880773,1.1672999999970273,1.4370999999940466]",0,17,17,15,1,28,,,,,,,,,,,,,,,,,,,,,,,,,,,,,,,,,,,,,,,,,,,,,,,,,,,,,,,,,,,,,,,,,,,,,,,,,,,,,,,,,,,,,,,,,,,,,,,,,,,,,,,,,,,,,,,,,,,,,,,,,,,,,,,,,,,,,,,,,,,,,,,,,,,,,,,,,,,,,,,,,
,414654074748,CAB,19/04/1999,001,2023-09-28_13h01.53.046,OS3_Mult_verification,2022.2.4,Win32,15.00060002,,,25,1.5893,1,"[""2"",""5"",""return""]","[0.973799999997027,1.2399000000059601,1.4195000000000135]",0,18,18,13,1,25,,,,,,,,,,,,,,,,,,,,,,,,,,,,,,,,,,,,,,,,,,,,,,,,,,,,,,,,,,,,,,,,,,,,,,,,,,,,,,,,,,,,,,,,,,,,,,,,,,,,,,,,,,,,,,,,,,,,,,,,,,,,,,,,,,,,,,,,,,,,,,,,,,,,,,,,,,,,,,,,,
,414654074748,CAB,19/04/1999,001,2023-09-28_13h01.53.046,OS3_Mult_verification,2022.2.4,Win32,15.00060002,,,36,2.5492,1,"[""3"",""6"",""return""]","[1.9284999999999854,2.0953999999910593,2.3914999999999793]",0,19,19,19,1,36,,,,,,,,,,,,,,,,,,,,,,,,,,,,,,,,,,,,,,,,,,,,,,,,,,,,,,,,,,,,,,,,,,,,,,,,,,,,,,,,,,,,,,,,,,,,,,,,,,,,,,,,,,,,,,,,,,,,,,,,,,,,,,,,,,,,,,,,,,,,,,,,,,,,,,,,,,,,,,,,,
,414654074748,CAB,19/04/1999,001,2023-09-28_13h01.53.046,OS3_Mult_verification,2022.2.4,Win32,15.00060002,,,14,3.0746,1,"[""1"",""4"",""return""]","[1.07650000000001,1.4362000000029695,2.9119000000059714]",0,20,20,6,1,14,,,,,,,,,,,,,,,,,,,,,,,,,,,,,,,,,,,,,,,,,,,,,,,,,,,,,,,,,,,,,,,,,,,,,,,,,,,,,,,,,,,,,,,,,,,,,,,,,,,,,,,,,,,,,,,,,,,,,,,,,,,,,,,,,,,,,,,,,,,,,,,,,,,,,,,,,,,,,,,,,
,414654074748,CAB,19/04/1999,001,2023-09-28_13h01.53.046,OS3_Mult_verification,2022.2.4,Win32,15.00060002,,,64,2.3467,1,"[""6"",""4"",""return""]","[1.4617999999970266,2.0030000000000143,2.195299999997019]",0,21,21,28,1,64,,,,,,,,,,,,,,,,,,,,,,,,,,,,,,,,,,,,,,,,,,,,,,,,,,,,,,,,,,,,,,,,,,,,,,,,,,,,,,,,,,,,,,,,,,,,,,,,,,,,,,,,,,,,,,,,,,,,,,,,,,,,,,,,,,,,,,,,,,,,,,,,,,,,,,,,,,,,,,,,,
,414654074748,CAB,19/04/1999,001,2023-09-28_13h01.53.046,OS3_Mult_verification,2022.2.4,Win32,15.00060002,,,27,1.7317,1,"[""2"",""7"",""return""]","[1.1195000000000164,1.3825000000000216,1.5572000000029789]",0,22,22,14,1,27,,,,,,,,,,,,,,,,,,,,,,,,,,,,,,,,,,,,,,,,,,,,,,,,,,,,,,,,,,,,,,,,,,,,,,,,,,,,,,,,,,,,,,,,,,,,,,,,,,,,,,,,,,,,,,,,,,,,,,,,,,,,,,,,,,,,,,,,,,,,,,,,,,,,,,,,,,,,,,,,,
,414654074748,CAB,19/04/1999,001,2023-09-28_13h01.53.046,OS3_Mult_verification,2022.2.4,Win32,15.00060002,,,6,1.2014,1,"[""6"",""return""]","[0.8705000000000211,1.0315999999940573]",0,23,23,1,1,6,,,,,,,,,,,,,,,,,,,,,,,,,,,,,,,,,,,,,,,,,,,,,,,,,,,,,,,,,,,,,,,,,,,,,,,,,,,,,,,,,,,,,,,,,,,,,,,,,,,,,,,,,,,,,,,,,,,,,,,,,,,,,,,,,,,,,,,,,,,,,,,,,,,,,,,,,,,,,,,,,
,414654074748,CAB,19/04/1999,001,2023-09-28_13h01.53.046,OS3_Mult_verification,2022.2.4,Win32,15.00060002,,,10,2.4659,1,"[""2"",""backspace"",""1"",""0"",""return""]","[0.6262000000029673,1.325600000008933,1.8642000000029668,2.0420000000000016,2.2996000000089225]",0,24,24,4,1,10,,,,,,,,,,,,,,,,,,,,,,,,,,,,,,,,,,,,,,,,,,,,,,,,,,,,,,,,,,,,,,,,,,,,,,,,,,,,,,,,,,,,,,,,,,,,,,,,,,,,,,,,,,,,,,,,,,,,,,,,,,,,,,,,,,,,,,,,,,,,,,,,,,,,,,,,,,,,,,,,,
,414654074748,CAB,19/04/1999,001,2023-09-28_13h01.53.046,OS3_Mult_verification,2022.2.4,Win32,15.00060002,,,54,1.7065,1,"[""5"",""4"",""return""]","[1.1293000000119093,1.3098000000119043,1.5504000000059648]",0,25,25,25,1,54,,,,,,,,,,,,,,,,,,,,,,,,,,,,,,,,,,,,,,,,,,,,,,,,,,,,,,,,,,,,,,,,,,,,,,,,,,,,,,,,,,,,,,,,,,,,,,,,,,,,,,,,,,,,,,,,,,,,,,,,,,,,,,,,,,,,,,,,,,,,,,,,,,,,,,,,,,,,,,,,,
,414654074748,CAB,19/04/1999,001,2023-09-28_13h01.53.046,OS3_Mult_verification,2022.2.4,Win32,15.00060002,,,49,4.2517,1,"[""3"",""backspace"",""4"",""0"",""backspace"",""9"",""return""]","[1.1385000000000218,1.7557999999970377,2.096599999994055,2.706699999988075,3.391899999991068,3.744099999994063,4.097499999999997]",0,26,26,24,1,49,,,,,,,,,,,,,,,,,,,,,,,,,,,,,,,,,,,,,,,,,,,,,,,,,,,,,,,,,,,,,,,,,,,,,,,,,,,,,,,,,,,,,,,,,,,,,,,,,,,,,,,,,,,,,,,,,,,,,,,,,,,,,,,,,,,,,,,,,,,,,,,,,,,,,,,,,,,,,,,,,
,414654074748,CAB,19/04/1999,001,2023-09-28_13h01.53.046,OS3_Mult_verification,2022.2.4,Win32,15.00060002,,,15,1.6819,1,"[""1"",""5"",""return""]","[0.9746000000089339,1.1517000000029896,1.5143000000119287]",0,27,27,7,1,15,,,,,,,,,,,,,,,,,,,,,,,,,,,,,,,,,,,,,,,,,,,,,,,,,,,,,,,,,,,,,,,,,,,,,,,,,,,,,,,,,,,,,,,,,,,,,,,,,,,,,,,,,,,,,,,,,,,,,,,,,,,,,,,,,,,,,,,,,,,,,,,,,,,,,,,,,,,,,,,,,
,414654074748,CAB,19/04/1999,001,2023-09-28_13h01.53.046,OS3_Mult_verification,2022.2.4,Win32,15.00060002,,,63,1.9748,1,"[""6"",""3"",""return""]","[1.1062999999970202,1.6285000000000025,1.796999999999997]",0,28,28,27,1,63,,,,,,,,,,,,,,,,,,,,,,,,,,,,,,,,,,,,,,,,,,,,,,,,,,,,,,,,,,,,,,,,,,,,,,,,,,,,,,,,,,,,,,,,,,,,,,,,,,,,,,,,,,,,,,,,,,,,,,,,,,,,,,,,,,,,,,,,,,,,,,,,,,,,,,,,,,,,,,,,,
,414654074748,CAB,19/04/1999,001,2023-09-28_13h01.53.046,OS3_Mult_verification,2022.2.4,Win32,15.00060002,,,42,1.7845,1,"[""4"",""2"",""return""]","[1.1679000000059716,1.441400000005956,1.615800000011916]",0,29,29,21,1,42,,,,,,,,,,,,,,,,,,,,,,,,,,,,,,,,,,,,,,,,,,,,,,,,,,,,,,,,,,,,,,,,,,,,,,,,,,,,,,,,,,,,,,,,,,,,,,,,,,,,,,,,,,,,,,,,,,,,,,,,,,,,,,,,,,,,,,,,,,,,,,,,,,,,,,,,,,,,,,,,,
,414654074748,CAB,19/04/1999,001,2023-09-28_13h01.53.046,OS3_Mult_verification,2022.2.4,Win32,15.00060002,,,9,1.3218,1,"[""9"",""return""]","[0.9712999999970293,1.1534000000059734]",0,30,30,3,1,9,,,,,,,,,,,,,,,,,,,,,,,,,,,,,,,,,,,,,,,,,,,,,,,,,,,,,,,,,,,,,,,,,,,,,,,,,,,,,,,,,,,,,,,,,,,,,,,,,,,,,,,,,,,,,,,,,,,,,,,,,,,,,,,,,,,,,,,,,,,,,,,,,,,,,,,,,,,,,,,,,
,414654074748,CAB,19/04/1999,001,2023-09-28_13h01.53.046,OS3_Mult_verification,2022.2.4,Win32,15.00060002,,,48,1.714,1,"[""4"",""8"",""return""]","[1.1257999999970423,1.3876000000089448,1.550100000008939]",1,0,31,23,1,48,,,,,,,,,,,,,,,,,,,,,,,,,,,,,,,,,,,,,,,,,,,,,,,,,,,,,,,,,,,,,,,,,,,,,,,,,,,,,,,,,,,,,,,,,,,,,,,,,,,,,,,,,,,,,,,,,,,,,,,,,,,,,,,,,,,,,,,,,,,,,,,,,,,,,,,,,,,,,,,,,
,414654074748,CAB,19/04/1999,001,2023-09-28_13h01.53.046,OS3_Mult_verification,2022.2.4,Win32,15.00060002,,,14,1.7438,1,"[""1"",""4"",""return""]","[0.804000000000002,1.4162999999970225,1.5837999999970407]",1,1,32,6,1,14,,,,,,,,,,,,,,,,,,,,,,,,,,,,,,,,,,,,,,,,,,,,,,,,,,,,,,,,,,,,,,,,,,,,,,,,,,,,,,,,,,,,,,,,,,,,,,,,,,,,,,,,,,,,,,,,,,,,,,,,,,,,,,,,,,,,,,,,,,,,,,,,,,,,,,,,,,,,,,,,,
,414654074748,CAB,19/04/1999,001,2023-09-28_13h01.53.046,OS3_Mult_verification,2022.2.4,Win32,15.00060002,,,42,1.6669,1,"[""4"",""2"",""return""]","[1.0592000000029884,1.3215999999940493,1.4987999999970043]",1,2,33,21,1,42,,,,,,,,,,,,,,,,,,,,,,,,,,,,,,,,,,,,,,,,,,,,,,,,,,,,,,,,,,,,,,,,,,,,,,,,,,,,,,,,,,,,,,,,,,,,,,,,,,,,,,,,,,,,,,,,,,,,,,,,,,,,,,,,,,,,,,,,,,,,,,,,,,,,,,,,,,,,,,,,,
,414654074748,CAB,19/04/1999,001,2023-09-28_13h01.53.046,OS3_Mult_verification,2022.2.4,Win32,15.00060002,,,64,3.7057,1,"[""6"",""4"",""return""]","[2.7869000000059714,3.2886000000089552,3.5454000000059693]",1,3,34,28,1,64,,,,,,,,,,,,,,,,,,,,,,,,,,,,,,,,,,,,,,,,,,,,,,,,,,,,,,,,,,,,,,,,,,,,,,,,,,,,,,,,,,,,,,,,,,,,,,,,,,,,,,,,,,,,,,,,,,,,,,,,,,,,,,,,,,,,,,,,,,,,,,,,,,,,,,,,,,,,,,,,,
,414654074748,CAB,19/04/1999,001,2023-09-28_13h01.53.046,OS3_Mult_verification,2022.2.4,Win32,15.00060002,,,6,1.5392,1,"[""6"",""return""]","[1.039400000005969,1.3889000000059468]",1,4,35,1,1,6,,,,,,,,,,,,,,,,,,,,,,,,,,,,,,,,,,,,,,,,,,,,,,,,,,,,,,,,,,,,,,,,,,,,,,,,,,,,,,,,,,,,,,,,,,,,,,,,,,,,,,,,,,,,,,,,,,,,,,,,,,,,,,,,,,,,,,,,,,,,,,,,,,,,,,,,,,,,,,,,,
,414654074748,CAB,19/04/1999,001,2023-09-28_13h01.53.046,OS3_Mult_verification,2022.2.4,Win32,15.00060002,,,12,1.3254,1,"[""1"",""2"",""return""]","[0.708500000000015,0.8965999999940379,1.175299999997037]",1,5,36,5,1,12,,,,,,,,,,,,,,,,,,,,,,,,,,,,,,,,,,,,,,,,,,,,,,,,,,,,,,,,,,,,,,,,,,,,,,,,,,,,,,,,,,,,,,,,,,,,,,,,,,,,,,,,,,,,,,,,,,,,,,,,,,,,,,,,,,,,,,,,,,,,,,,,,,,,,,,,,,,,,,,,,
,414654074748,CAB,19/04/1999,001,2023-09-28_13h01.53.046,OS3_Mult_verification,2022.2.4,Win32,15.00060002,,,35,2.2612,1,"[""3"",""5"",""return""]","[1.6696000000089555,1.9303000000119255,2.094400000005976]",1,6,37,18,1,35,,,,,,,,,,,,,,,,,,,,,,,,,,,,,,,,,,,,,,,,,,,,,,,,,,,,,,,,,,,,,,,,,,,,,,,,,,,,,,,,,,,,,,,,,,,,,,,,,,,,,,,,,,,,,,,,,,,,,,,,,,,,,,,,,,,,,,,,,,,,,,,,,,,,,,,,,,,,,,,,,
,414654074748,CAB,19/04/1999,001,2023-09-28_13h01.53.046,OS3_Mult_verification,2022.2.4,Win32,15.00060002,,,56,1.5537,1,"[""5"",""6"",""return""]","[1.0277000000029943,1.2031000000089591,1.381299999997026]",1,7,38,26,1,56,,,,,,,,,,,,,,,,,,,,,,,,,,,,,,,,,,,,,,,,,,,,,,,,,,,,,,,,,,,,,,,,,,,,,,,,,,,,,,,,,,,,,,,,,,,,,,,,,,,,,,,,,,,,,,,,,,,,,,,,,,,,,,,,,,,,,,,,,,,,,,,,,,,,,,,,,,,,,,,,,
,414654074748,CAB,19/04/1999,001,2023-09-28_13h01.53.046,OS3_Mult_verification,2022.2.4,Win32,15.00060002,,,40,1.6526,1,"[""4"",""0"",""return""]","[0.8687000000029741,1.1206000000089205,1.4919999999999902]",1,8,39,20,1,40,,,,,,,,,,,,,,,,,,,,,,,,,,,,,,,,,,,,,,,,,,,,,,,,,,,,,,,,,,,,,,,,,,,,,,,,,,,,,,,,,,,,,,,,,,,,,,,,,,,,,,,,,,,,,,,,,,,,,,,,,,,,,,,,,,,,,,,,,,,,,,,,,,,,,,,,,,,,,,,,,
,414654074748,CAB,19/04/1999,001,2023-09-28_13h01.53.046,OS3_Mult_verification,2022.2.4,Win32,15.00060002,,,16,1.7938,1,"[""1"",""6"",""return""]","[1.0302999999970268,1.3567999999970368,1.622000000000014]",1,9,40,8,1,16,,,,,,,,,,,,,,,,,,,,,,,,,,,,,,,,,,,,,,,,,,,,,,,,,,,,,,,,,,,,,,,,,,,,,,,,,,,,,,,,,,,,,,,,,,,,,,,,,,,,,,,,,,,,,,,,,,,,,,,,,,,,,,,,,,,,,,,,,,,,,,,,,,,,,,,,,,,,,,,,,
,414654074748,CAB,19/04/1999,001,2023-09-28_13h01.53.046,OS3_Mult_verification,2022.2.4,Win32,15.00060002,,,21,1.3713,1,"[""2"",""1"",""return""]","[0.7733999999910566,0.9559999999999889,1.2034999999999911]",1,10,41,11,1,21,,,,,,,,,,,,,,,,,,,,,,,,,,,,,,,,,,,,,,,,,,,,,,,,,,,,,,,,,,,,,,,,,,,,,,,,,,,,,,,,,,,,,,,,,,,,,,,,,,,,,,,,,,,,,,,,,,,,,,,,,,,,,,,,,,,,,,,,,,,,,,,,,,,,,,,,,,,,,,,,,
,414654074748,CAB,19/04/1999,001,2023-09-28_13h01.53.046,OS3_Mult_verification,2022.2.4,Win32,15.00060002,,,27,1.6429,1,"[""2"",""7"",""return""]","[0.8808999999910725,1.2365999999940414,1.4856999999880998]",1,11,42,14,1,27,,,,,,,,,,,,,,,,,,,,,,,,,,,,,,,,,,,,,,,,,,,,,,,,,,,,,,,,,,,,,,,,,,,,,,,,,,,,,,,,,,,,,,,,,,,,,,,,,,,,,,,,,,,,,,,,,,,,,,,,,,,,,,,,,,,,,,,,,,,,,,,,,,,,,,,,,,,,,,,,,
,414654074748,CAB,19/04/1999,001,2023-09-28_13h01.53.046,OS3_Mult_verification,2022.2.4,Win32,15.00060002,,,15,1.3875,1,"[""1"",""5"",""return""]","[0.7857999999970104,1.06159999999403,1.2247999999970034]",1,12,43,7,1,15,,,,,,,,,,,,,,,,,,,,,,,,,,,,,,,,,,,,,,,,,,,,,,,,,,,,,,,,,,,,,,,,,,,,,,,,,,,,,,,,,,,,,,,,,,,,,,,,,,,,,,,,,,,,,,,,,,,,,,,,,,,,,,,,,,,,,,,,,,,,,,,,,,,,,,,,,,,,,,,,,
,414654074748,CAB,19/04/1999,001,2023-09-28_13h01.53.046,OS3_Mult_verification,2022.2.4,Win32,15.00060002,,,25,1.5584,1,"[""2"",""5"",""return""]","[0.8827000000029841,1.145799999997024,1.3964000000059684]",1,13,44,13,1,25,,,,,,,,,,,,,,,,,,,,,,,,,,,,,,,,,,,,,,,,,,,,,,,,,,,,,,,,,,,,,,,,,,,,,,,,,,,,,,,,,,,,,,,,,,,,,,,,,,,,,,,,,,,,,,,,,,,,,,,,,,,,,,,,,,,,,,,,,,,,,,,,,,,,,,,,,,,,,,,,,
,414654074748,CAB,19/04/1999,001,2023-09-28_13h01.53.046,OS3_Mult_verification,2022.2.4,Win32,15.00060002,,,8,1.4063,1,"[""8"",""return""]","[0.9414000000059559,1.2195000000000107]",1,14,45,2,1,8,,,,,,,,,,,,,,,,,,,,,,,,,,,,,,,,,,,,,,,,,,,,,,,,,,,,,,,,,,,,,,,,,,,,,,,,,,,,,,,,,,,,,,,,,,,,,,,,,,,,,,,,,,,,,,,,,,,,,,,,,,,,,,,,,,,,,,,,,,,,,,,,,,,,,,,,,,,,,,,,,
,414654074748,CAB,19/04/1999,001,2023-09-28_13h01.53.046,OS3_Mult_verification,2022.2.4,Win32,15.00060002,,,4,1.2218,1,"[""4"",""return""]","[0.8003999999910718,1.0582999999970184]",1,15,46,0,1,4,,,,,,,,,,,,,,,,,,,,,,,,,,,,,,,,,,,,,,,,,,,,,,,,,,,,,,,,,,,,,,,,,,,,,,,,,,,,,,,,,,,,,,,,,,,,,,,,,,,,,,,,,,,,,,,,,,,,,,,,,,,,,,,,,,,,,,,,,,,,,,,,,,,,,,,,,,,,,,,,,
,414654074748,CAB,19/04/1999,001,2023-09-28_13h01.53.046,OS3_Mult_verification,2022.2.4,Win32,15.00060002,,,9,1.4688,1,"[""9"",""return""]","[1.0483000000119205,1.307900000005958]",1,16,47,3,1,9,,,,,,,,,,,,,,,,,,,,,,,,,,,,,,,,,,,,,,,,,,,,,,,,,,,,,,,,,,,,,,,,,,,,,,,,,,,,,,,,,,,,,,,,,,,,,,,,,,,,,,,,,,,,,,,,,,,,,,,,,,,,,,,,,,,,,,,,,,,,,,,,,,,,,,,,,,,,,,,,,
,414654074748,CAB,19/04/1999,001,2023-09-28_13h01.53.046,OS3_Mult_verification,2022.2.4,Win32,15.00060002,,,20,1.5667,1,"[""2"",""0"",""return""]","[0.7764999999999986,1.143600000008945,1.408900000005957]",1,17,48,10,1,20,,,,,,,,,,,,,,,,,,,,,,,,,,,,,,,,,,,,,,,,,,,,,,,,,,,,,,,,,,,,,,,,,,,,,,,,,,,,,,,,,,,,,,,,,,,,,,,,,,,,,,,,,,,,,,,,,,,,,,,,,,,,,,,,,,,,,,,,,,,,,,,,,,,,,,,,,,,,,,,,,
,414654074748,CAB,19/04/1999,001,2023-09-28_13h01.53.046,OS3_Mult_verification,2022.2.4,Win32,15.00060002,,,54,1.6891,1,"[""5"",""4"",""return""]","[1.1624000000059596,1.3412999999970339,1.5197000000029846]",1,18,49,25,1,54,,,,,,,,,,,,,,,,,,,,,,,,,,,,,,,,,,,,,,,,,,,,,,,,,,,,,,,,,,,,,,,,,,,,,,,,,,,,,,,,,,,,,,,,,,,,,,,,,,,,,,,,,,,,,,,,,,,,,,,,,,,,,,,,,,,,,,,,,,,,,,,,,,,,,,,,,,,,,,,,,
,414654074748,CAB,19/04/1999,001,2023-09-28_13h01.53.046,OS3_Mult_verification,2022.2.4,Win32,15.00060002,,,49,1.7089,1,"[""4"",""9"",""return""]","[1.030200000002992,1.363400000005953,1.5453000000119346]",1,19,50,24,1,49,,,,,,,,,,,,,,,,,,,,,,,,,,,,,,,,,,,,,,,,,,,,,,,,,,,,,,,,,,,,,,,,,,,,,,,,,,,,,,,,,,,,,,,,,,,,,,,,,,,,,,,,,,,,,,,,,,,,,,,,,,,,,,,,,,,,,,,,,,,,,,,,,,,,,,,,,,,,,,,,,
,414654074748,CAB,19/04/1999,001,2023-09-28_13h01.53.046,OS3_Mult_verification,2022.2.4,Win32,15.00060002,,,30,1.5416,1,"[""3"",""0"",""return""]","[0.9009000000059757,1.1730999999940366,1.363599999994051]",1,20,51,16,1,30,,,,,,,,,,,,,,,,,,,,,,,,,,,,,,,,,,,,,,,,,,,,,,,,,,,,,,,,,,,,,,,,,,,,,,,,,,,,,,,,,,,,,,,,,,,,,,,,,,,,,,,,,,,,,,,,,,,,,,,,,,,,,,,,,,,,,,,,,,,,,,,,,,,,,,,,,,,,,,,,,
,414654074748,CAB,19/04/1999,001,2023-09-28_13h01.53.046,OS3_Mult_verification,2022.2.4,Win32,15.00060002,,,24,1.4508,1,"[""2"",""4"",""return""]","[0.8293999999910397,1.097199999988078,1.2879999999999825]",1,21,52,12,1,24,,,,,,,,,,,,,,,,,,,,,,,,,,,,,,,,,,,,,,,,,,,,,,,,,,,,,,,,,,,,,,,,,,,,,,,,,,,,,,,,,,,,,,,,,,,,,,,,,,,,,,,,,,,,,,,,,,,,,,,,,,,,,,,,,,,,,,,,,,,,,,,,,,,,,,,,,,,,,,,,,
,414654074748,CAB,19/04/1999,001,2023-09-28_13h01.53.046,OS3_Mult_verification,2022.2.4,Win32,15.00060002,,,32,1.4728,1,"[""3"",""2"",""return""]","[0.8717000000029884,1.0377000000029852,1.3087000000030002]",1,22,53,17,1,32,,,,,,,,,,,,,,,,,,,,,,,,,,,,,,,,,,,,,,,,,,,,,,,,,,,,,,,,,,,,,,,,,,,,,,,,,,,,,,,,,,,,,,,,,,,,,,,,,,,,,,,,,,,,,,,,,,,,,,,,,,,,,,,,,,,,,,,,,,,,,,,,,,,,,,,,,,,,,,,,,
,414654074748,CAB,19/04/1999,001,2023-09-28_13h01.53.046,OS3_Mult_verification,2022.2.4,Win32,15.00060002,,,10,1.5405,1,"[""1"",""0"",""return""]","[0.6847000000029766,1.1167999999970277,1.3764000000059582]",1,23,54,4,1,10,,,,,,,,,,,,,,,,,,,,,,,,,,,,,,,,,,,,,,,,,,,,,,,,,,,,,,,,,,,,,,,,,,,,,,,,,,,,,,,,,,,,,,,,,,,,,,,,,,,,,,,,,,,,,,,,,,,,,,,,,,,,,,,,,,,,,,,,,,,,,,,,,,,,,,,,,,,,,,,,,
,414654074748,CAB,19/04/1999,001,2023-09-28_13h01.53.046,OS3_Mult_verification,2022.2.4,Win32,15.00060002,,,72,2.1629,1,"[""7"",""2"",""return""]","[1.2327999999970132,1.8274000000059516,1.995400000005958]",1,24,55,29,1,72,,,,,,,,,,,,,,,,,,,,,,,,,,,,,,,,,,,,,,,,,,,,,,,,,,,,,,,,,,,,,,,,,,,,,,,,,,,,,,,,,,,,,,,,,,,,,,,,,,,,,,,,,,,,,,,,,,,,,,,,,,,,,,,,,,,,,,,,,,,,,,,,,,,,,,,,,,,,,,,,,
,414654074748,CAB,19/04/1999,001,2023-09-28_13h01.53.046,OS3_Mult_verification,2022.2.4,Win32,15.00060002,,,36,1.8207,1,"[""3"",""6"",""return""]","[1.2342999999970345,1.4947999999970136,1.663499999999999]",1,25,56,19,1,36,,,,,,,,,,,,,,,,,,,,,,,,,,,,,,,,,,,,,,,,,,,,,,,,,,,,,,,,,,,,,,,,,,,,,,,,,,,,,,,,,,,,,,,,,,,,,,,,,,,,,,,,,,,,,,,,,,,,,,,,,,,,,,,,,,,,,,,,,,,,,,,,,,,,,,,,,,,,,,,,,
,414654074748,CAB,19/04/1999,001,2023-09-28_13h01.53.046,OS3_Mult_verification,2022.2.4,Win32,15.00060002,,,28,1.4664,1,"[""2"",""8"",""return""]","[0.779899999991045,1.128699999988072,1.2988999999910504]",1,26,57,15,1,28,,,,,,,,,,,,,,,,,,,,,,,,,,,,,,,,,,,,,,,,,,,,,,,,,,,,,,,,,,,,,,,,,,,,,,,,,,,,,,,,,,,,,,,,,,,,,,,,,,,,,,,,,,,,,,,,,,,,,,,,,,,,,,,,,,,,,,,,,,,,,,,,,,,,,,,,,,,,,,,,,
,414654074748,CAB,19/04/1999,001,2023-09-28_13h01.53.046,OS3_Mult_verification,2022.2.4,Win32,15.00060002,,,45,1.617,1,"[""4"",""5"",""return""]","[1.1094000000059623,1.1966000000089423,1.455900000005954]",1,27,58,22,1,45,,,,,,,,,,,,,,,,,,,,,,,,,,,,,,,,,,,,,,,,,,,,,,,,,,,,,,,,,,,,,,,,,,,,,,,,,,,,,,,,,,,,,,,,,,,,,,,,,,,,,,,,,,,,,,,,,,,,,,,,,,,,,,,,,,,,,,,,,,,,,,,,,,,,,,,,,,,,,,,,,
,414654074748,CAB,19/04/1999,001,2023-09-28_13h01.53.046,OS3_Mult_verification,2022.2.4,Win32,15.00060002,,,63,2.1568,1,"[""6"",""3"",""return""]","[1.1086999999880618,1.731399999991055,1.9918999999910625]",1,28,59,27,1,63,,,,,,,,,,,,,,,,,,,,,,,,,,,,,,,,,,,,,,,,,,,,,,,,,,,,,,,,,,,,,,,,,,,,,,,,,,,,,,,,,,,,,,,,,,,,,,,,,,,,,,,,,,,,,,,,,,,,,,,,,,,,,,,,,,,,,,,,,,,,,,,,,,,,,,,,,,,,,,,,,
,414654074748,CAB,19/04/1999,001,2023-09-28_13h01.53.046,OS3_Mult_verification,2022.2.4,Win32,15.00060002,,,81,1.6464,1,"[""8"",""1"",""return""]","[1.039299999997013,1.3062999999970089,1.4850999999940484]",1,29,60,30,1,81,,,,,,,,,,,,,,,,,,,,,,,,,,,,,,,,,,,,,,,,,,,,,,,,,,,,,,,,,,,,,,,,,,,,,,,,,,,,,,,,,,,,,,,,,,,,,,,,,,,,,,,,,,,,,,,,,,,,,,,,,,,,,,,,,,,,,,,,,,,,,,,,,,,,,,,,,,,,,,,,,
,414654074748,CAB,19/04/1999,001,2023-09-28_13h01.53.046,OS3_Mult_verification,2022.2.4,Win32,15.00060002,,,18,1.3617,1,"[""1"",""8"",""return""]","[0.6805999999940298,1.1060999999940293,1.1983999999910395]",1,30,61,9,1,18,,,,,,,,,,,,,,,,,,,,,,,,,,,,,,,,,,,,,,,,,,,,,,,,,,,,,,,,,,,,,,,,,,,,,,,,,,,,,,,,,,,,,,,,,,,,,,,,,,,,,,,,,,,,,,,,,,,,,,,,,,,,,,,,,,,,,,,,,,,,,,,,,,,,,,,,,,,,,,,,,
,414654074748,CAB,19/04/1999,001,2023-09-28_13h01.53.046,OS3_Mult_verification,2022.2.4,Win32,15.00060002,,,,,,,,,,,,,,space,18.9659,,,,,,,,,,,,,,,,,,,,,,,,,,,,,,,,,,,,,,,,,,,,,,,,,,,,,,,,,,,,,,,,,,,,,,,,,,,,,,,,,,,,,,,,,,,,,,,,,,,,,,,,,,,,,,,,,,,,,,,,,,,,,,,,,,,,,,,,,,,,,,,,,,,,,,,,,,,,,,,
,414654074748,CAB,19/04/1999,001,2023-09-28_13h01.53.046,OS3_Mult_verification,2022.2.4,Win32,15.00060002,,,,,,,,,,,,,,,,,,,,,,,,,,,,,,,,,,,,,,,,,,,,,,,,,,,,,,,,,,,,,,,,,,,,,,,,,,,,,,,,,,,,,,,,,,,,,,,,,,,,,,,,,,,,,,,,,,,,,,,,,,,,,,,,,,,,,,,,,,,,,,,,,,,,,,,,,,,,,,,,,,,,,,,,,,,,,,
,414654074748,CAB,19/04/1999,001,2023-09-28_13h01.53.046,OS3_Mult_verification,2022.2.4,Win32,15.00060002,,,,,,,,,,,,,,,,space,5.1064,,,,,,,,,,,,,,,,,,,,,,,,,,,,,,,,,,,,,,,,,,,,,,,,,,,,,,,,,,,,,,,,,,,,,,,,,,,,,,,,,,,,,,,,,,,,,,,,,,,,,,,,,,,,,,,,,,,,,,,,,,,,,,,,,,,,,,,,,,,,,,,,,,,,,,,,,,,,,
,414654074748,CAB,19/04/1999,001,2023-09-28_13h01.53.046,OS3_Mult_verification,2022.2.4,Win32,15.00060002,,,,,,,,,,,,,,,,,,7,2.422,1,"[""7"",""return""]","[1.729900000005955,1.990000000000009]",0,0,0,0,1,1 × 7 =,7,,,,,,,,,,,,,,,,,,,,,,,,,,,,,,,,,,,,,,,,,,,,,,,,,,,,,,,,,,,,,,,,,,,,,,,,,,,,,,,,,,,,,,,,,,,,,,,,,,,,,,,,,,,,,,,,,,,,,,,,,,,,,,,,,,,,,,,,,,,,,,,,,
,414654074748,CAB,19/04/1999,001,2023-09-28_13h01.53.046,OS3_Mult_verification,2022.2.4,Win32,15.00060002,,,,,,,,,,,,,,,,,,20,7.2016,1,"[""1"",""backspace"",""2"",""0"",""return""]","[1.551099999994051,3.1359999999999673,6.257000000000005,6.5272999999970125,6.793400000005931]",0,1,1,1,1,2 × 10 =,20,,,,,,,,,,,,,,,,,,,,,,,,,,,,,,,,,,,,,,,,,,,,,,,,,,,,,,,,,,,,,,,,,,,,,,,,,,,,,,,,,,,,,,,,,,,,,,,,,,,,,,,,,,,,,,,,,,,,,,,,,,,,,,,,,,,,,,,,,,,,,,,,,
,414654074748,CAB,19/04/1999,001,2023-09-28_13h01.53.046,OS3_Mult_verification,2022.2.4,Win32,15.00060002,,,,,,,,,,,,,,,,,,22,2.3205,1,"[""2"",""2"",""return""]","[1.5983999999910452,1.7837000000029661,1.8900999999940495]",0,2,2,2,1,2 × 11 =,22,,,,,,,,,,,,,,,,,,,,,,,,,,,,,,,,,,,,,,,,,,,,,,,,,,,,,,,,,,,,,,,,,,,,,,,,,,,,,,,,,,,,,,,,,,,,,,,,,,,,,,,,,,,,,,,,,,,,,,,,,,,,,,,,,,,,,,,,,,,,,,,,,
,414654074748,CAB,19/04/1999,001,2023-09-28_13h01.53.046,OS3_Mult_verification,2022.2.4,Win32,15.00060002,,,,,,,,,,,,,,,,,,,,,,,,,,,,,,,,,,,,,,,,,,,,,,,,,,,,,,,,,,,,,,,,,,,,,,,,,,,,,,,,,,,,,,,,,,,,,,,,,,,,,,,,,,,,,,,,,,,,,,,,,,,,,,,,,,,,,,,,,,,,,,,,,,,,,,,,,,,,,,,,,,,,,,,,,,,,,,
,414654074748,CAB,19/04/1999,001,2023-09-28_13h01.53.046,OS3_Mult_verification,2022.2.4,Win32,15.00060002,,,,,,,,,,,,,,,,,,,,,,,,,,,,,,,,,,,,,,,,,,,,,,,,,,,,,,,,,,,,,,,,,,,,,,,,,,,,,,,,,,,,,,,,,,,,,,,,,,,,,,,,,,,,,,,,,,,,,,,,,,,,,,,,,,,,,,,,,,,,,,,,,,,,,,,,,,,,,,,,,,,,,,,,,,,,,,
,414654074748,CAB,19/04/1999,001,2023-09-28_13h01.53.046,OS3_Mult_verification,2022.2.4,Win32,15.00060002,,,,,,,,,,,,,,,,,,6,2.3307,1,"[""7"",""6"",""return""]","[1.6227000000029648,1.6229999999999905,1.8882000000029393]",,,,,,2 × 3 =,6,0,0,0,0,1,,,,,,,,,,,,,,,,,,,,,,,,,,,,,,,,,,,,,,,,,,,,,,,,,,,,,,,,,,,,,,,,,,,,,,,,,,,,,,,,,,,,,,,,,,,,,,,,,,,,,,,,,,,,,,,,,,,,,,,,,,,,,,,,,,,,,,,,,,,,
,414654074748,CAB,19/04/1999,001,2023-09-28_13h01.53.046,OS3_Mult_verification,2022.2.4,Win32,15.00060002,,,,,,,,,,,,,,,,,,40,2.6671,1,"[""4"",""0"",""return""]","[1.7092999999970289,2.0487999999970725,2.240900000005979]",,,,,,5 × 8 =,40,0,1,1,1,1,,,,,,,,,,,,,,,,,,,,,,,,,,,,,,,,,,,,,,,,,,,,,,,,,,,,,,,,,,,,,,,,,,,,,,,,,,,,,,,,,,,,,,,,,,,,,,,,,,,,,,,,,,,,,,,,,,,,,,,,,,,,,,,,,,,,,,,,,,,,
,414654074748,CAB,19/04/1999,001,2023-09-28_13h01.53.046,OS3_Mult_verification,2022.2.4,Win32,15.00060002,,,,,,,,,,,,,,,,,,12,2.1684,1,"[""1"",""2"",""return""]","[1.287600000008922,1.4562000000029798,1.7210000000000036]",,,,,,3 × 4 =,12,0,2,2,2,1,,,,,,,,,,,,,,,,,,,,,,,,,,,,,,,,,,,,,,,,,,,,,,,,,,,,,,,,,,,,,,,,,,,,,,,,,,,,,,,,,,,,,,,,,,,,,,,,,,,,,,,,,,,,,,,,,,,,,,,,,,,,,,,,,,,,,,,,,,,,
,414654074748,CAB,19/04/1999,001,2023-09-28_13h01.53.046,OS3_Mult_verification,2022.2.4,Win32,15.00060002,,,,,,,,,,,,,,,,,,15,2.0009,1,"[""1"",""5"",""return""]","[1.0049999999999955,1.3690999999940345,1.5540999999940368]",,,,,,5 × 3 =,15,0,3,3,3,1,,,,,,,,,,,,,,,,,,,,,,,,,,,,,,,,,,,,,,,,,,,,,,,,,,,,,,,,,,,,,,,,,,,,,,,,,,,,,,,,,,,,,,,,,,,,,,,,,,,,,,,,,,,,,,,,,,,,,,,,,,,,,,,,,,,,,,,,,,,,
,414654074748,CAB,19/04/1999,001,2023-09-28_13h01.53.046,OS3_Mult_verification,2022.2.4,Win32,15.00060002,,,,,,,,,,,,,,,,,,8,2.0381,1,"[""8"",""return""]","[1.378400000005911,1.5462000000029548]",,,,,,2 × 4 =,8,0,4,4,4,1,,,,,,,,,,,,,,,,,,,,,,,,,,,,,,,,,,,,,,,,,,,,,,,,,,,,,,,,,,,,,,,,,,,,,,,,,,,,,,,,,,,,,,,,,,,,,,,,,,,,,,,,,,,,,,,,,,,,,,,,,,,,,,,,,,,,,,,,,,,,
,414654074748,CAB,19/04/1999,001,2023-09-28_13h01.53.046,OS3_Mult_verification,2022.2.4,Win32,15.00060002,,,,,,,,,,,,,,,,,,4,1.6997,1,"[""4"",""return""]","[1.0749000000059823,1.2457000000029552]",,,,,,2 × 2 =,4,0,5,5,5,1,,,,,,,,,,,,,,,,,,,,,,,,,,,,,,,,,,,,,,,,,,,,,,,,,,,,,,,,,,,,,,,,,,,,,,,,,,,,,,,,,,,,,,,,,,,,,,,,,,,,,,,,,,,,,,,,,,,,,,,,,,,,,,,,,,,,,,,,,,,,
,414654074748,CAB,19/04/1999,001,2023-09-28_13h01.53.046,OS3_Mult_verification,2022.2.4,Win32,15.00060002,,,,,,,,,,,,,,,,,,20,2.4066,1,"[""2"",""0"",""return""]","[1.6129999999999995,1.697999999999979,1.9632000000029848]",,,,,,4 × 5 =,20,0,6,6,6,1,,,,,,,,,,,,,,,,,,,,,,,,,,,,,,,,,,,,,,,,,,,,,,,,,,,,,,,,,,,,,,,,,,,,,,,,,,,,,,,,,,,,,,,,,,,,,,,,,,,,,,,,,,,,,,,,,,,,,,,,,,,,,,,,,,,,,,,,,,,,
,414654074748,CAB,19/04/1999,001,2023-09-28_13h01.53.046,OS3_Mult_verification,2022.2.4,Win32,15.00060002,,,,,,,,,,,,,,,,,,9,1.9231,1,"[""9"",""return""]","[1.286299999997027,1.4822000000029902]",,,,,,3 × 3 =,9,0,7,7,7,1,,,,,,,,,,,,,,,,,,,,,,,,,,,,,,,,,,,,,,,,,,,,,,,,,,,,,,,,,,,,,,,,,,,,,,,,,,,,,,,,,,,,,,,,,,,,,,,,,,,,,,,,,,,,,,,,,,,,,,,,,,,,,,,,,,,,,,,,,,,,
,414654074748,CAB,19/04/1999,001,2023-09-28_13h01.53.046,OS3_Mult_verification,2022.2.4,Win32,15.00060002,,,,,,,,,,,,,,,,,,10,2.3533,1,"[""1"",""0"",""return""]","[1.2782000000029825,1.7236000000089575,1.9101000000089812]",,,,,,5 × 2 =,10,0,8,8,8,1,,,,,,,,,,,,,,,,,,,,,,,,,,,,,,,,,,,,,,,,,,,,,,,,,,,,,,,,,,,,,,,,,,,,,,,,,,,,,,,,,,,,,,,,,,,,,,,,,,,,,,,,,,,,,,,,,,,,,,,,,,,,,,,,,,,,,,,,,,,,
,414654074748,CAB,19/04/1999,001,2023-09-28_13h01.53.046,OS3_Mult_verification,2022.2.4,Win32,15.00060002,,,,,,,,,,,,,,,,,,16,5.7871,1,"[""1"",""6"",""return""]","[1.572499999999991,5.165999999999997,5.338099999994029]",,,,,,4 × 4 =,16,0,9,9,9,1,,,,,,,,,,,,,,,,,,,,,,,,,,,,,,,,,,,,,,,,,,,,,,,,,,,,,,,,,,,,,,,,,,,,,,,,,,,,,,,,,,,,,,,,,,,,,,,,,,,,,,,,,,,,,,,,,,,,,,,,,,,,,,,,,,,,,,,,,,,,
,414654074748,CAB,19/04/1999,001,2023-09-28_13h01.53.046,OS3_Mult_verification,2022.2.4,Win32,15.00060002,,,,,,,,,,,,,,,,,,24,2.8663,1,"[""2"",""4"",""return""]","[1.9853000000119323,2.2598000000119214,2.439800000011928]",,,,,,8 × 3 =,24,0,10,10,10,1,,,,,,,,,,,,,,,,,,,,,,,,,,,,,,,,,,,,,,,,,,,,,,,,,,,,,,,,,,,,,,,,,,,,,,,,,,,,,,,,,,,,,,,,,,,,,,,,,,,,,,,,,,,,,,,,,,,,,,,,,,,,,,,,,,,,,,,,,,,,
,414654074748,CAB,19/04/1999,001,2023-09-28_13h01.53.046,OS3_Mult_verification,2022.2.4,Win32,15.00060002,,,,,,,,,,,,,,,,,,30,2.2709,1,"[""3"",""9"",""0"",""return""]","[1.3732999999970161,1.742999999999995,1.7432999999970207,1.8311000000089734]",,,,,,6 × 5 =,30,0,11,11,11,1,,,,,,,,,,,,,,,,,,,,,,,,,,,,,,,,,,,,,,,,,,,,,,,,,,,,,,,,,,,,,,,,,,,,,,,,,,,,,,,,,,,,,,,,,,,,,,,,,,,,,,,,,,,,,,,,,,,,,,,,,,,,,,,,,,,,,,,,,,,,
,414654074748,CAB,19/04/1999,001,2023-09-28_13h01.53.046,OS3_Mult_verification,2022.2.4,Win32,15.00060002,,,,,,,,,,,,,,,,,,14,2.4485,1,"[""1"",""4"",""return""]","[1.5287999999970339,1.8540000000000418,2.0225000000000364]",,,,,,7 × 2 =,14,0,12,12,12,1,,,,,,,,,,,,,,,,,,,,,,,,,,,,,,,,,,,,,,,,,,,,,,,,,,,,,,,,,,,,,,,,,,,,,,,,,,,,,,,,,,,,,,,,,,,,,,,,,,,,,,,,,,,,,,,,,,,,,,,,,,,,,,,,,,,,,,,,,,,,
,414654074748,CAB,19/04/1999,001,2023-09-28_13h01.53.046,OS3_Mult_verification,2022.2.4,Win32,15.00060002,,,,,,,,,,,,,,,,,,27,3.3205,1,"[""2"",""7"",""return""]","[1.802500000000009,2.6138999999910766,2.897700000002999]",,,,,,3 × 9 =,27,0,13,13,13,1,,,,,,,,,,,,,,,,,,,,,,,,,,,,,,,,,,,,,,,,,,,,,,,,,,,,,,,,,,,,,,,,,,,,,,,,,,,,,,,,,,,,,,,,,,,,,,,,,,,,,,,,,,,,,,,,,,,,,,,,,,,,,,,,,,,,,,,,,,,,
,414654074748,CAB,19/04/1999,001,2023-09-28_13h01.53.046,OS3_Mult_verification,2022.2.4,Win32,15.00060002,,,,,,,,,,,,,,,,,,16,2.269,1,"[""1"",""6"",""return""]","[1.2975000000000136,1.7392000000029952,1.830400000005966]",,,,,,2 × 8 =,16,0,14,14,14,1,,,,,,,,,,,,,,,,,,,,,,,,,,,,,,,,,,,,,,,,,,,,,,,,,,,,,,,,,,,,,,,,,,,,,,,,,,,,,,,,,,,,,,,,,,,,,,,,,,,,,,,,,,,,,,,,,,,,,,,,,,,,,,,,,,,,,,,,,,,,
,414654074748,CAB,19/04/1999,001,2023-09-28_13h01.53.046,OS3_Mult_verification,2022.2.4,Win32,15.00060002,,,,,,,,,,,,,,,,,,24,4.8043,1,"[""2"",""4"",""return""]","[3.61189999999101,3.8708999999910247,4.294399999991015]",,,,,,4 × 6 =,24,0,15,15,15,1,,,,,,,,,,,,,,,,,,,,,,,,,,,,,,,,,,,,,,,,,,,,,,,,,,,,,,,,,,,,,,,,,,,,,,,,,,,,,,,,,,,,,,,,,,,,,,,,,,,,,,,,,,,,,,,,,,,,,,,,,,,,,,,,,,,,,,,,,,,,
,414654074748,CAB,19/04/1999,001,2023-09-28_13h01.53.046,OS3_Mult_verification,2022.2.4,Win32,15.00060002,,,,,,,,,,,,,,,,,,21,3.1217,1,"[""2"",""1"",""return""]","[1.782400000005964,1.9637999999970361,2.687000000000012]",,,,,,7 × 3 =,21,0,16,16,16,1,,,,,,,,,,,,,,,,,,,,,,,,,,,,,,,,,,,,,,,,,,,,,,,,,,,,,,,,,,,,,,,,,,,,,,,,,,,,,,,,,,,,,,,,,,,,,,,,,,,,,,,,,,,,,,,,,,,,,,,,,,,,,,,,,,,,,,,,,,,,
,414654074748,CAB,19/04/1999,001,2023-09-28_13h01.53.046,OS3_Mult_verification,2022.2.4,Win32,15.00060002,,,,,,,,,,,,,,,,,,27,3.3329,1,"[""2"",""7"",""return""]","[2.051099999994051,2.5627999999970257,2.903299999996989]",,,,,,9 × 3 =,27,0,17,17,17,1,,,,,,,,,,,,,,,,,,,,,,,,,,,,,,,,,,,,,,,,,,,,,,,,,,,,,,,,,,,,,,,,,,,,,,,,,,,,,,,,,,,,,,,,,,,,,,,,,,,,,,,,,,,,,,,,,,,,,,,,,,,,,,,,,,,,,,,,,,,,
,414654074748,CAB,19/04/1999,001,2023-09-28_13h01.53.046,OS3_Mult_verification,2022.2.4,Win32,15.00060002,,,,,,,,,,,,,,,,,,28,7.8425,1,"[""2"",""8"",""return""]","[6.261200000002987,6.878399999991075,7.402399999991076]",,,,,,4 × 7 =,28,0,18,18,18,1,,,,,,,,,,,,,,,,,,,,,,,,,,,,,,,,,,,,,,,,,,,,,,,,,,,,,,,,,,,,,,,,,,,,,,,,,,,,,,,,,,,,,,,,,,,,,,,,,,,,,,,,,,,,,,,,,,,,,,,,,,,,,,,,,,,,,,,,,,,,
,414654074748,CAB,19/04/1999,001,2023-09-28_13h01.53.046,OS3_Mult_verification,2022.2.4,Win32,15.00060002,,,,,,,,,,,,,,,,,,18,2.7654,1,"[""1"",""8"",""return""]","[1.335299999997062,1.697499999999991,2.332200000003013]",,,,,,2 × 9 =,18,0,19,19,19,1,,,,,,,,,,,,,,,,,,,,,,,,,,,,,,,,,,,,,,,,,,,,,,,,,,,,,,,,,,,,,,,,,,,,,,,,,,,,,,,,,,,,,,,,,,,,,,,,,,,,,,,,,,,,,,,,,,,,,,,,,,,,,,,,,,,,,,,,,,,,
,414654074748,CAB,19/04/1999,001,2023-09-28_13h01.53.046,OS3_Mult_verification,2022.2.4,Win32,15.00060002,,,,,,,,,,,,,,,,,,72,8.0253,1,"[""7"",""8"",""backspace"",""2"",""return""]","[5.786400000005926,5.8756000000088875,7.101900000005912,7.357499999999959,7.6172999999969875]",,,,,,9 × 8 =,72,0,20,20,20,1,,,,,,,,,,,,,,,,,,,,,,,,,,,,,,,,,,,,,,,,,,,,,,,,,,,,,,,,,,,,,,,,,,,,,,,,,,,,,,,,,,,,,,,,,,,,,,,,,,,,,,,,,,,,,,,,,,,,,,,,,,,,,,,,,,,,,,,,,,,,
,414654074748,CAB,19/04/1999,001,2023-09-28_13h01.53.046,OS3_Mult_verification,2022.2.4,Win32,15.00060002,,,,,,,,,,,,,,,,,,42,8.8854,1,"[""4"",""2"",""return""]","[7.920500000000004,8.187400000005994,8.447299999997028]",,,,,,7 × 6 =,42,0,21,21,21,1,,,,,,,,,,,,,,,,,,,,,,,,,,,,,,,,,,,,,,,,,,,,,,,,,,,,,,,,,,,,,,,,,,,,,,,,,,,,,,,,,,,,,,,,,,,,,,,,,,,,,,,,,,,,,,,,,,,,,,,,,,,,,,,,,,,,,,,,,,,,
,414654074748,CAB,19/04/1999,001,2023-09-28_13h01.53.046,OS3_Mult_verification,2022.2.4,Win32,15.00060002,,,,,,,,,,,,,,,,,,54,2.799,1,"[""5"",""4"",""return""]","[1.8889000000059468,1.97199999999998,2.3047999999969875]",,,,,,6 × 9 =,54,0,22,22,22,1,,,,,,,,,,,,,,,,,,,,,,,,,,,,,,,,,,,,,,,,,,,,,,,,,,,,,,,,,,,,,,,,,,,,,,,,,,,,,,,,,,,,,,,,,,,,,,,,,,,,,,,,,,,,,,,,,,,,,,,,,,,,,,,,,,,,,,,,,,,,
,414654074748,CAB,19/04/1999,001,2023-09-28_13h01.53.046,OS3_Mult_verification,2022.2.4,Win32,15.00060002,,,,,,,,,,,,,,,,,,45,2.1707,1,"[""4"",""5"",""return""]","[1.310299999997028,1.4836999999880618,1.7448999999910484]",,,,,,9 × 5 =,45,0,23,23,23,1,,,,,,,,,,,,,,,,,,,,,,,,,,,,,,,,,,,,,,,,,,,,,,,,,,,,,,,,,,,,,,,,,,,,,,,,,,,,,,,,,,,,,,,,,,,,,,,,,,,,,,,,,,,,,,,,,,,,,,,,,,,,,,,,,,,,,,,,,,,,
,414654074748,CAB,19/04/1999,001,2023-09-28_13h01.53.046,OS3_Mult_verification,2022.2.4,Win32,15.00060002,,,,,,,,,,,,,,,,,,56,3.6731,1,"[""5"",""6"",""return""]","[2.893800000011879,2.9831000000089034,3.259499999999946]",,,,,,8 × 7 =,56,0,24,24,24,1,,,,,,,,,,,,,,,,,,,,,,,,,,,,,,,,,,,,,,,,,,,,,,,,,,,,,,,,,,,,,,,,,,,,,,,,,,,,,,,,,,,,,,,,,,,,,,,,,,,,,,,,,,,,,,,,,,,,,,,,,,,,,,,,,,,,,,,,,,,,
,414654074748,CAB,19/04/1999,001,2023-09-28_13h01.53.046,OS3_Mult_verification,2022.2.4,Win32,15.00060002,,,,,,,,,,,,,,,,,,36,3.2129,1,"[""3"",""6"",""return""]","[2.1932999999970093,2.3642000000029384,2.718999999999994]",,,,,,6 × 6 =,36,0,25,25,25,1,,,,,,,,,,,,,,,,,,,,,,,,,,,,,,,,,,,,,,,,,,,,,,,,,,,,,,,,,,,,,,,,,,,,,,,,,,,,,,,,,,,,,,,,,,,,,,,,,,,,,,,,,,,,,,,,,,,,,,,,,,,,,,,,,,,,,,,,,,,,
,414654074748,CAB,19/04/1999,001,2023-09-28_13h01.53.046,OS3_Mult_verification,2022.2.4,Win32,15.00060002,,,,,,,,,,,,,,,,,,,0.7852,0,,,,,,,,5 × 7 =,35,0,26,26,26,1,,,,,,,,,,,,,,,,,,,,,,,,,,,,,,,,,,,,,,,,,,,,,,,,,,,,,,,,,,,,,,,,,,,,,,,,,,,,,,,,,,,,,,,,,,,,,,,,,,,,,,,,,,,,,,,,,,,,,,,,,,,,,,,,,,,,,,,,,,,,
,414654074748,CAB,19/04/1999,001,2023-09-28_13h01.53.046,OS3_Mult_verification,2022.2.4,Win32,15.00060002,,,,,,,,,,,,,,,,space,1.5205,,,,,,,,,,,,,,,,,,space,13.9428,123,3.394,1,"[""1"",""2"",""3"",""return""]","[0.898200000002987,1.1493000000119196,1.3983000000119432,3.2232000000029757]",0,0,0,0,1,3,123,Audio/123.mp3,practice,,,,,,,,,,,,,,,,,,,,,,,,,,,,,,,,,,,,,,,,,,,,,,,,,,,,,,,,,,,,,,,,,,,,,,,,,,,,,,,,,,,,,,,,,,,,,,,,,,,,,,,,,,,,,,,,,,,,,,,,,,,,
,414654074748,CAB,19/04/1999,001,2023-09-28_13h01.53.046,OS3_Mult_verification,2022.2.4,Win32,15.00060002,,,,,,,,,,,,,,,,,,,,,,,,,,,,,,,,,,,,,321,1.7251,1,"[""3"",""2"",""1"",""return""]","[0.5182999999970548,0.7847000000029993,0.9532000000029939,1.558200000003012]",0,1,1,1,1,3,321,Audio/321.mp3,practice,,,,,,,,,,,,,,,,,,,,,,,,,,,,,,,,,,,,,,,,,,,,,,,,,,,,,,,,,,,,,,,,,,,,,,,,,,,,,,,,,,,,,,,,,,,,,,,,,,,,,,,,,,,,,,,,,,,,,,,,,,,,
,414654074748,CAB,19/04/1999,001,2023-09-28_13h01.53.046,OS3_Mult_verification,2022.2.4,Win32,15.00060002,,,,,,,,,,,,,,,,,,,,,,,,,,,,,,,,,,,,,911,1.6897,1,"[""9"",""1"",""1"",""return""]","[0.3662999999970111,0.6374999999999886,0.8183999999910725,1.5355999999940195]",0,2,2,2,1,3,911,Audio/911.mp3,practice,,,,,,,,,,,,,,,,,,,,,,,,,,,,,,,,,,,,,,,,,,,,,,,,,,,,,,,,,,,,,,,,,,,,,,,,,,,,,,,,,,,,,,,,,,,,,,,,,,,,,,,,,,,,,,,,,,,,,,,,,,,,
,414654074748,CAB,19/04/1999,001,2023-09-28_13h01.53.046,OS3_Mult_verification,2022.2.4,Win32,15.00060002,,,,,,,,,,,,,,,,,,,,,,,,,,,,,,,,,,,,,46,2.5848,1,"[""4"",""6"",""return""]","[1.630300000011914,1.8056000000089512,2.414800000011894]",,,,,,2,46,Audio/46.mp3,EGNER,0,0,0,0,1,,,,,,,,,,,,,,,,,,,,,,,,,,,,,,,,,,,,,,,,,,,,,,,,,,,,,,,,,,,,,,,,,,,,,,,,,,,,,,,,,,,,,,,,,,,,,,,,,,,,,,,,,,,,,,,,,,,,,,,
,414654074748,CAB,19/04/1999,001,2023-09-28_13h01.53.046,OS3_Mult_verification,2022.2.4,Win32,15.00060002,,,,,,,,,,,,,,,,,,,,,,,,,,,,,,,,,,,,,82,2.0053,1,"[""8"",""2"",""return""]","[0.736899999991067,0.9055999999940241,1.8498999999910666]",,,,,,2,82,Audio/82.mp3,EGNER,0,1,1,1,1,,,,,,,,,,,,,,,,,,,,,,,,,,,,,,,,,,,,,,,,,,,,,,,,,,,,,,,,,,,,,,,,,,,,,,,,,,,,,,,,,,,,,,,,,,,,,,,,,,,,,,,,,,,,,,,,,,,,,,,
,414654074748,CAB,19/04/1999,001,2023-09-28_13h01.53.046,OS3_Mult_verification,2022.2.4,Win32,15.00060002,,,,,,,,,,,,,,,,,,,,,,,,,,,,,,,,,,,,,,,,,,,,,,,,,,,,,,,,0,0,0,0,1,digitSpan_stim/twoAudio.xlsx,,,,,,,,,,,,,,,,,,,,,,,,,,,,,,,,,,,,,,,,,,,,,,,,,,,,,,,,,,,,,,,,,,,,,,,,,,,,,,,,,,,,,,,,,,,,,,,,,,,,,,,,,,,,,,,,,
,414654074748,CAB,19/04/1999,001,2023-09-28_13h01.53.046,OS3_Mult_verification,2022.2.4,Win32,15.00060002,,,,,,,,,,,,,,,,,,,,,,,,,,,,,,,,,,,,,157,2.0145,1,"[""1"",""5"",""7"",""return""]","[0.6248999999911007,0.8245999999940636,1.504000000000019,1.858399999991093]",,,,,,3,157,Audio/157.mp3,EGNER,0,0,0,0,1,,,,,,,,,,,,,,,,,,,,,,,,,,,,,,,,,,,,,,,,,,,,,,,,,,,,,,,,,,,,,,,,,,,,,,,,,,,,,,,,,,,,,,,,,,,,,,,,,,,,,,,,,,,,,,,,,,,,,,,
,414654074748,CAB,19/04/1999,001,2023-09-28_13h01.53.046,OS3_Mult_verification,2022.2.4,Win32,15.00060002,,,,,,,,,,,,,,,,,,,,,,,,,,,,,,,,,,,,,397,2.1676,1,"[""3"",""9"",""7"",""return""]","[0.5178999999910161,0.876700000002927,1.2233999999910452,2.0120000000000005]",,,,,,3,397,Audio/397.mp3,EGNER,0,1,1,1,1,,,,,,,,,,,,,,,,,,,,,,,,,,,,,,,,,,,,,,,,,,,,,,,,,,,,,,,,,,,,,,,,,,,,,,,,,,,,,,,,,,,,,,,,,,,,,,,,,,,,,,,,,,,,,,,,,,,,,,,
,414654074748,CAB,19/04/1999,001,2023-09-28_13h01.53.046,OS3_Mult_verification,2022.2.4,Win32,15.00060002,,,,,,,,,,,,,,,,,,,,,,,,,,,,,,,,,,,,,,,,,,,,,,,,,,,,,,,,0,1,1,1,1,digitSpan_stim/threeAudio.xlsx,,,,,,,,,,,,,,,,,,,,,,,,,,,,,,,,,,,,,,,,,,,,,,,,,,,,,,,,,,,,,,,,,,,,,,,,,,,,,,,,,,,,,,,,,,,,,,,,,,,,,,,,,,,,,,,,,
,414654074748,CAB,19/04/1999,001,2023-09-28_13h01.53.046,OS3_Mult_verification,2022.2.4,Win32,15.00060002,,,,,,,,,,,,,,,,,,,,,,,,,,,,,,,,,,,,,6352,2.6449,1,"[""6"",""3"",""5"",""2"",""return""]","[0.6352999999970166,1.0605999999939968,1.342999999999961,1.6175999999940132,2.4913999999910175]",,,,,,4,6352,Audio/6352.mp3,EGNER,0,0,0,0,1,,,,,,,,,,,,,,,,,,,,,,,,,,,,,,,,,,,,,,,,,,,,,,,,,,,,,,,,,,,,,,,,,,,,,,,,,,,,,,,,,,,,,,,,,,,,,,,,,,,,,,,,,,,,,,,,,,,,,,,
,414654074748,CAB,19/04/1999,001,2023-09-28_13h01.53.046,OS3_Mult_verification,2022.2.4,Win32,15.00060002,,,,,,,,,,,,,,,,,,,,,,,,,,,,,,,,,,,,,9184,3.081,1,"[""9"",""1"",""8"",""4"",""return""]","[1.4142000000030066,1.7821000000089953,2.1414000000060014,2.488800000011963,2.9274000000060028]",,,,,,4,9184,Audio/9184.mp3,EGNER,0,1,1,1,1,,,,,,,,,,,,,,,,,,,,,,,,,,,,,,,,,,,,,,,,,,,,,,,,,,,,,,,,,,,,,,,,,,,,,,,,,,,,,,,,,,,,,,,,,,,,,,,,,,,,,,,,,,,,,,,,,,,,,,,
,414654074748,CAB,19/04/1999,001,2023-09-28_13h01.53.046,OS3_Mult_verification,2022.2.4,Win32,15.00060002,,,,,,,,,,,,,,,,,,,,,,,,,,,,,,,,,,,,,,,,,,,,,,,,,,,,,,,,0,2,2,2,1,digitSpan_stim/fourAudio.xlsx,,,,,,,,,,,,,,,,,,,,,,,,,,,,,,,,,,,,,,,,,,,,,,,,,,,,,,,,,,,,,,,,,,,,,,,,,,,,,,,,,,,,,,,,,,,,,,,,,,,,,,,,,,,,,,,,,
,414654074748,CAB,19/04/1999,001,2023-09-28_13h01.53.046,OS3_Mult_verification,2022.2.4,Win32,15.00060002,,,,,,,,,,,,,,,,,,,,,,,,,,,,,,,,,,,,,59281,6.4152,1,"[""5"",""9"",""2"",""8"",""1"",""return""]","[0.6346999999880722,1.4115999999940527,4.586999999999932,4.918599999994001,5.200899999991009,6.268399999991061]",,,,,,5,59281,Audio/59281.mp3,EGNER,0,0,0,0,1,,,,,,,,,,,,,,,,,,,,,,,,,,,,,,,,,,,,,,,,,,,,,,,,,,,,,,,,,,,,,,,,,,,,,,,,,,,,,,,,,,,,,,,,,,,,,,,,,,,,,,,,,,,,,,,,,,,,,,,
,414654074748,CAB,19/04/1999,001,2023-09-28_13h01.53.046,OS3_Mult_verification,2022.2.4,Win32,15.00060002,,,,,,,,,,,,,,,,,,,,,,,,,,,,,,,,,,,,,64738,5.864,1,"[""6"",""4"",""7"",""3"",""8"",""return""]","[0.9729000000058932,2.304299999997056,3.076000000000022,3.980299999996987,4.532100000008882,5.689499999999953]",,,,,,5,64738,Audio/64738.mp3,EGNER,0,1,1,1,1,,,,,,,,,,,,,,,,,,,,,,,,,,,,,,,,,,,,,,,,,,,,,,,,,,,,,,,,,,,,,,,,,,,,,,,,,,,,,,,,,,,,,,,,,,,,,,,,,,,,,,,,,,,,,,,,,,,,,,,
,414654074748,CAB,19/04/1999,001,2023-09-28_13h01.53.046,OS3_Mult_verification,2022.2.4,Win32,15.00060002,,,,,,,,,,,,,,,,,,,,,,,,,,,,,,,,,,,,,,,,,,,,,,,,,,,,,,,,0,3,3,3,1,digitSpan_stim/fiveAudio.xlsx,,,,,,,,,,,,,,,,,,,,,,,,,,,,,,,,,,,,,,,,,,,,,,,,,,,,,,,,,,,,,,,,,,,,,,,,,,,,,,,,,,,,,,,,,,,,,,,,,,,,,,,,,,,,,,,,,
,414654074748,CAB,19/04/1999,001,2023-09-28_13h01.53.046,OS3_Mult_verification,2022.2.4,Win32,15.00060002,,,,,,,,,,,,,,,,,,,,,,,,,,,,,,,,,,,,,696172,6.434,0,"[""6"",""9"",""6"",""1"",""7"",""2"",""return""]","[2.524100000008957,3.351900000006026,4.018000000000029,4.794300000011958,5.313700000002996,5.841100000008964,6.276300000011929]",,,,,,6,396172,Audio/396172.mp3,EGNER,0,0,0,0,1,,,,,,,,,,,,,,,,,,,,,,,,,,,,,,,,,,,,,,,,,,,,,,,,,,,,,,,,,,,,,,,,,,,,,,,,,,,,,,,,,,,,,,,,,,,,,,,,,,,,,,,,,,,,,,,,,,,,,,,
,414654074748,CAB,19/04/1999,001,2023-09-28_13h01.53.046,OS3_Mult_verification,2022.2.4,Win32,15.00060002,,,,,,,,,,,,,,,,,,,,,,,,,,,,,,,,,,,,,596431,7.0767,0,"[""5"",""9"",""6"",""4"",""3"",""1"",""return""]","[3.3274999999999864,4.207799999996951,4.866199999987998,5.306399999990958,5.565099999994004,5.924499999999966,6.9166999999880545]",,,,,,6,594631,Audio/594631.mp3,EGNER,0,1,1,1,1,,,,,,,,,,,,,,,,,,,,,,,,,,,,,,,,,,,,,,,,,,,,,,,,,,,,,,,,,,,,,,,,,,,,,,,,,,,,,,,,,,,,,,,,,,,,,,,,,,,,,,,,,,,,,,,,,,,,,,,
,414654074748,CAB,19/04/1999,001,2023-09-28_13h01.53.046,OS3_Mult_verification,2022.2.4,Win32,15.00060002,,,,,,,,,,,,,,,,,,,,,,,,,,,,,,,,,,,,,,,,,,,,,,,Egner,,,,,,,,,,,,,,,0,0,0,0,1,digitSpan_stim/Egner.xlsx,,,,,,,,,,,,,,,,,,,,,,,,,,,,,,,,,,,,,,,,,,,,,,,,,,,,,,,,,,,,,,,,,,,,,,,,,,,,,,,,,,,,,,,,,,,,,,,,,,,,,,,,,,,
,414654074748,CAB,19/04/1999,001,2023-09-28_13h01.53.046,OS3_Mult_verification,2022.2.4,Win32,15.00060002,,,,,,,,,,,,,,,,,,,,,,,,,,,,,,,,,,,,,96,3.6393,0,"[""9"",""6"",""return""]","[2.3072000000030357,2.935799999997016,3.478700000003073]",,,,,,2,97,Audio/97.mp3,WAIS,0,0,0,0,1,,,,,,,,,,,,,,,,,,,,,,,,,,,,,,,,,,,,,,,,,,,,,,,,,,,,,,,,,,,,,,,,,,,,,,,,,,,,,,,,,,,,,,,,,,,,,,,,,,,,,,,,,,,,,,,,,,,,,,,
,414654074748,CAB,19/04/1999,001,2023-09-28_13h01.53.046,OS3_Mult_verification,2022.2.4,Win32,15.00060002,,,,,,,,,,,,,,,,,,,,,,,,,,,,,,,,,,,,,63,2.0799,1,"[""6"",""3"",""return""]","[1.1872999999970943,1.628899999991063,1.9067000000029566]",,,,,,2,63,Audio/63.mp3,WAIS,0,1,1,1,1,,,,,,,,,,,,,,,,,,,,,,,,,,,,,,,,,,,,,,,,,,,,,,,,,,,,,,,,,,,,,,,,,,,,,,,,,,,,,,,,,,,,,,,,,,,,,,,,,,,,,,,,,,,,,,,,,,,,,,,
,414654074748,CAB,19/04/1999,001,2023-09-28_13h01.53.046,OS3_Mult_verification,2022.2.4,Win32,15.00060002,,,,,,,,,,,,,,,,,,,,,,,,,,,,,,,,,,,,,,,,,,,,,,,,,,,,,,,,0,0,0,0,1,digitSpan_stim/twoWAIS.xlsx,,,,,,,,,,,,,,,,,,,,,,,,,,,,,,,,,,,,,,,,,,,,,,,,,,,,,,,,,,,,,,,,,,,,,,,,,,,,,,,,,,,,,,,,,,,,,,,,,,,,,,,,,,,,,,,,,
,414654074748,CAB,19/04/1999,001,2023-09-28_13h01.53.046,OS3_Mult_verification,2022.2.4,Win32,15.00060002,,,,,,,,,,,,,,,,,,,,,,,,,,,,,,,,,,,,,582,1.8028,1,"[""5"",""8"",""2"",""return""]","[0.3606999999881282,0.7060000000000173,1.350099999994086,1.6247999999969807]",,,,,,3,582,Audio/582.mp3,WAIS,0,0,0,0,1,,,,,,,,,,,,,,,,,,,,,,,,,,,,,,,,,,,,,,,,,,,,,,,,,,,,,,,,,,,,,,,,,,,,,,,,,,,,,,,,,,,,,,,,,,,,,,,,,,,,,,,,,,,,,,,,,,,,,,,
,414654074748,CAB,19/04/1999,001,2023-09-28_13h01.53.046,OS3_Mult_verification,2022.2.4,Win32,15.00060002,,,,,,,,,,,,,,,,,,,,,,,,,,,,,,,,,,,,,694,2.625,1,"[""6"",""9"",""4"",""return""]","[1.2378999999909865,1.5863999999910448,2.11099999999999,2.466000000000008]",,,,,,3,694,Audio/694.mp3,WAIS,0,1,1,1,1,,,,,,,,,,,,,,,,,,,,,,,,,,,,,,,,,,,,,,,,,,,,,,,,,,,,,,,,,,,,,,,,,,,,,,,,,,,,,,,,,,,,,,,,,,,,,,,,,,,,,,,,,,,,,,,,,,,,,,,
,414654074748,CAB,19/04/1999,001,2023-09-28_13h01.53.046,OS3_Mult_verification,2022.2.4,Win32,15.00060002,,,,,,,,,,,,,,,,,,,,,,,,,,,,,,,,,,,,,,,,,,,,,,,,,,,,,,,,0,1,1,1,1,digitSpan_stim/threeWAIS.xlsx,,,,,,,,,,,,,,,,,,,,,,,,,,,,,,,,,,,,,,,,,,,,,,,,,,,,,,,,,,,,,,,,,,,,,,,,,,,,,,,,,,,,,,,,,,,,,,,,,,,,,,,,,,,,,,,,,
,414654074748,CAB,19/04/1999,001,2023-09-28_13h01.53.046,OS3_Mult_verification,2022.2.4,Win32,15.00060002,,,,,,,,,,,,,,,,,,,,,,,,,,,,,,,,,,,,,67286,3.9091,0,"[""6"",""7"",""2"",""8"",""6"",""return""]","[0.015700000002993875,0.8970000000000482,1.5330000000000155,2.1776000000089653,3.26400000000001,3.733100000009017]",,,,,,4,7286,Audio/7286.mp3,WAIS,0,0,0,0,1,,,,,,,,,,,,,,,,,,,,,,,,,,,,,,,,,,,,,,,,,,,,,,,,,,,,,,,,,,,,,,,,,,,,,,,,,,,,,,,,,,,,,,,,,,,,,,,,,,,,,,,,,,,,,,,,,,,,,,,
,414654074748,CAB,19/04/1999,001,2023-09-28_13h01.53.046,OS3_Mult_verification,2022.2.4,Win32,15.00060002,,,,,,,,,,,,,,,,,,,,,,,,,,,,,,,,,,,,,6439,3.1282,1,"[""6"",""4"",""3"",""9"",""return""]","[1.113999999999919,1.6685999999940577,2.0190999999940686,2.5870999999940523,2.9574000000059186]",,,,,,4,6439,Audio/6439.mp3,WAIS,0,1,1,1,1,,,,,,,,,,,,,,,,,,,,,,,,,,,,,,,,,,,,,,,,,,,,,,,,,,,,,,,,,,,,,,,,,,,,,,,,,,,,,,,,,,,,,,,,,,,,,,,,,,,,,,,,,,,,,,,,,,,,,,,
,414654074748,CAB,19/04/1999,001,2023-09-28_13h01.53.046,OS3_Mult_verification,2022.2.4,Win32,15.00060002,,,,,,,,,,,,,,,,,,,,,,,,,,,,,,,,,,,,,,,,,,,,,,,,,,,,,,,,0,2,2,2,1,digitSpan_stim/fourWAIS.xlsx,,,,,,,,,,,,,,,,,,,,,,,,,,,,,,,,,,,,,,,,,,,,,,,,,,,,,,,,,,,,,,,,,,,,,,,,,,,,,,,,,,,,,,,,,,,,,,,,,,,,,,,,,,,,,,,,,
,414654074748,CAB,19/04/1999,001,2023-09-28_13h01.53.046,OS3_Mult_verification,2022.2.4,Win32,15.00060002,,,,,,,,,,,,,,,,,,,,,,,,,,,,,,,,,,,,,42731,5.3189,1,"[""4"",""2"",""7"",""3"",""1"",""return""]","[0.7453999999910366,1.7440999999940914,3.1322000000029675,3.9565000000000055,4.470700000003035,5.132299999997031]",,,,,,5,42731,Audio/42731.mp3,WAIS,0,0,0,0,1,,,,,,,,,,,,,,,,,,,,,,,,,,,,,,,,,,,,,,,,,,,,,,,,,,,,,,,,,,,,,,,,,,,,,,,,,,,,,,,,,,,,,,,,,,,,,,,,,,,,,,,,,,,,,,,,,,,,,,,
,414654074748,CAB,19/04/1999,001,2023-09-28_13h01.53.046,OS3_Mult_verification,2022.2.4,Win32,15.00060002,,,,,,,,,,,,,,,,,,,,,,,,,,,,,,,,,,,,,75836,4.4025,1,"[""7"",""5"",""8"",""3"",""6"",""return""]","[1.7652000000030057,2.293799999997077,2.757799999997019,3.2960999999941123,3.842599999994036,4.214099999994119]",,,,,,5,75836,Audio/75836.mp3,WAIS,0,1,1,1,1,,,,,,,,,,,,,,,,,,,,,,,,,,,,,,,,,,,,,,,,,,,,,,,,,,,,,,,,,,,,,,,,,,,,,,,,,,,,,,,,,,,,,,,,,,,,,,,,,,,,,,,,,,,,,,,,,,,,,,,
,414654074748,CAB,19/04/1999,001,2023-09-28_13h01.53.046,OS3_Mult_verification,2022.2.4,Win32,15.00060002,,,,,,,,,,,,,,,,,,,,,,,,,,,,,,,,,,,,,,,,,,,,,,,,,,,,,,,,0,3,3,3,1,digitSpan_stim/fiveWAIS.xlsx,,,,,,,,,,,,,,,,,,,,,,,,,,,,,,,,,,,,,,,,,,,,,,,,,,,,,,,,,,,,,,,,,,,,,,,,,,,,,,,,,,,,,,,,,,,,,,,,,,,,,,,,,,,,,,,,,
,414654074748,CAB,19/04/1999,001,2023-09-28_13h01.53.046,OS3_Mult_verification,2022.2.4,Win32,15.00060002,,,,,,,,,,,,,,,,,,,,,,,,,,,,,,,,,,,,,392487,5.0178,1,"[""3"",""9"",""2"",""4"",""8"",""7"",""return""]","[1.2198999999910711,2.047099999993975,2.851799999996956,3.2937999999969634,3.863199999988069,4.133500000000026,4.848399999990988]",,,,,,6,392487,Audio/392487.mp3,WAIS,0,0,0,0,1,,,,,,,,,,,,,,,,,,,,,,,,,,,,,,,,,,,,,,,,,,,,,,,,,,,,,,,,,,,,,,,,,,,,,,,,,,,,,,,,,,,,,,,,,,,,,,,,,,,,,,,,,,,,,,,,,,,,,,,
,414654074748,CAB,19/04/1999,001,2023-09-28_13h01.53.046,OS3_Mult_verification,2022.2.4,Win32,15.00060002,,,,,,,,,,,,,,,,,,,,,,,,,,,,,,,,,,,,,619473,5.1411,1,"[""6"",""1"",""9"",""4"",""7"",""3"",""return""]","[1.302500000000009,1.9389999999999645,2.5374000000059596,3.168299999996975,3.8275999999940495,4.3667999999969425,4.983200000002967]",,,,,,6,619473,Audio/619473.mp3,WAIS,0,1,1,1,1,,,,,,,,,,,,,,,,,,,,,,,,,,,,,,,,,,,,,,,,,,,,,,,,,,,,,,,,,,,,,,,,,,,,,,,,,,,,,,,,,,,,,,,,,,,,,,,,,,,,,,,,,,,,,,,,,,,,,,,
,414654074748,CAB,19/04/1999,001,2023-09-28_13h01.53.046,OS3_Mult_verification,2022.2.4,Win32,15.00060002,,,,,,,,,,,,,,,,,,,,,,,,,,,,,,,,,,,,,,,,,,,,,,,,,,,,,,,,0,4,4,4,1,digitSpan_stim/sixWAIS.xlsx,,,,,,,,,,,,,,,,,,,,,,,,,,,,,,,,,,,,,,,,,,,,,,,,,,,,,,,,,,,,,,,,,,,,,,,,,,,,,,,,,,,,,,,,,,,,,,,,,,,,,,,,,,,,,,,,,
,414654074748,CAB,19/04/1999,001,2023-09-28_13h01.53.046,OS3_Mult_verification,2022.2.4,Win32,15.00060002,,,,,,,,,,,,,,,,,,,,,,,,,,,,,,,,,,,,,6917428,7.9791,1,"[""6"",""9"",""1"",""7"",""4"",""2"",""8"",""return""]","[1.149900000005914,1.6304000000059204,4.825999999999908,5.705999999999904,6.239600000008863,6.6614000000058695,7.216800000011858,7.820999999999913]",,,,,,7,6917428,Audio/6917428.mp3,WAIS,0,0,0,0,1,,,,,,,,,,,,,,,,,,,,,,,,,,,,,,,,,,,,,,,,,,,,,,,,,,,,,,,,,,,,,,,,,,,,,,,,,,,,,,,,,,,,,,,,,,,,,,,,,,,,,,,,,,,,,,,,,,,,,,,
,414654074748,CAB,19/04/1999,001,2023-09-28_13h01.53.046,OS3_Mult_verification,2022.2.4,Win32,15.00060002,,,,,,,,,,,,,,,,,,,,,,,,,,,,,,,,,,,,,417938,8.1388,0,"[""4"",""1"",""7"",""9"",""3"",""8"",""return""]","[4.189899999990985,4.831299999996986,5.455399999990959,5.844799999997008,6.603700000002959,7.158099999993965,7.978700000002959]",,,,,,7,4179386,Audio/4179386.mp3,WAIS,0,1,1,1,1,,,,,,,,,,,,,,,,,,,,,,,,,,,,,,,,,,,,,,,,,,,,,,,,,,,,,,,,,,,,,,,,,,,,,,,,,,,,,,,,,,,,,,,,,,,,,,,,,,,,,,,,,,,,,,,,,,,,,,,
,414654074748,CAB,19/04/1999,001,2023-09-28_13h01.53.046,OS3_Mult_verification,2022.2.4,Win32,15.00060002,,,,,,,,,,,,,,,,,,,,,,,,,,,,,,,,,,,,,,,,,,,,,,,,,,,,,,,,0,5,5,5,1,digitSpan_stim/sevenWAIS.xlsx,,,,,,,,,,,,,,,,,,,,,,,,,,,,,,,,,,,,,,,,,,,,,,,,,,,,,,,,,,,,,,,,,,,,,,,,,,,,,,,,,,,,,,,,,,,,,,,,,,,,,,,,,,,,,,,,,
,414654074748,CAB,19/04/1999,001,2023-09-28_13h01.53.046,OS3_Mult_verification,2022.2.4,Win32,15.00060002,,,,,,,,,,,,,,,,,,,,,,,,,,,,,,,,,,,,,419317,8.2733,0,"[""4"",""1"",""9"",""3"",""1"",""7"",""return""]","[4.228500000000054,4.965299999997001,5.600699999988024,6.206599999994069,7.127599999994004,7.822000000000003,8.092799999997055]",,,,,,8,38296174,Audio/38296174.mp3,WAIS,0,0,0,0,1,,,,,,,,,,,,,,,,,,,,,,,,,,,,,,,,,,,,,,,,,,,,,,,,,,,,,,,,,,,,,,,,,,,,,,,,,,,,,,,,,,,,,,,,,,,,,,,,,,,,,,,,,,,,,,,,,,,,,,,
,414654074748,CAB,19/04/1999,001,2023-09-28_13h01.53.046,OS3_Mult_verification,2022.2.4,Win32,15.00060002,,,,,,,,,,,,,,,,,,,,,,,,,,,,,,,,,,,,,58132647,9.7643,1,"[""5"",""8"",""1"",""3"",""2"",""6"",""4"",""7"",""return""]","[4.273000000000025,5.2367000000029975,5.977900000005889,6.532400000005964,6.8757000000030075,7.413300000011873,8.234600000008868,8.608800000011911,9.603900000005979]",,,,,,8,58132647,Audio/58132647.mp3,WAIS,0,1,1,1,1,,,,,,,,,,,,,,,,,,,,,,,,,,,,,,,,,,,,,,,,,,,,,,,,,,,,,,,,,,,,,,,,,,,,,,,,,,,,,,,,,,,,,,,,,,,,,,,,,,,,,,,,,,,,,,,,,,,,,,,
,414654074748,CAB,19/04/1999,001,2023-09-28_13h01.53.046,OS3_Mult_verification,2022.2.4,Win32,15.00060002,,,,,,,,,,,,,,,,,,,,,,,,,,,,,,,,,,,,,,,,,,,,,,,,,,,,,,,,0,6,6,6,1,digitSpan_stim/eightWAIS.xlsx,,,,,,,,,,,,,,,,,,,,,,,,,,,,,,,,,,,,,,,,,,,,,,,,,,,,,,,,,,,,,,,,,,,,,,,,,,,,,,,,,,,,,,,,,,,,,,,,,,,,,,,,,,,,,,,,,
,414654074748,CAB,19/04/1999,001,2023-09-28_13h01.53.046,OS3_Mult_verification,2022.2.4,Win32,15.00060002,,,,,,,,,,,,,,,,,,,,,,,,,,,,,,,,,,,,,245836124,16.5952,0,"[""2"",""4"",""5"",""8"",""3"",""6"",""1"",""2"",""4"",""return""]","[2.140700000002994,2.6662000000029593,3.112299999997049,4.284400000005917,6.483500000000049,7.823299999997062,8.765599999994038,14.764400000005935,15.209900000005973,16.432599999994068]",,,,,,9,275863194,Audio/275863194.mp3,WAIS,0,0,0,0,1,,,,,,,,,,,,,,,,,,,,,,,,,,,,,,,,,,,,,,,,,,,,,,,,,,,,,,,,,,,,,,,,,,,,,,,,,,,,,,,,,,,,,,,,,,,,,,,,,,,,,,,,,,,,,,,,,,,,,,,
,414654074748,CAB,19/04/1999,001,2023-09-28_13h01.53.046,OS3_Mult_verification,2022.2.4,Win32,15.00060002,,,,,,,,,,,,,,,,,,,,,,,,,,,,,,,,,,,,,74893412,20.2698,0,"[""7"",""8"",""backspace"",""4"",""8"",""9"",""3"",""4"",""1"",""2"",""return""]","[13.59139999999104,13.86559999999406,15.45799999999997,16.092700000002992,16.70929999999703,17.787500000000023,18.52159999999401,18.775700000002985,19.115299999996978,19.389999999999986,20.10729999999694]",,,,,,9,713942568,Audio/713942568.mp3,WAIS,0,1,1,1,1,,,,,,,,,,,,,,,,,,,,,,,,,,,,,,,,,,,,,,,,,,,,,,,,,,,,,,,,,,,,,,,,,,,,,,,,,,,,,,,,,,,,,,,,,,,,,,,,,,,,,,,,,,,,,,,,,,,,,,,
,414654074748,CAB,19/04/1999,001,2023-09-28_13h01.53.046,OS3_Mult_verification,2022.2.4,Win32,15.00060002,,,,,,,,,,,,,,,,,,,,,,,,,,,,,,,,,,,,,,,,,,,,,,,WAIS,,,,,,,,,,,,,,,0,1,1,1,1,digitSpan_stim/WAIS.xlsx,,,,,,,,,,,,,,,,,,,,,,,,,,,,,,,,,,,,,,,,,,,,,,,,,,,,,,,,,,,,,,,,,,,,,,,,,,,,,,,,,,,,,,,,,,,,,,,,,,,,,,,,,,,
,414654074748,CAB,19/04/1999,001,2023-09-28_13h01.53.046,OS3_Mult_verification,2022.2.4,Win32,15.00060002,,,,,,,,,,,,,,,,,,,,,,,,,,,,,,,,,,,,,,,,,,,,,,,,,,,,,,,,,,,,,,,,,,,,0,0,0,0,1,,,,,,,,,,,,,,,,,,,,,,,,,,,,,,,,,,,,,,,,,,,,,,,,,,,,,,,,,,,,,,,,,,,,,,,,,,,,,,,,,,,,,,,,,,,,,,,,,,,,,,
,414654074748,CAB,19/04/1999,001,2023-09-28_13h01.53.046,OS3_Mult_verification,2022.2.4,Win32,15.00060002,,,,,,,,,,,,,,,,,,,,,,,,,,,,,,,,,,,,,,,,,,,,,,,,,,,,,,,,,,,,,,,,,,,,,,,,,0,0,0,0,1,0,0,1,,,,,,,,,,,,,,,,,,,,,,,,,,,,,,,,,,,,,,,,,,,,,,,,,,,,,,,,,,,,,,,,,,,,,,,,,,,,,,,,,,,,,,,,,,,,,,
,414654074748,CAB,19/04/1999,001,2023-09-28_13h01.53.046,OS3_Mult_verification,2022.2.4,Win32,15.00060002,,,,,,,,,,,,,,,,space,1.6959,,,,,,,,,,,,,,,,,,,,,,,,,,,,,,,,,,,,,,,,,,,,,,,,,,,,,,,,,,,,,,,,left,1,2.58,0,0,0,0,1,practice,9,8,9 | 8,1,0.065,0.05,congruent,left,,,,,,,,,,,,,,,,,,,,,,,,,,,,,,,,,,,,,,,,,,,,,,,,,,,,,,,,,,,,,,,,,,,,,,,,,,,,,
,414654074748,CAB,19/04/1999,001,2023-09-28_13h01.53.046,OS3_Mult_verification,2022.2.4,Win32,15.00060002,,,,,,,,,,,,,,,,,,,,,,,,,,,,,,,,,,,,,,,,,,,,,,,,,,,,,,,,,,,,,,,,,,,,,,,,,,,,,,,,,right,1,0.9681,0,1,1,2,1,practice,9,9,9 | 9,0,0.05,0.065,neutral,right,,,,,,,,,,,,,,,,,,,,,,,,,,,,,,,,,,,,,,,,,,,,,,,,,,,,,,,,,,,,,,,,,,,,,,,,,,,,,
,414654074748,CAB,19/04/1999,001,2023-09-28_13h01.53.046,OS3_Mult_verification,2022.2.4,Win32,15.00060002,,,,,,,,,,,,,,,,,,,,,,,,,,,,,,,,,,,,,,,,,,,,,,,,,,,,,,,,,,,,,,,,,,,,,,,,,,,,,,,,,right,1,0.7481,0,2,2,1,1,practice,4,3,4 | 3,1,0.05,0.065,incongruent,right,,,,,,,,,,,,,,,,,,,,,,,,,,,,,,,,,,,,,,,,,,,,,,,,,,,,,,,,,,,,,,,,,,,,,,,,,,,,,
,414654074748,CAB,19/04/1999,001,2023-09-28_13h01.53.046,OS3_Mult_verification,2022.2.4,Win32,15.00060002,,,,,,,,,,,,,,,,,,,,,,,,,,,,,,,,,,,,,,,,,,,,,,,,,,,,,,,,,,,,,,,,,,,,,,,,,,,,,,,,,left,1,0.7357,,,,,,physical,9,4,9 | 4,5,0.065,0.05,congruent,left,0,0,0,23,1,,,,,,,,,,,,,,,,,,,,,,,,,,,,,,,,,,,,,,,,,,,,,,,,,,,,,,,,,,,,,,,,,,,,,,,,
,414654074748,CAB,19/04/1999,001,2023-09-28_13h01.53.046,OS3_Mult_verification,2022.2.4,Win32,15.00060002,,,,,,,,,,,,,,,,,,,,,,,,,,,,,,,,,,,,,,,,,,,,,,,,,,,,,,,,,,,,,,,,,,,,,,,,,,,,,,,,,left,1,0.7146,,,,,,physical,1,6,1 | 6,5,0.065,0.05,incongruent,left,0,1,1,40,1,,,,,,,,,,,,,,,,,,,,,,,,,,,,,,,,,,,,,,,,,,,,,,,,,,,,,,,,,,,,,,,,,,,,,,,,
,414654074748,CAB,19/04/1999,001,2023-09-28_13h01.53.046,OS3_Mult_verification,2022.2.4,Win32,15.00060002,,,,,,,,,,,,,,,,,,,,,,,,,,,,,,,,,,,,,,,,,,,,,,,,,,,,,,,,,,,,,,,,,,,,,,,,,,,,,,,,,left,1,0.6332,,,,,,physical,7,6,7 | 6,1,0.065,0.05,congruent,left,0,2,2,6,1,,,,,,,,,,,,,,,,,,,,,,,,,,,,,,,,,,,,,,,,,,,,,,,,,,,,,,,,,,,,,,,,,,,,,,,,
,414654074748,CAB,19/04/1999,001,2023-09-28_13h01.53.046,OS3_Mult_verification,2022.2.4,Win32,15.00060002,,,,,,,,,,,,,,,,,,,,,,,,,,,,,,,,,,,,,,,,,,,,,,,,,,,,,,,,,,,,,,,,,,,,,,,,,,,,,,,,,right,1,0.5361,,,,,,physical,4,3,4 | 3,1,0.05,0.065,incongruent,right,0,3,3,29,1,,,,,,,,,,,,,,,,,,,,,,,,,,,,,,,,,,,,,,,,,,,,,,,,,,,,,,,,,,,,,,,,,,,,,,,,
,414654074748,CAB,19/04/1999,001,2023-09-28_13h01.53.046,OS3_Mult_verification,2022.2.4,Win32,15.00060002,,,,,,,,,,,,,,,,,,,,,,,,,,,,,,,,,,,,,,,,,,,,,,,,,,,,,,,,,,,,,,,,,,,,,,,,,,,,,,,,,right,1,0.7325,,,,,,physical,2,1,2 | 1,1,0.05,0.065,incongruent,right,0,4,4,28,1,,,,,,,,,,,,,,,,,,,,,,,,,,,,,,,,,,,,,,,,,,,,,,,,,,,,,,,,,,,,,,,,,,,,,,,,
,414654074748,CAB,19/04/1999,001,2023-09-28_13h01.53.046,OS3_Mult_verification,2022.2.4,Win32,15.00060002,,,,,,,,,,,,,,,,,,,,,,,,,,,,,,,,,,,,,,,,,,,,,,,,,,,,,,,,,,,,,,,,,,,,,,,,,,,,,,,,,left,1,0.4722,,,,,,physical,8,9,8 | 9,1,0.065,0.05,incongruent,left,0,5,5,27,1,,,,,,,,,,,,,,,,,,,,,,,,,,,,,,,,,,,,,,,,,,,,,,,,,,,,,,,,,,,,,,,,,,,,,,,,
,414654074748,CAB,19/04/1999,001,2023-09-28_13h01.53.046,OS3_Mult_verification,2022.2.4,Win32,15.00060002,,,,,,,,,,,,,,,,,,,,,,,,,,,,,,,,,,,,,,,,,,,,,,,,,,,,,,,,,,,,,,,,,,,,,,,,,,,,,,,,,left,1,0.6268,,,,,,physical,3,8,3 | 8,5,0.065,0.05,incongruent,left,0,6,6,42,1,,,,,,,,,,,,,,,,,,,,,,,,,,,,,,,,,,,,,,,,,,,,,,,,,,,,,,,,,,,,,,,,,,,,,,,,
,414654074748,CAB,19/04/1999,001,2023-09-28_13h01.53.046,OS3_Mult_verification,2022.2.4,Win32,15.00060002,,,,,,,,,,,,,,,,,,,,,,,,,,,,,,,,,,,,,,,,,,,,,,,,,,,,,,,,,,,,,,,,,,,,,,,,,,,,,,,,,left,1,0.6427,,,,,,physical,2,7,2 | 7,5,0.065,0.05,incongruent,left,0,7,7,41,1,,,,,,,,,,,,,,,,,,,,,,,,,,,,,,,,,,,,,,,,,,,,,,,,,,,,,,,,,,,,,,,,,,,,,,,,
,414654074748,CAB,19/04/1999,001,2023-09-28_13h01.53.046,OS3_Mult_verification,2022.2.4,Win32,15.00060002,,,,,,,,,,,,,,,,,,,,,,,,,,,,,,,,,,,,,,,,,,,,,,,,,,,,,,,,,,,,,,,,,,,,,,,,,,,,,,,,,right,1,0.5418,,,,,,physical,2,2,2 | 2,0,0.05,0.065,neutral,right,0,8,8,65,1,,,,,,,,,,,,,,,,,,,,,,,,,,,,,,,,,,,,,,,,,,,,,,,,,,,,,,,,,,,,,,,,,,,,,,,,
,414654074748,CAB,19/04/1999,001,2023-09-28_13h01.53.046,OS3_Mult_verification,2022.2.4,Win32,15.00060002,,,,,,,,,,,,,,,,,,,,,,,,,,,,,,,,,,,,,,,,,,,,,,,,,,,,,,,,,,,,,,,,,,,,,,,,,,,,,,,,,right,1,0.645,,,,,,physical,9,9,9 | 9,0,0.05,0.065,neutral,right,0,9,9,71,1,,,,,,,,,,,,,,,,,,,,,,,,,,,,,,,,,,,,,,,,,,,,,,,,,,,,,,,,,,,,,,,,,,,,,,,,
,414654074748,CAB,19/04/1999,001,2023-09-28_13h01.53.046,OS3_Mult_verification,2022.2.4,Win32,15.00060002,,,,,,,,,,,,,,,,,,,,,,,,,,,,,,,,,,,,,,,,,,,,,,,,,,,,,,,,,,,,,,,,,,,,,,,,,,,,,,,,,right,1,0.6508,,,,,,physical,4,4,4 | 4,0,0.05,0.065,neutral,right,0,10,10,67,1,,,,,,,,,,,,,,,,,,,,,,,,,,,,,,,,,,,,,,,,,,,,,,,,,,,,,,,,,,,,,,,,,,,,,,,,
,414654074748,CAB,19/04/1999,001,2023-09-28_13h01.53.046,OS3_Mult_verification,2022.2.4,Win32,15.00060002,,,,,,,,,,,,,,,,,,,,,,,,,,,,,,,,,,,,,,,,,,,,,,,,,,,,,,,,,,,,,,,,,,,,,,,,,,,,,,,,,right,1,0.7419,,,,,,physical,1,2,1 | 2,1,0.05,0.065,congruent,right,0,11,11,0,1,,,,,,,,,,,,,,,,,,,,,,,,,,,,,,,,,,,,,,,,,,,,,,,,,,,,,,,,,,,,,,,,,,,,,,,,
,414654074748,CAB,19/04/1999,001,2023-09-28_13h01.53.046,OS3_Mult_verification,2022.2.4,Win32,15.00060002,,,,,,,,,,,,,,,,,,,,,,,,,,,,,,,,,,,,,,,,,,,,,,,,,,,,,,,,,,,,,,,,,,,,,,,,,,,,,,,,,right,1,0.6492,,,,,,physical,4,9,4 | 9,5,0.05,0.065,congruent,right,0,12,12,19,1,,,,,,,,,,,,,,,,,,,,,,,,,,,,,,,,,,,,,,,,,,,,,,,,,,,,,,,,,,,,,,,,,,,,,,,,
,414654074748,CAB,19/04/1999,001,2023-09-28_13h01.53.046,OS3_Mult_verification,2022.2.4,Win32,15.00060002,,,,,,,,,,,,,,,,,,,,,,,,,,,,,,,,,,,,,,,,,,,,,,,,,,,,,,,,,,,,,,,,,,,,,,,,,,,,,,,,,right,1,0.6326,,,,,,physical,3,8,3 | 8,5,0.05,0.065,congruent,right,0,13,13,18,1,,,,,,,,,,,,,,,,,,,,,,,,,,,,,,,,,,,,,,,,,,,,,,,,,,,,,,,,,,,,,,,,,,,,,,,,
,414654074748,CAB,19/04/1999,001,2023-09-28_13h01.53.046,OS3_Mult_verification,2022.2.4,Win32,15.00060002,,,,,,,,,,,,,,,,,,,,,,,,,,,,,,,,,,,,,,,,,,,,,,,,,,,,,,,,,,,,,,,,,,,,,,,,,,,,,,,,,left,1,0.5458,,,,,,physical,1,3,1 | 3,2,0.065,0.05,incongruent,left,0,14,14,32,1,,,,,,,,,,,,,,,,,,,,,,,,,,,,,,,,,,,,,,,,,,,,,,,,,,,,,,,,,,,,,,,,,,,,,,,,
,414654074748,CAB,19/04/1999,001,2023-09-28_13h01.53.046,OS3_Mult_verification,2022.2.4,Win32,15.00060002,,,,,,,,,,,,,,,,,,,,,,,,,,,,,,,,,,,,,,,,,,,,,,,,,,,,,,,,,,,,,,,,,,,,,,,,,,,,,,,,,right,1,0.6995,,,,,,physical,8,3,8 | 3,5,0.05,0.065,incongruent,right,0,15,15,46,1,,,,,,,,,,,,,,,,,,,,,,,,,,,,,,,,,,,,,,,,,,,,,,,,,,,,,,,,,,,,,,,,,,,,,,,,
,414654074748,CAB,19/04/1999,001,2023-09-28_13h01.53.046,OS3_Mult_verification,2022.2.4,Win32,15.00060002,,,,,,,,,,,,,,,,,,,,,,,,,,,,,,,,,,,,,,,,,,,,,,,,,,,,,,,,,,,,,,,,,,,,,,,,,,,,,,,,,right,1,0.7341,,,,,,physical,1,1,1 | 1,0,0.05,0.065,neutral,right,0,16,16,56,1,,,,,,,,,,,,,,,,,,,,,,,,,,,,,,,,,,,,,,,,,,,,,,,,,,,,,,,,,,,,,,,,,,,,,,,,
,414654074748,CAB,19/04/1999,001,2023-09-28_13h01.53.046,OS3_Mult_verification,2022.2.4,Win32,15.00060002,,,,,,,,,,,,,,,,,,,,,,,,,,,,,,,,,,,,,,,,,,,,,,,,,,,,,,,,,,,,,,,,,,,,,,,,,,,,,,,,,left,1,0.5521,,,,,,physical,3,1,3 | 1,2,0.065,0.05,congruent,left,0,17,17,12,1,,,,,,,,,,,,,,,,,,,,,,,,,,,,,,,,,,,,,,,,,,,,,,,,,,,,,,,,,,,,,,,,,,,,,,,,
,414654074748,CAB,19/04/1999,001,2023-09-28_13h01.53.046,OS3_Mult_verification,2022.2.4,Win32,15.00060002,,,,,,,,,,,,,,,,,,,,,,,,,,,,,,,,,,,,,,,,,,,,,,,,,,,,,,,,,,,,,,,,,,,,,,,,,,,,,,,,,left,1,0.5802,,,,,,physical,6,6,6 | 6,0,0.065,0.05,neutral,left,0,18,18,50,1,,,,,,,,,,,,,,,,,,,,,,,,,,,,,,,,,,,,,,,,,,,,,,,,,,,,,,,,,,,,,,,,,,,,,,,,
,414654074748,CAB,19/04/1999,001,2023-09-28_13h01.53.046,OS3_Mult_verification,2022.2.4,Win32,15.00060002,,,,,,,,,,,,,,,,,,,,,,,,,,,,,,,,,,,,,,,,,,,,,,,,,,,,,,,,,,,,,,,,,,,,,,,,,,,,,,,,,left,1,0.6258,,,,,,physical,2,2,2 | 2,0,0.065,0.05,neutral,left,0,19,19,52,1,,,,,,,,,,,,,,,,,,,,,,,,,,,,,,,,,,,,,,,,,,,,,,,,,,,,,,,,,,,,,,,,,,,,,,,,
,414654074748,CAB,19/04/1999,001,2023-09-28_13h01.53.046,OS3_Mult_verification,2022.2.4,Win32,15.00060002,,,,,,,,,,,,,,,,,,,,,,,,,,,,,,,,,,,,,,,,,,,,,,,,,,,,,,,,,,,,,,,,,,,,,,,,,,,,,,,,,right,1,0.635,,,,,,physical,4,4,4 | 4,0,0.05,0.065,neutral,right,0,20,20,61,1,,,,,,,,,,,,,,,,,,,,,,,,,,,,,,,,,,,,,,,,,,,,,,,,,,,,,,,,,,,,,,,,,,,,,,,,
,414654074748,CAB,19/04/1999,001,2023-09-28_13h01.53.046,OS3_Mult_verification,2022.2.4,Win32,15.00060002,,,,,,,,,,,,,,,,,,,,,,,,,,,,,,,,,,,,,,,,,,,,,,,,,,,,,,,,,,,,,,,,,,,,,,,,,,,,,,,,,left,1,0.6257,,,,,,physical,4,3,4 | 3,1,0.065,0.05,congruent,left,0,21,21,5,1,,,,,,,,,,,,,,,,,,,,,,,,,,,,,,,,,,,,,,,,,,,,,,,,,,,,,,,,,,,,,,,,,,,,,,,,
,414654074748,CAB,19/04/1999,001,2023-09-28_13h01.53.046,OS3_Mult_verification,2022.2.4,Win32,15.00060002,,,,,,,,,,,,,,,,,,,,,,,,,,,,,,,,,,,,,,,,,,,,,,,,,,,,,,,,,,,,,,,,,,,,,,,,,,,,,,,,,right,1,0.5306,,,,,,physical,6,7,6 | 7,1,0.05,0.065,congruent,right,0,22,22,2,1,,,,,,,,,,,,,,,,,,,,,,,,,,,,,,,,,,,,,,,,,,,,,,,,,,,,,,,,,,,,,,,,,,,,,,,,
,414654074748,CAB,19/04/1999,001,2023-09-28_13h01.53.046,OS3_Mult_verification,2022.2.4,Win32,15.00060002,,,,,,,,,,,,,,,,,,,,,,,,,,,,,,,,,,,,,,,,,,,,,,,,,,,,,,,,,,,,,,,,,,,,,,,,,,,,,,,,,right,1,0.6292,,,,,,physical,2,7,2 | 7,5,0.05,0.065,congruent,right,0,23,23,17,1,,,,,,,,,,,,,,,,,,,,,,,,,,,,,,,,,,,,,,,,,,,,,,,,,,,,,,,,,,,,,,,,,,,,,,,,
,414654074748,CAB,19/04/1999,001,2023-09-28_13h01.53.046,OS3_Mult_verification,2022.2.4,Win32,15.00060002,,,,,,,,,,,,,,,,,,,,,,,,,,,,,,,,,,,,,,,,,,,,,,,,,,,,,,,,,,,,,,,,,,,,,,,,,,,,,,,,,left,1,0.5257,,,,,,physical,7,9,7 | 9,2,0.065,0.05,incongruent,left,0,24,24,35,1,,,,,,,,,,,,,,,,,,,,,,,,,,,,,,,,,,,,,,,,,,,,,,,,,,,,,,,,,,,,,,,,,,,,,,,,
,414654074748,CAB,19/04/1999,001,2023-09-28_13h01.53.046,OS3_Mult_verification,2022.2.4,Win32,15.00060002,,,,,,,,,,,,,,,,,,,,,,,,,,,,,,,,,,,,,,,,,,,,,,,,,,,,,,,,,,,,,,,,,,,,,,,,,,,,,,,,,right,1,0.5396,,,,,,physical,8,9,8 | 9,1,0.05,0.065,congruent,right,0,25,25,3,1,,,,,,,,,,,,,,,,,,,,,,,,,,,,,,,,,,,,,,,,,,,,,,,,,,,,,,,,,,,,,,,,,,,,,,,,
,414654074748,CAB,19/04/1999,001,2023-09-28_13h01.53.046,OS3_Mult_verification,2022.2.4,Win32,15.00060002,,,,,,,,,,,,,,,,,,,,,,,,,,,,,,,,,,,,,,,,,,,,,,,,,,,,,,,,,,,,,,,,,,,,,,,,,,,,,,,,,right,1,0.629,,,,,,physical,2,4,2 | 4,2,0.05,0.065,congruent,right,0,26,26,9,1,,,,,,,,,,,,,,,,,,,,,,,,,,,,,,,,,,,,,,,,,,,,,,,,,,,,,,,,,,,,,,,,,,,,,,,,
,414654074748,CAB,19/04/1999,001,2023-09-28_13h01.53.046,OS3_Mult_verification,2022.2.4,Win32,15.00060002,,,,,,,,,,,,,,,,,,,,,,,,,,,,,,,,,,,,,,,,,,,,,,,,,,,,,,,,,,,,,,,,,,,,,,,,,,,,,,,,,left,1,0.5579,,,,,,physical,8,8,8 | 8,0,0.065,0.05,neutral,left,0,27,27,70,1,,,,,,,,,,,,,,,,,,,,,,,,,,,,,,,,,,,,,,,,,,,,,,,,,,,,,,,,,,,,,,,,,,,,,,,,
,414654074748,CAB,19/04/1999,001,2023-09-28_13h01.53.046,OS3_Mult_verification,2022.2.4,Win32,15.00060002,,,,,,,,,,,,,,,,,,,,,,,,,,,,,,,,,,,,,,,,,,,,,,,,,,,,,,,,,,,,,,,,,,,,,,,,,,,,,,,,,left,1,0.6356,,,,,,physical,9,7,9 | 7,2,0.065,0.05,congruent,left,0,28,28,15,1,,,,,,,,,,,,,,,,,,,,,,,,,,,,,,,,,,,,,,,,,,,,,,,,,,,,,,,,,,,,,,,,,,,,,,,,
,414654074748,CAB,19/04/1999,001,2023-09-28_13h01.53.046,OS3_Mult_verification,2022.2.4,Win32,15.00060002,,,,,,,,,,,,,,,,,,,,,,,,,,,,,,,,,,,,,,,,,,,,,,,,,,,,,,,,,,,,,,,,,,,,,,,,,,,,,,,,,right,1,0.6147,,,,,,physical,7,7,7 | 7,0,0.05,0.065,neutral,right,0,29,29,69,1,,,,,,,,,,,,,,,,,,,,,,,,,,,,,,,,,,,,,,,,,,,,,,,,,,,,,,,,,,,,,,,,,,,,,,,,
,414654074748,CAB,19/04/1999,001,2023-09-28_13h01.53.046,OS3_Mult_verification,2022.2.4,Win32,15.00060002,,,,,,,,,,,,,,,,,,,,,,,,,,,,,,,,,,,,,,,,,,,,,,,,,,,,,,,,,,,,,,,,,,,,,,,,,,,,,,,,,left,1,0.5692,,,,,,physical,8,6,8 | 6,2,0.065,0.05,congruent,left,0,30,30,14,1,,,,,,,,,,,,,,,,,,,,,,,,,,,,,,,,,,,,,,,,,,,,,,,,,,,,,,,,,,,,,,,,,,,,,,,,
,414654074748,CAB,19/04/1999,001,2023-09-28_13h01.53.046,OS3_Mult_verification,2022.2.4,Win32,15.00060002,,,,,,,,,,,,,,,,,,,,,,,,,,,,,,,,,,,,,,,,,,,,,,,,,,,,,,,,,,,,,,,,,,,,,,,,,,,,,,,,,right,1,0.6463,,,,,,physical,1,3,1 | 3,2,0.05,0.065,congruent,right,0,31,31,8,1,,,,,,,,,,,,,,,,,,,,,,,,,,,,,,,,,,,,,,,,,,,,,,,,,,,,,,,,,,,,,,,,,,,,,,,,
,414654074748,CAB,19/04/1999,001,2023-09-28_13h01.53.046,OS3_Mult_verification,2022.2.4,Win32,15.00060002,,,,,,,,,,,,,,,,,,,,,,,,,,,,,,,,,,,,,,,,,,,,,,,,,,,,,,,,,,,,,,,,,,,,,,,,,,,,,,,,,left,1,0.5385,,,,,,physical,3,3,3 | 3,0,0.065,0.05,neutral,left,0,32,32,66,1,,,,,,,,,,,,,,,,,,,,,,,,,,,,,,,,,,,,,,,,,,,,,,,,,,,,,,,,,,,,,,,,,,,,,,,,
,414654074748,CAB,19/04/1999,001,2023-09-28_13h01.53.046,OS3_Mult_verification,2022.2.4,Win32,15.00060002,,,,,,,,,,,,,,,,,,,,,,,,,,,,,,,,,,,,,,,,,,,,,,,,,,,,,,,,,,,,,,,,,,,,,,,,,,,,,,,,,left,1,0.6562,,,,,,physical,3,4,3 | 4,1,0.065,0.05,incongruent,left,0,33,33,25,1,,,,,,,,,,,,,,,,,,,,,,,,,,,,,,,,,,,,,,,,,,,,,,,,,,,,,,,,,,,,,,,,,,,,,,,,
,414654074748,CAB,19/04/1999,001,2023-09-28_13h01.53.046,OS3_Mult_verification,2022.2.4,Win32,15.00060002,,,,,,,,,,,,,,,,,,,,,,,,,,,,,,,,,,,,,,,,,,,,,,,,,,,,,,,,,,,,,,,,,,,,,,,,,,,,,,,,,left,1,0.6127,,,,,,physical,1,1,1 | 1,0,0.065,0.05,neutral,left,0,34,34,64,1,,,,,,,,,,,,,,,,,,,,,,,,,,,,,,,,,,,,,,,,,,,,,,,,,,,,,,,,,,,,,,,,,,,,,,,,
,414654074748,CAB,19/04/1999,001,2023-09-28_13h01.53.046,OS3_Mult_verification,2022.2.4,Win32,15.00060002,,,,,,,,,,,,,,,,,,,,,,,,,,,,,,,,,,,,,,,,,,,,,,,,,,,,,,,,,,,,,,,,,,,,,,,,,,,,,,,,,right,1,0.6215,,,,,,physical,3,1,3 | 1,2,0.05,0.065,incongruent,right,0,35,35,36,1,,,,,,,,,,,,,,,,,,,,,,,,,,,,,,,,,,,,,,,,,,,,,,,,,,,,,,,,,,,,,,,,,,,,,,,,
,414654074748,CAB,19/04/1999,001,2023-09-28_13h01.53.046,OS3_Mult_verification,2022.2.4,Win32,15.00060002,,,,,,,,,,,,,,,,,,,,,,,,,,,,,,,,,,,,,,,,,,,,,,,,,,,,,,,,,,,,,,,,,,,,,,,,,,,,,,,,,left,1,0.4613,,,,,,physical,6,1,6 | 1,5,0.065,0.05,congruent,left,0,36,36,20,1,,,,,,,,,,,,,,,,,,,,,,,,,,,,,,,,,,,,,,,,,,,,,,,,,,,,,,,,,,,,,,,,,,,,,,,,
,414654074748,CAB,19/04/1999,001,2023-09-28_13h01.53.046,OS3_Mult_verification,2022.2.4,Win32,15.00060002,,,,,,,,,,,,,,,,,,,,,,,,,,,,,,,,,,,,,,,,,,,,,,,,,,,,,,,,,,,,,,,,,,,,,,,,,,,,,,,,,left,1,0.6224,,,,,,physical,4,2,4 | 2,2,0.065,0.05,congruent,left,0,37,37,13,1,,,,,,,,,,,,,,,,,,,,,,,,,,,,,,,,,,,,,,,,,,,,,,,,,,,,,,,,,,,,,,,,,,,,,,,,
,414654074748,CAB,19/04/1999,001,2023-09-28_13h01.53.046,OS3_Mult_verification,2022.2.4,Win32,15.00060002,,,,,,,,,,,,,,,,,,,,,,,,,,,,,,,,,,,,,,,,,,,,,,,,,,,,,,,,,,,,,,,,,,,,,,,,,,,,,,,,,left,1,0.7238,,,,,,physical,6,7,6 | 7,1,0.065,0.05,incongruent,left,0,38,38,26,1,,,,,,,,,,,,,,,,,,,,,,,,,,,,,,,,,,,,,,,,,,,,,,,,,,,,,,,,,,,,,,,,,,,,,,,,
,414654074748,CAB,19/04/1999,001,2023-09-28_13h01.53.046,OS3_Mult_verification,2022.2.4,Win32,15.00060002,,,,,,,,,,,,,,,,,,,,,,,,,,,,,,,,,,,,,,,,,,,,,,,,,,,,,,,,,,,,,,,,,,,,,,,,,,,,,,,,,left,1,0.6325,,,,,,physical,2,1,2 | 1,1,0.065,0.05,congruent,left,0,39,39,4,1,,,,,,,,,,,,,,,,,,,,,,,,,,,,,,,,,,,,,,,,,,,,,,,,,,,,,,,,,,,,,,,,,,,,,,,,
,414654074748,CAB,19/04/1999,001,2023-09-28_13h01.53.046,OS3_Mult_verification,2022.2.4,Win32,15.00060002,,,,,,,,,,,,,,,,,,,,,,,,,,,,,,,,,,,,,,,,,,,,,,,,,,,,,,,,,,,,,,,,,,,,,,,,,,,,,,,,,right,1,0.6167,,,,,,physical,7,6,7 | 6,1,0.05,0.065,incongruent,right,0,40,40,30,1,,,,,,,,,,,,,,,,,,,,,,,,,,,,,,,,,,,,,,,,,,,,,,,,,,,,,,,,,,,,,,,,,,,,,,,,
,414654074748,CAB,19/04/1999,001,2023-09-28_13h01.53.046,OS3_Mult_verification,2022.2.4,Win32,15.00060002,,,,,,,,,,,,,,,,,,,,,,,,,,,,,,,,,,,,,,,,,,,,,,,,,,,,,,,,,,,,,,,,,,,,,,,,,,,,,,,,,right,1,0.6344,,,,,,physical,6,8,6 | 8,2,0.05,0.065,congruent,right,0,41,41,10,1,,,,,,,,,,,,,,,,,,,,,,,,,,,,,,,,,,,,,,,,,,,,,,,,,,,,,,,,,,,,,,,,,,,,,,,,
,414654074748,CAB,19/04/1999,001,2023-09-28_13h01.53.046,OS3_Mult_verification,2022.2.4,Win32,15.00060002,,,,,,,,,,,,,,,,,,,,,,,,,,,,,,,,,,,,,,,,,,,,,,,,,,,,,,,,,,,,,,,,,,,,,,,,,,,,,,,,,left,1,0.5355,,,,,,physical,9,9,9 | 9,0,0.065,0.05,neutral,left,0,42,42,55,1,,,,,,,,,,,,,,,,,,,,,,,,,,,,,,,,,,,,,,,,,,,,,,,,,,,,,,,,,,,,,,,,,,,,,,,,
,414654074748,CAB,19/04/1999,001,2023-09-28_13h01.53.046,OS3_Mult_verification,2022.2.4,Win32,15.00060002,,,,,,,,,,,,,,,,,,,,,,,,,,,,,,,,,,,,,,,,,,,,,,,,,,,,,,,,,,,,,,,,,,,,,,,,,,,,,,,,,left,1,0.5543,,,,,,physical,6,6,6 | 6,0,0.065,0.05,neutral,left,0,43,43,68,1,,,,,,,,,,,,,,,,,,,,,,,,,,,,,,,,,,,,,,,,,,,,,,,,,,,,,,,,,,,,,,,,,,,,,,,,
,414654074748,CAB,19/04/1999,001,2023-09-28_13h01.53.046,OS3_Mult_verification,2022.2.4,Win32,15.00060002,,,,,,,,,,,,,,,,,,,,,,,,,,,,,,,,,,,,,,,,,,,,,,,,,,,,,,,,,,,,,,,,,,,,,,,,,,,,,,,,,left,1,0.7305,,,,,,physical,6,8,6 | 8,2,0.065,0.05,incongruent,left,0,44,44,34,1,,,,,,,,,,,,,,,,,,,,,,,,,,,,,,,,,,,,,,,,,,,,,,,,,,,,,,,,,,,,,,,,,,,,,,,,
,414654074748,CAB,19/04/1999,001,2023-09-28_13h01.53.046,OS3_Mult_verification,2022.2.4,Win32,15.00060002,,,,,,,,,,,,,,,,,,,,,,,,,,,,,,,,,,,,,,,,,,,,,,,,,,,,,,,,,,,,,,,,,,,,,,,,,,,,,,,,,right,1,0.6198,,,,,,physical,1,6,1 | 6,5,0.05,0.065,congruent,right,0,45,45,16,1,,,,,,,,,,,,,,,,,,,,,,,,,,,,,,,,,,,,,,,,,,,,,,,,,,,,,,,,,,,,,,,,,,,,,,,,
,414654074748,CAB,19/04/1999,001,2023-09-28_13h01.53.046,OS3_Mult_verification,2022.2.4,Win32,15.00060002,,,,,,,,,,,,,,,,,,,,,,,,,,,,,,,,,,,,,,,,,,,,,,,,,,,,,,,,,,,,,,,,,,,,,,,,,,,,,,,,,left,1,0.5272,,,,,,physical,8,8,8 | 8,0,0.065,0.05,neutral,left,0,46,46,51,1,,,,,,,,,,,,,,,,,,,,,,,,,,,,,,,,,,,,,,,,,,,,,,,,,,,,,,,,,,,,,,,,,,,,,,,,
,414654074748,CAB,19/04/1999,001,2023-09-28_13h01.53.046,OS3_Mult_verification,2022.2.4,Win32,15.00060002,,,,,,,,,,,,,,,,,,,,,,,,,,,,,,,,,,,,,,,,,,,,,,,,,,,,,,,,,,,,,,,,,,,,,,,,,,,,,,,,,right,1,0.5464,,,,,,physical,2,2,2 | 2,0,0.05,0.065,neutral,right,0,47,47,57,1,,,,,,,,,,,,,,,,,,,,,,,,,,,,,,,,,,,,,,,,,,,,,,,,,,,,,,,,,,,,,,,,,,,,,,,,
,414654074748,CAB,19/04/1999,001,2023-09-28_13h01.53.046,OS3_Mult_verification,2022.2.4,Win32,15.00060002,,,,,,,,,,,,,,,,,,,,,,,,,,,,,,,,,,,,,,,,,,,,,,,,,,,,,,,,,,,,,,,,,,,,,,,,,,,,,,,,,right,1,0.627,,,,,,physical,9,8,9 | 8,1,0.05,0.065,incongruent,right,0,48,48,31,1,,,,,,,,,,,,,,,,,,,,,,,,,,,,,,,,,,,,,,,,,,,,,,,,,,,,,,,,,,,,,,,,,,,,,,,,
,414654074748,CAB,19/04/1999,001,2023-09-28_13h01.53.046,OS3_Mult_verification,2022.2.4,Win32,15.00060002,,,,,,,,,,,,,,,,,,,,,,,,,,,,,,,,,,,,,,,,,,,,,,,,,,,,,,,,,,,,,,,,,,,,,,,,,,,,,,,,,left,1,0.5567,,,,,,physical,3,3,3 | 3,0,0.065,0.05,neutral,left,0,49,49,49,1,,,,,,,,,,,,,,,,,,,,,,,,,,,,,,,,,,,,,,,,,,,,,,,,,,,,,,,,,,,,,,,,,,,,,,,,
,414654074748,CAB,19/04/1999,001,2023-09-28_13h01.53.046,OS3_Mult_verification,2022.2.4,Win32,15.00060002,,,,,,,,,,,,,,,,,,,,,,,,,,,,,,,,,,,,,,,,,,,,,,,,,,,,,,,,,,,,,,,,,,,,,,,,,,,,,,,,,left,1,0.5643,,,,,,physical,4,4,4 | 4,0,0.065,0.05,neutral,left,0,50,50,53,1,,,,,,,,,,,,,,,,,,,,,,,,,,,,,,,,,,,,,,,,,,,,,,,,,,,,,,,,,,,,,,,,,,,,,,,,
,414654074748,CAB,19/04/1999,001,2023-09-28_13h01.53.046,OS3_Mult_verification,2022.2.4,Win32,15.00060002,,,,,,,,,,,,,,,,,,,,,,,,,,,,,,,,,,,,,,,,,,,,,,,,,,,,,,,,,,,,,,,,,,,,,,,,,,,,,,,,,left,1,0.6419,,,,,,physical,7,2,7 | 2,5,0.065,0.05,congruent,left,0,51,51,21,1,,,,,,,,,,,,,,,,,,,,,,,,,,,,,,,,,,,,,,,,,,,,,,,,,,,,,,,,,,,,,,,,,,,,,,,,
,414654074748,CAB,19/04/1999,001,2023-09-28_13h01.53.046,OS3_Mult_verification,2022.2.4,Win32,15.00060002,,,,,,,,,,,,,,,,,,,,,,,,,,,,,,,,,,,,,,,,,,,,,,,,,,,,,,,,,,,,,,,,,,,,,,,,,,,,,,,,,right,1,0.5372,,,,,,physical,3,4,3 | 4,1,0.05,0.065,congruent,right,0,52,52,1,1,,,,,,,,,,,,,,,,,,,,,,,,,,,,,,,,,,,,,,,,,,,,,,,,,,,,,,,,,,,,,,,,,,,,,,,,
,414654074748,CAB,19/04/1999,001,2023-09-28_13h01.53.046,OS3_Mult_verification,2022.2.4,Win32,15.00060002,,,,,,,,,,,,,,,,,,,,,,,,,,,,,,,,,,,,,,,,,,,,,,,,,,,,,,,,,,,,,,,,,,,,,,,,,,,,,,,,,right,1,0.6485,,,,,,physical,7,2,7 | 2,5,0.05,0.065,incongruent,right,0,53,53,45,1,,,,,,,,,,,,,,,,,,,,,,,,,,,,,,,,,,,,,,,,,,,,,,,,,,,,,,,,,,,,,,,,,,,,,,,,
,414654074748,CAB,19/04/1999,001,2023-09-28_13h01.53.046,OS3_Mult_verification,2022.2.4,Win32,15.00060002,,,,,,,,,,,,,,,,,,,,,,,,,,,,,,,,,,,,,,,,,,,,,,,,,,,,,,,,,,,,,,,,,,,,,,,,,,,,,,,,,right,1,0.6311,,,,,,physical,3,3,3 | 3,0,0.05,0.065,neutral,right,0,54,54,60,1,,,,,,,,,,,,,,,,,,,,,,,,,,,,,,,,,,,,,,,,,,,,,,,,,,,,,,,,,,,,,,,,,,,,,,,,
,414654074748,CAB,19/04/1999,001,2023-09-28_13h01.53.046,OS3_Mult_verification,2022.2.4,Win32,15.00060002,,,,,,,,,,,,,,,,,,,,,,,,,,,,,,,,,,,,,,,,,,,,,,,,,,,,,,,,,,,,,,,,,,,,,,,,,,,,,,,,,left,1,0.6189,,,,,,physical,8,3,8 | 3,5,0.065,0.05,congruent,left,0,55,55,22,1,,,,,,,,,,,,,,,,,,,,,,,,,,,,,,,,,,,,,,,,,,,,,,,,,,,,,,,,,,,,,,,,,,,,,,,,
,414654074748,CAB,19/04/1999,001,2023-09-28_13h01.53.046,OS3_Mult_verification,2022.2.4,Win32,15.00060002,,,,,,,,,,,,,,,,,,,,,,,,,,,,,,,,,,,,,,,,,,,,,,,,,,,,,,,,,,,,,,,,,,,,,,,,,,,,,,,,,right,1,0.5661,,,,,,physical,9,9,9 | 9,0,0.05,0.065,neutral,right,0,56,56,63,1,,,,,,,,,,,,,,,,,,,,,,,,,,,,,,,,,,,,,,,,,,,,,,,,,,,,,,,,,,,,,,,,,,,,,,,,
,414654074748,CAB,19/04/1999,001,2023-09-28_13h01.53.046,OS3_Mult_verification,2022.2.4,Win32,15.00060002,,,,,,,,,,,,,,,,,,,,,,,,,,,,,,,,,,,,,,,,,,,,,,,,,,,,,,,,,,,,,,,,,,,,,,,,,,,,,,,,,right,1,0.7308,,,,,,physical,6,1,6 | 1,5,0.05,0.065,incongruent,right,0,57,57,44,1,,,,,,,,,,,,,,,,,,,,,,,,,,,,,,,,,,,,,,,,,,,,,,,,,,,,,,,,,,,,,,,,,,,,,,,,
,414654074748,CAB,19/04/1999,001,2023-09-28_13h01.53.046,OS3_Mult_verification,2022.2.4,Win32,15.00060002,,,,,,,,,,,,,,,,,,,,,,,,,,,,,,,,,,,,,,,,,,,,,,,,,,,,,,,,,,,,,,,,,,,,,,,,,,,,,,,,,left,1,0.6428,,,,,,physical,2,4,2 | 4,2,0.065,0.05,incongruent,left,0,58,58,33,1,,,,,,,,,,,,,,,,,,,,,,,,,,,,,,,,,,,,,,,,,,,,,,,,,,,,,,,,,,,,,,,,,,,,,,,,
,414654074748,CAB,19/04/1999,001,2023-09-28_13h01.53.046,OS3_Mult_verification,2022.2.4,Win32,15.00060002,,,,,,,,,,,,,,,,,,,,,,,,,,,,,,,,,,,,,,,,,,,,,,,,,,,,,,,,,,,,,,,,,,,,,,,,,,,,,,,,,right,1,0.635,,,,,,physical,8,8,8 | 8,0,0.05,0.065,neutral,right,0,59,59,62,1,,,,,,,,,,,,,,,,,,,,,,,,,,,,,,,,,,,,,,,,,,,,,,,,,,,,,,,,,,,,,,,,,,,,,,,,
,414654074748,CAB,19/04/1999,001,2023-09-28_13h01.53.046,OS3_Mult_verification,2022.2.4,Win32,15.00060002,,,,,,,,,,,,,,,,,,,,,,,,,,,,,,,,,,,,,,,,,,,,,,,,,,,,,,,,,,,,,,,,,,,,,,,,,,,,,,,,,right,1,0.5841,,,,,,physical,7,7,7 | 7,0,0.05,0.065,neutral,right,0,60,60,59,1,,,,,,,,,,,,,,,,,,,,,,,,,,,,,,,,,,,,,,,,,,,,,,,,,,,,,,,,,,,,,,,,,,,,,,,,
,414654074748,CAB,19/04/1999,001,2023-09-28_13h01.53.046,OS3_Mult_verification,2022.2.4,Win32,15.00060002,,,,,,,,,,,,,,,,,,,,,,,,,,,,,,,,,,,,,,,,,,,,,,,,,,,,,,,,,,,,,,,,,,,,,,,,,,,,,,,,,right,1,0.6687,,,,,,physical,7,9,7 | 9,2,0.05,0.065,congruent,right,0,61,61,11,1,,,,,,,,,,,,,,,,,,,,,,,,,,,,,,,,,,,,,,,,,,,,,,,,,,,,,,,,,,,,,,,,,,,,,,,,
,414654074748,CAB,19/04/1999,001,2023-09-28_13h01.53.046,OS3_Mult_verification,2022.2.4,Win32,15.00060002,,,,,,,,,,,,,,,,,,,,,,,,,,,,,,,,,,,,,,,,,,,,,,,,,,,,,,,,,,,,,,,,,,,,,,,,,,,,,,,,,right,1,0.9067,,,,,,physical,4,2,4 | 2,2,0.05,0.065,incongruent,right,0,62,62,37,1,,,,,,,,,,,,,,,,,,,,,,,,,,,,,,,,,,,,,,,,,,,,,,,,,,,,,,,,,,,,,,,,,,,,,,,,
,414654074748,CAB,19/04/1999,001,2023-09-28_13h01.53.046,OS3_Mult_verification,2022.2.4,Win32,15.00060002,,,,,,,,,,,,,,,,,,,,,,,,,,,,,,,,,,,,,,,,,,,,,,,,,,,,,,,,,,,,,,,,,,,,,,,,,,,,,,,,,right,1,0.6546,,,,,,physical,9,4,9 | 4,5,0.05,0.065,incongruent,right,0,63,63,47,1,,,,,,,,,,,,,,,,,,,,,,,,,,,,,,,,,,,,,,,,,,,,,,,,,,,,,,,,,,,,,,,,,,,,,,,,
,414654074748,CAB,19/04/1999,001,2023-09-28_13h01.53.046,OS3_Mult_verification,2022.2.4,Win32,15.00060002,,,,,,,,,,,,,,,,,,,,,,,,,,,,,,,,,,,,,,,,,,,,,,,,,,,,,,,,,,,,,,,,,,,,,,,,,,,,,,,,,right,1,0.7065,,,,,,physical,6,6,6 | 6,0,0.05,0.065,neutral,right,0,64,64,58,1,,,,,,,,,,,,,,,,,,,,,,,,,,,,,,,,,,,,,,,,,,,,,,,,,,,,,,,,,,,,,,,,,,,,,,,,
,414654074748,CAB,19/04/1999,001,2023-09-28_13h01.53.046,OS3_Mult_verification,2022.2.4,Win32,15.00060002,,,,,,,,,,,,,,,,,,,,,,,,,,,,,,,,,,,,,,,,,,,,,,,,,,,,,,,,,,,,,,,,,,,,,,,,,,,,,,,,,right,1,0.6151,,,,,,physical,8,6,8 | 6,2,0.05,0.065,incongruent,right,0,65,65,38,1,,,,,,,,,,,,,,,,,,,,,,,,,,,,,,,,,,,,,,,,,,,,,,,,,,,,,,,,,,,,,,,,,,,,,,,,
,414654074748,CAB,19/04/1999,001,2023-09-28_13h01.53.046,OS3_Mult_verification,2022.2.4,Win32,15.00060002,,,,,,,,,,,,,,,,,,,,,,,,,,,,,,,,,,,,,,,,,,,,,,,,,,,,,,,,,,,,,,,,,,,,,,,,,,,,,,,,,left,1,0.6144,,,,,,physical,7,7,7 | 7,0,0.065,0.05,neutral,left,0,66,66,54,1,,,,,,,,,,,,,,,,,,,,,,,,,,,,,,,,,,,,,,,,,,,,,,,,,,,,,,,,,,,,,,,,,,,,,,,,
,414654074748,CAB,19/04/1999,001,2023-09-28_13h01.53.046,OS3_Mult_verification,2022.2.4,Win32,15.00060002,,,,,,,,,,,,,,,,,,,,,,,,,,,,,,,,,,,,,,,,,,,,,,,,,,,,,,,,,,,,,,,,,,,,,,,,,,,,,,,,,right,1,0.6475,,,,,,physical,9,7,9 | 7,2,0.05,0.065,incongruent,right,0,67,67,39,1,,,,,,,,,,,,,,,,,,,,,,,,,,,,,,,,,,,,,,,,,,,,,,,,,,,,,,,,,,,,,,,,,,,,,,,,
,414654074748,CAB,19/04/1999,001,2023-09-28_13h01.53.046,OS3_Mult_verification,2022.2.4,Win32,15.00060002,,,,,,,,,,,,,,,,,,,,,,,,,,,,,,,,,,,,,,,,,,,,,,,,,,,,,,,,,,,,,,,,,,,,,,,,,,,,,,,,,left,1,0.5553,,,,,,physical,9,8,9 | 8,1,0.065,0.05,congruent,left,0,68,68,7,1,,,,,,,,,,,,,,,,,,,,,,,,,,,,,,,,,,,,,,,,,,,,,,,,,,,,,,,,,,,,,,,,,,,,,,,,
,414654074748,CAB,19/04/1999,001,2023-09-28_13h01.53.046,OS3_Mult_verification,2022.2.4,Win32,15.00060002,,,,,,,,,,,,,,,,,,,,,,,,,,,,,,,,,,,,,,,,,,,,,,,,,,,,,,,,,,,,,,,,,,,,,,,,,,,,,,,,,left,1,0.6198,,,,,,physical,1,2,1 | 2,1,0.065,0.05,incongruent,left,0,69,69,24,1,,,,,,,,,,,,,,,,,,,,,,,,,,,,,,,,,,,,,,,,,,,,,,,,,,,,,,,,,,,,,,,,,,,,,,,,
,414654074748,CAB,19/04/1999,001,2023-09-28_13h01.53.046,OS3_Mult_verification,2022.2.4,Win32,15.00060002,,,,,,,,,,,,,,,,,,,,,,,,,,,,,,,,,,,,,,,,,,,,,,,,,,,,,,,,,,,,,,,,,,,,,,,,,,,,,,,,,left,1,0.5585,,,,,,physical,1,1,1 | 1,0,0.065,0.05,neutral,left,0,70,70,48,1,,,,,,,,,,,,,,,,,,,,,,,,,,,,,,,,,,,,,,,,,,,,,,,,,,,,,,,,,,,,,,,,,,,,,,,,
,414654074748,CAB,19/04/1999,001,2023-09-28_13h01.53.046,OS3_Mult_verification,2022.2.4,Win32,15.00060002,,,,,,,,,,,,,,,,,,,,,,,,,,,,,,,,,,,,,,,,,,,,,,,,,,,,,,,,,,,,,,,,,,,,,,,,,,,,,,,,,left,1,0.7171,,,,,,physical,4,9,4 | 9,5,0.065,0.05,incongruent,left,0,71,71,43,1,,,,,,,,,,,,,,,,,,,,,,,,,,,,,,,,,,,,,,,,,,,,,,,,,,,,,,,,,,,,,,,,,,,,,,,,
,414654074748,CAB,19/04/1999,001,2023-09-28_13h01.53.046,OS3_Mult_verification,2022.2.4,Win32,15.00060002,,,,,,,,,,,,,,,,,,,,,,,,,,,,,,,,,,,,,,,,,,,,,,,,,,,,,,,,,,,,,,,,,,,,,,,,,,,,,,,,,,,,,,,,,,,,,,,,,,,,,,,0,0,0,1,1,stroop_stim/physical.xlsx,stroop_stim/prac_physical.xlsx,PHYSICALLY larger (larger font size).,images/physicallyLarger.png,,,,,,,,,,,,,,,,,,,,,,,,,,,,,,,,,,,,,,,,,,,,,,,,,,,,,,,,,,,,,,,
,414654074748,CAB,19/04/1999,001,2023-09-28_13h01.53.046,OS3_Mult_verification,2022.2.4,Win32,15.00060002,,,,,,,,,,,,,,,,space,1.9488,,,,,,,,,,,,,,,,,,,,,,,,,,,,,,,,,,,,,,,,,,,,,,,,,,,,,,,,,,,,,,,,right,1,1.0637,0,0,0,2,1,practice,4,9,4 | 9,5,0.06,0.06,neutral,right,,,,,,,,,,,,,,,,,,,,,,,,,,,,,,,,,,,,,,,,,,,,,,,,,,,,,,,,,,,,,,,,,,,,,,,,,,,,,
,414654074748,CAB,19/04/1999,001,2023-09-28_13h01.53.046,OS3_Mult_verification,2022.2.4,Win32,15.00060002,,,,,,,,,,,,,,,,,,,,,,,,,,,,,,,,,,,,,,,,,,,,,,,,,,,,,,,,,,,,,,,,,,,,,,,,,,,,,,,,,right,1,0.8073,0,1,1,0,1,practice,1,2,1 | 2,1,0.05,0.065,congruent,right,,,,,,,,,,,,,,,,,,,,,,,,,,,,,,,,,,,,,,,,,,,,,,,,,,,,,,,,,,,,,,,,,,,,,,,,,,,,,
,414654074748,CAB,19/04/1999,001,2023-09-28_13h01.53.046,OS3_Mult_verification,2022.2.4,Win32,15.00060002,,,,,,,,,,,,,,,,,,,,,,,,,,,,,,,,,,,,,,,,,,,,,,,,,,,,,,,,,,,,,,,,,,,,,,,,,,,,,,,,,right,1,1.1692,0,2,2,1,1,practice,7,8,7 | 8,1,0.065,0.05,incongruent,right,,,,,,,,,,,,,,,,,,,,,,,,,,,,,,,,,,,,,,,,,,,,,,,,,,,,,,,,,,,,,,,,,,,,,,,,,,,,,
,414654074748,CAB,19/04/1999,001,2023-09-28_13h01.53.046,OS3_Mult_verification,2022.2.4,Win32,15.00060002,,,,,,,,,,,,,,,,,,,,,,,,,,,,,,,,,,,,,,,,,,,,,,,,,,,,,,,,,,,,,,,,,,,,,,,,,,,,,,,,,left,1,0.9915,,,,,,magnitude,7,6,7 | 6,1,0.06,0.06,neutral,left,0,0,0,54,1,,,,,,,,,,,,,,,,,,,,,,,,,,,,,,,,,,,,,,,,,,,,,,,,,,,,,,,,,,,,,,,,,,,,,,,,
,414654074748,CAB,19/04/1999,001,2023-09-28_13h01.53.046,OS3_Mult_verification,2022.2.4,Win32,15.00060002,,,,,,,,,,,,,,,,,,,,,,,,,,,,,,,,,,,,,,,,,,,,,,,,,,,,,,,,,,,,,,,,,,,,,,,,,,,,,,,,,left,1,0.8089,,,,,,magnitude,8,3,8 | 3,5,0.05,0.065,incongruent,left,0,1,1,46,1,,,,,,,,,,,,,,,,,,,,,,,,,,,,,,,,,,,,,,,,,,,,,,,,,,,,,,,,,,,,,,,,,,,,,,,,
,414654074748,CAB,19/04/1999,001,2023-09-28_13h01.53.046,OS3_Mult_verification,2022.2.4,Win32,15.00060002,,,,,,,,,,,,,,,,,,,,,,,,,,,,,,,,,,,,,,,,,,,,,,,,,,,,,,,,,,,,,,,,,,,,,,,,,,,,,,,,,left,1,0.812,,,,,,magnitude,9,8,9 | 8,1,0.06,0.06,neutral,left,0,2,2,55,1,,,,,,,,,,,,,,,,,,,,,,,,,,,,,,,,,,,,,,,,,,,,,,,,,,,,,,,,,,,,,,,,,,,,,,,,
,414654074748,CAB,19/04/1999,001,2023-09-28_13h01.53.046,OS3_Mult_verification,2022.2.4,Win32,15.00060002,,,,,,,,,,,,,,,,,,,,,,,,,,,,,,,,,,,,,,,,,,,,,,,,,,,,,,,,,,,,,,,,,,,,,,,,,,,,,,,,,right,1,0.7833,,,,,,magnitude,6,8,6 | 8,2,0.065,0.05,incongruent,right,0,3,3,34,1,,,,,,,,,,,,,,,,,,,,,,,,,,,,,,,,,,,,,,,,,,,,,,,,,,,,,,,,,,,,,,,,,,,,,,,,
,414654074748,CAB,19/04/1999,001,2023-09-28_13h01.53.046,OS3_Mult_verification,2022.2.4,Win32,15.00060002,,,,,,,,,,,,,,,,,,,,,,,,,,,,,,,,,,,,,,,,,,,,,,,,,,,,,,,,,,,,,,,,,,,,,,,,,,,,,,,,,left,1,0.8164,,,,,,magnitude,4,3,4 | 3,1,0.06,0.06,neutral,left,0,4,4,53,1,,,,,,,,,,,,,,,,,,,,,,,,,,,,,,,,,,,,,,,,,,,,,,,,,,,,,,,,,,,,,,,,,,,,,,,,
,414654074748,CAB,19/04/1999,001,2023-09-28_13h01.53.046,OS3_Mult_verification,2022.2.4,Win32,15.00060002,,,,,,,,,,,,,,,,,,,,,,,,,,,,,,,,,,,,,,,,,,,,,,,,,,,,,,,,,,,,,,,,,,,,,,,,,,,,,,,,,right,1,0.7931,,,,,,magnitude,3,4,3 | 4,1,0.06,0.06,neutral,right,0,5,5,49,1,,,,,,,,,,,,,,,,,,,,,,,,,,,,,,,,,,,,,,,,,,,,,,,,,,,,,,,,,,,,,,,,,,,,,,,,
,414654074748,CAB,19/04/1999,001,2023-09-28_13h01.53.046,OS3_Mult_verification,2022.2.4,Win32,15.00060002,,,,,,,,,,,,,,,,,,,,,,,,,,,,,,,,,,,,,,,,,,,,,,,,,,,,,,,,,,,,,,,,,,,,,,,,,,,,,,,,,left,1,0.7873,,,,,,magnitude,4,3,4 | 3,1,0.05,0.065,incongruent,left,0,6,6,29,1,,,,,,,,,,,,,,,,,,,,,,,,,,,,,,,,,,,,,,,,,,,,,,,,,,,,,,,,,,,,,,,,,,,,,,,,
,414654074748,CAB,19/04/1999,001,2023-09-28_13h01.53.046,OS3_Mult_verification,2022.2.4,Win32,15.00060002,,,,,,,,,,,,,,,,,,,,,,,,,,,,,,,,,,,,,,,,,,,,,,,,,,,,,,,,,,,,,,,,,,,,,,,,,,,,,,,,,left,1,0.707,,,,,,magnitude,6,1,6 | 1,5,0.065,0.05,congruent,left,0,7,7,20,1,,,,,,,,,,,,,,,,,,,,,,,,,,,,,,,,,,,,,,,,,,,,,,,,,,,,,,,,,,,,,,,,,,,,,,,,
,414654074748,CAB,19/04/1999,001,2023-09-28_13h01.53.046,OS3_Mult_verification,2022.2.4,Win32,15.00060002,,,,,,,,,,,,,,,,,,,,,,,,,,,,,,,,,,,,,,,,,,,,,,,,,,,,,,,,,,,,,,,,,,,,,,,,,,,,,,,,,right,1,0.883,,,,,,magnitude,1,3,1 | 3,2,0.05,0.065,congruent,right,0,8,8,8,1,,,,,,,,,,,,,,,,,,,,,,,,,,,,,,,,,,,,,,,,,,,,,,,,,,,,,,,,,,,,,,,,,,,,,,,,
,414654074748,CAB,19/04/1999,001,2023-09-28_13h01.53.046,OS3_Mult_verification,2022.2.4,Win32,15.00060002,,,,,,,,,,,,,,,,,,,,,,,,,,,,,,,,,,,,,,,,,,,,,,,,,,,,,,,,,,,,,,,,,,,,,,,,,,,,,,,,,right,1,1.0326,,,,,,magnitude,7,9,7 | 9,2,0.05,0.065,congruent,right,0,9,9,11,1,,,,,,,,,,,,,,,,,,,,,,,,,,,,,,,,,,,,,,,,,,,,,,,,,,,,,,,,,,,,,,,,,,,,,,,,
,414654074748,CAB,19/04/1999,001,2023-09-28_13h01.53.046,OS3_Mult_verification,2022.2.4,Win32,15.00060002,,,,,,,,,,,,,,,,,,,,,,,,,,,,,,,,,,,,,,,,,,,,,,,,,,,,,,,,,,,,,,,,,,,,,,,,,,,,,,,,,left,1,0.7167,,,,,,magnitude,9,4,9 | 4,5,0.065,0.05,congruent,left,0,10,10,23,1,,,,,,,,,,,,,,,,,,,,,,,,,,,,,,,,,,,,,,,,,,,,,,,,,,,,,,,,,,,,,,,,,,,,,,,,
,414654074748,CAB,19/04/1999,001,2023-09-28_13h01.53.046,OS3_Mult_verification,2022.2.4,Win32,15.00060002,,,,,,,,,,,,,,,,,,,,,,,,,,,,,,,,,,,,,,,,,,,,,,,,,,,,,,,,,,,,,,,,,,,,,,,,,,,,,,,,,left,1,0.8917,,,,,,magnitude,7,6,7 | 6,1,0.065,0.05,congruent,left,0,11,11,6,1,,,,,,,,,,,,,,,,,,,,,,,,,,,,,,,,,,,,,,,,,,,,,,,,,,,,,,,,,,,,,,,,,,,,,,,,
,414654074748,CAB,19/04/1999,001,2023-09-28_13h01.53.046,OS3_Mult_verification,2022.2.4,Win32,15.00060002,,,,,,,,,,,,,,,,,,,,,,,,,,,,,,,,,,,,,,,,,,,,,,,,,,,,,,,,,,,,,,,,,,,,,,,,,,,,,,,,,right,1,0.8387,,,,,,magnitude,4,9,4 | 9,5,0.065,0.05,incongruent,right,0,12,12,43,1,,,,,,,,,,,,,,,,,,,,,,,,,,,,,,,,,,,,,,,,,,,,,,,,,,,,,,,,,,,,,,,,,,,,,,,,
,414654074748,CAB,19/04/1999,001,2023-09-28_13h01.53.046,OS3_Mult_verification,2022.2.4,Win32,15.00060002,,,,,,,,,,,,,,,,,,,,,,,,,,,,,,,,,,,,,,,,,,,,,,,,,,,,,,,,,,,,,,,,,,,,,,,,,,,,,,,,,right,1,0.6904,,,,,,magnitude,3,8,3 | 8,5,0.05,0.065,congruent,right,0,13,13,18,1,,,,,,,,,,,,,,,,,,,,,,,,,,,,,,,,,,,,,,,,,,,,,,,,,,,,,,,,,,,,,,,,,,,,,,,,
,414654074748,CAB,19/04/1999,001,2023-09-28_13h01.53.046,OS3_Mult_verification,2022.2.4,Win32,15.00060002,,,,,,,,,,,,,,,,,,,,,,,,,,,,,,,,,,,,,,,,,,,,,,,,,,,,,,,,,,,,,,,,,,,,,,,,,,,,,,,,,right,1,0.7417,,,,,,magnitude,1,6,1 | 6,5,0.05,0.065,congruent,right,0,14,14,16,1,,,,,,,,,,,,,,,,,,,,,,,,,,,,,,,,,,,,,,,,,,,,,,,,,,,,,,,,,,,,,,,,,,,,,,,,
,414654074748,CAB,19/04/1999,001,2023-09-28_13h01.53.046,OS3_Mult_verification,2022.2.4,Win32,15.00060002,,,,,,,,,,,,,,,,,,,,,,,,,,,,,,,,,,,,,,,,,,,,,,,,,,,,,,,,,,,,,,,,,,,,,,,,,,,,,,,,,right,1,0.7885,,,,,,magnitude,1,2,1 | 2,1,0.05,0.065,congruent,right,0,15,15,0,1,,,,,,,,,,,,,,,,,,,,,,,,,,,,,,,,,,,,,,,,,,,,,,,,,,,,,,,,,,,,,,,,,,,,,,,,
,414654074748,CAB,19/04/1999,001,2023-09-28_13h01.53.046,OS3_Mult_verification,2022.2.4,Win32,15.00060002,,,,,,,,,,,,,,,,,,,,,,,,,,,,,,,,,,,,,,,,,,,,,,,,,,,,,,,,,,,,,,,,,,,,,,,,,,,,,,,,,right,1,0.6967,,,,,,magnitude,1,6,1 | 6,5,0.06,0.06,neutral,right,0,16,16,64,1,,,,,,,,,,,,,,,,,,,,,,,,,,,,,,,,,,,,,,,,,,,,,,,,,,,,,,,,,,,,,,,,,,,,,,,,
,414654074748,CAB,19/04/1999,001,2023-09-28_13h01.53.046,OS3_Mult_verification,2022.2.4,Win32,15.00060002,,,,,,,,,,,,,,,,,,,,,,,,,,,,,,,,,,,,,,,,,,,,,,,,,,,,,,,,,,,,,,,,,,,,,,,,,,,,,,,,,left,1,0.8089,,,,,,magnitude,9,7,9 | 7,2,0.06,0.06,neutral,left,0,17,17,63,1,,,,,,,,,,,,,,,,,,,,,,,,,,,,,,,,,,,,,,,,,,,,,,,,,,,,,,,,,,,,,,,,,,,,,,,,
,414654074748,CAB,19/04/1999,001,2023-09-28_13h01.53.046,OS3_Mult_verification,2022.2.4,Win32,15.00060002,,,,,,,,,,,,,,,,,,,,,,,,,,,,,,,,,,,,,,,,,,,,,,,,,,,,,,,,,,,,,,,,,,,,,,,,,,,,,,,,,right,1,0.9956,,,,,,magnitude,1,6,1 | 6,5,0.065,0.05,incongruent,right,0,18,18,40,1,,,,,,,,,,,,,,,,,,,,,,,,,,,,,,,,,,,,,,,,,,,,,,,,,,,,,,,,,,,,,,,,,,,,,,,,
,414654074748,CAB,19/04/1999,001,2023-09-28_13h01.53.046,OS3_Mult_verification,2022.2.4,Win32,15.00060002,,,,,,,,,,,,,,,,,,,,,,,,,,,,,,,,,,,,,,,,,,,,,,,,,,,,,,,,,,,,,,,,,,,,,,,,,,,,,,,,,right,1,0.9524,,,,,,magnitude,2,7,2 | 7,5,0.065,0.05,incongruent,right,0,19,19,41,1,,,,,,,,,,,,,,,,,,,,,,,,,,,,,,,,,,,,,,,,,,,,,,,,,,,,,,,,,,,,,,,,,,,,,,,,
,414654074748,CAB,19/04/1999,001,2023-09-28_13h01.53.046,OS3_Mult_verification,2022.2.4,Win32,15.00060002,,,,,,,,,,,,,,,,,,,,,,,,,,,,,,,,,,,,,,,,,,,,,,,,,,,,,,,,,,,,,,,,,,,,,,,,,,,,,,,,,right,1,0.6944,,,,,,magnitude,3,8,3 | 8,5,0.06,0.06,neutral,right,0,20,20,66,1,,,,,,,,,,,,,,,,,,,,,,,,,,,,,,,,,,,,,,,,,,,,,,,,,,,,,,,,,,,,,,,,,,,,,,,,
,414654074748,CAB,19/04/1999,001,2023-09-28_13h01.53.046,OS3_Mult_verification,2022.2.4,Win32,15.00060002,,,,,,,,,,,,,,,,,,,,,,,,,,,,,,,,,,,,,,,,,,,,,,,,,,,,,,,,,,,,,,,,,,,,,,,,,,,,,,,,,left,1,0.8167,,,,,,magnitude,3,1,3 | 1,2,0.065,0.05,congruent,left,0,21,21,12,1,,,,,,,,,,,,,,,,,,,,,,,,,,,,,,,,,,,,,,,,,,,,,,,,,,,,,,,,,,,,,,,,,,,,,,,,
,414654074748,CAB,19/04/1999,001,2023-09-28_13h01.53.046,OS3_Mult_verification,2022.2.4,Win32,15.00060002,,,,,,,,,,,,,,,,,,,,,,,,,,,,,,,,,,,,,,,,,,,,,,,,,,,,,,,,,,,,,,,,,,,,,,,,,,,,,,,,,right,1,0.6494,,,,,,magnitude,1,2,1 | 2,1,0.06,0.06,neutral,right,0,22,22,48,1,,,,,,,,,,,,,,,,,,,,,,,,,,,,,,,,,,,,,,,,,,,,,,,,,,,,,,,,,,,,,,,,,,,,,,,,
,414654074748,CAB,19/04/1999,001,2023-09-28_13h01.53.046,OS3_Mult_verification,2022.2.4,Win32,15.00060002,,,,,,,,,,,,,,,,,,,,,,,,,,,,,,,,,,,,,,,,,,,,,,,,,,,,,,,,,,,,,,,,,,,,,,,,,,,,,,,,,left,1,0.728,,,,,,magnitude,9,4,9 | 4,5,0.05,0.065,incongruent,left,0,23,23,47,1,,,,,,,,,,,,,,,,,,,,,,,,,,,,,,,,,,,,,,,,,,,,,,,,,,,,,,,,,,,,,,,,,,,,,,,,
,414654074748,CAB,19/04/1999,001,2023-09-28_13h01.53.046,OS3_Mult_verification,2022.2.4,Win32,15.00060002,,,,,,,,,,,,,,,,,,,,,,,,,,,,,,,,,,,,,,,,,,,,,,,,,,,,,,,,,,,,,,,,,,,,,,,,,,,,,,,,,left,1,0.82,,,,,,magnitude,7,6,7 | 6,1,0.05,0.065,incongruent,left,0,24,24,30,1,,,,,,,,,,,,,,,,,,,,,,,,,,,,,,,,,,,,,,,,,,,,,,,,,,,,,,,,,,,,,,,,,,,,,,,,
,414654074748,CAB,19/04/1999,001,2023-09-28_13h01.53.046,OS3_Mult_verification,2022.2.4,Win32,15.00060002,,,,,,,,,,,,,,,,,,,,,,,,,,,,,,,,,,,,,,,,,,,,,,,,,,,,,,,,,,,,,,,,,,,,,,,,,,,,,,,,,right,1,0.9719,,,,,,magnitude,3,8,3 | 8,5,0.065,0.05,incongruent,right,0,25,25,42,1,,,,,,,,,,,,,,,,,,,,,,,,,,,,,,,,,,,,,,,,,,,,,,,,,,,,,,,,,,,,,,,,,,,,,,,,
,414654074748,CAB,19/04/1999,001,2023-09-28_13h01.53.046,OS3_Mult_verification,2022.2.4,Win32,15.00060002,,,,,,,,,,,,,,,,,,,,,,,,,,,,,,,,,,,,,,,,,,,,,,,,,,,,,,,,,,,,,,,,,,,,,,,,,,,,,,,,,left,1,0.7254,,,,,,magnitude,3,1,3 | 1,2,0.06,0.06,neutral,left,0,26,26,60,1,,,,,,,,,,,,,,,,,,,,,,,,,,,,,,,,,,,,,,,,,,,,,,,,,,,,,,,,,,,,,,,,,,,,,,,,
,414654074748,CAB,19/04/1999,001,2023-09-28_13h01.53.046,OS3_Mult_verification,2022.2.4,Win32,15.00060002,,,,,,,,,,,,,,,,,,,,,,,,,,,,,,,,,,,,,,,,,,,,,,,,,,,,,,,,,,,,,,,,,,,,,,,,,,,,,,,,,right,1,0.8945,,,,,,magnitude,1,3,1 | 3,2,0.065,0.05,incongruent,right,0,27,27,32,1,,,,,,,,,,,,,,,,,,,,,,,,,,,,,,,,,,,,,,,,,,,,,,,,,,,,,,,,,,,,,,,,,,,,,,,,
,414654074748,CAB,19/04/1999,001,2023-09-28_13h01.53.046,OS3_Mult_verification,2022.2.4,Win32,15.00060002,,,,,,,,,,,,,,,,,,,,,,,,,,,,,,,,,,,,,,,,,,,,,,,,,,,,,,,,,,,,,,,,,,,,,,,,,,,,,,,,,left,1,0.9087,,,,,,magnitude,8,6,8 | 6,2,0.06,0.06,neutral,left,0,28,28,62,1,,,,,,,,,,,,,,,,,,,,,,,,,,,,,,,,,,,,,,,,,,,,,,,,,,,,,,,,,,,,,,,,,,,,,,,,
,414654074748,CAB,19/04/1999,001,2023-09-28_13h01.53.046,OS3_Mult_verification,2022.2.4,Win32,15.00060002,,,,,,,,,,,,,,,,,,,,,,,,,,,,,,,,,,,,,,,,,,,,,,,,,,,,,,,,,,,,,,,,,,,,,,,,,,,,,,,,,right,1,2.4458,,,,,,magnitude,6,7,6 | 7,1,0.06,0.06,neutral,right,0,29,29,50,1,,,,,,,,,,,,,,,,,,,,,,,,,,,,,,,,,,,,,,,,,,,,,,,,,,,,,,,,,,,,,,,,,,,,,,,,
,414654074748,CAB,19/04/1999,001,2023-09-28_13h01.53.046,OS3_Mult_verification,2022.2.4,Win32,15.00060002,,,,,,,,,,,,,,,,,,,,,,,,,,,,,,,,,,,,,,,,,,,,,,,,,,,,,,,,,,,,,,,,,,,,,,,,,,,,,,,,,right,1,2.1152,,,,,,magnitude,3,4,3 | 4,1,0.065,0.05,incongruent,right,0,30,30,25,1,,,,,,,,,,,,,,,,,,,,,,,,,,,,,,,,,,,,,,,,,,,,,,,,,,,,,,,,,,,,,,,,,,,,,,,,
,414654074748,CAB,19/04/1999,001,2023-09-28_13h01.53.046,OS3_Mult_verification,2022.2.4,Win32,15.00060002,,,,,,,,,,,,,,,,,,,,,,,,,,,,,,,,,,,,,,,,,,,,,,,,,,,,,,,,,,,,,,,,,,,,,,,,,,,,,,,,,left,1,0.7958,,,,,,magnitude,8,3,8 | 3,5,0.065,0.05,congruent,left,0,31,31,22,1,,,,,,,,,,,,,,,,,,,,,,,,,,,,,,,,,,,,,,,,,,,,,,,,,,,,,,,,,,,,,,,,,,,,,,,,
,414654074748,CAB,19/04/1999,001,2023-09-28_13h01.53.046,OS3_Mult_verification,2022.2.4,Win32,15.00060002,,,,,,,,,,,,,,,,,,,,,,,,,,,,,,,,,,,,,,,,,,,,,,,,,,,,,,,,,,,,,,,,,,,,,,,,,,,,,,,,,left,1,1.0925,,,,,,magnitude,9,8,9 | 8,1,0.065,0.05,congruent,left,0,32,32,7,1,,,,,,,,,,,,,,,,,,,,,,,,,,,,,,,,,,,,,,,,,,,,,,,,,,,,,,,,,,,,,,,,,,,,,,,,
,414654074748,CAB,19/04/1999,001,2023-09-28_13h01.53.046,OS3_Mult_verification,2022.2.4,Win32,15.00060002,,,,,,,,,,,,,,,,,,,,,,,,,,,,,,,,,,,,,,,,,,,,,,,,,,,,,,,,,,,,,,,,,,,,,,,,,,,,,,,,,right,1,0.7063,,,,,,magnitude,1,3,1 | 3,2,0.06,0.06,neutral,right,0,33,33,56,1,,,,,,,,,,,,,,,,,,,,,,,,,,,,,,,,,,,,,,,,,,,,,,,,,,,,,,,,,,,,,,,,,,,,,,,,
,414654074748,CAB,19/04/1999,001,2023-09-28_13h01.53.046,OS3_Mult_verification,2022.2.4,Win32,15.00060002,,,,,,,,,,,,,,,,,,,,,,,,,,,,,,,,,,,,,,,,,,,,,,,,,,,,,,,,,,,,,,,,,,,,,,,,,,,,,,,,,right,1,0.8129,,,,,,magnitude,6,8,6 | 8,2,0.05,0.065,congruent,right,0,34,34,10,1,,,,,,,,,,,,,,,,,,,,,,,,,,,,,,,,,,,,,,,,,,,,,,,,,,,,,,,,,,,,,,,,,,,,,,,,
,414654074748,CAB,19/04/1999,001,2023-09-28_13h01.53.046,OS3_Mult_verification,2022.2.4,Win32,15.00060002,,,,,,,,,,,,,,,,,,,,,,,,,,,,,,,,,,,,,,,,,,,,,,,,,,,,,,,,,,,,,,,,,,,,,,,,,,,,,,,,,right,1,0.8859,,,,,,magnitude,6,8,6 | 8,2,0.06,0.06,neutral,right,0,35,35,58,1,,,,,,,,,,,,,,,,,,,,,,,,,,,,,,,,,,,,,,,,,,,,,,,,,,,,,,,,,,,,,,,,,,,,,,,,
,414654074748,CAB,19/04/1999,001,2023-09-28_13h01.53.046,OS3_Mult_verification,2022.2.4,Win32,15.00060002,,,,,,,,,,,,,,,,,,,,,,,,,,,,,,,,,,,,,,,,,,,,,,,,,,,,,,,,,,,,,,,,,,,,,,,,,,,,,,,,,left,1,1.2628,,,,,,magnitude,7,2,7 | 2,5,0.06,0.06,neutral,left,0,36,36,69,1,,,,,,,,,,,,,,,,,,,,,,,,,,,,,,,,,,,,,,,,,,,,,,,,,,,,,,,,,,,,,,,,,,,,,,,,
,414654074748,CAB,19/04/1999,001,2023-09-28_13h01.53.046,OS3_Mult_verification,2022.2.4,Win32,15.00060002,,,,,,,,,,,,,,,,,,,,,,,,,,,,,,,,,,,,,,,,,,,,,,,,,,,,,,,,,,,,,,,,,,,,,,,,,,,,,,,,,right,1,1.5105,,,,,,magnitude,8,9,8 | 9,1,0.05,0.065,congruent,right,0,37,37,3,1,,,,,,,,,,,,,,,,,,,,,,,,,,,,,,,,,,,,,,,,,,,,,,,,,,,,,,,,,,,,,,,,,,,,,,,,
,414654074748,CAB,19/04/1999,001,2023-09-28_13h01.53.046,OS3_Mult_verification,2022.2.4,Win32,15.00060002,,,,,,,,,,,,,,,,,,,,,,,,,,,,,,,,,,,,,,,,,,,,,,,,,,,,,,,,,,,,,,,,,,,,,,,,,,,,,,,,,left,1,0.7873,,,,,,magnitude,7,2,7 | 2,5,0.05,0.065,incongruent,left,0,38,38,45,1,,,,,,,,,,,,,,,,,,,,,,,,,,,,,,,,,,,,,,,,,,,,,,,,,,,,,,,,,,,,,,,,,,,,,,,,
,414654074748,CAB,19/04/1999,001,2023-09-28_13h01.53.046,OS3_Mult_verification,2022.2.4,Win32,15.00060002,,,,,,,,,,,,,,,,,,,,,,,,,,,,,,,,,,,,,,,,,,,,,,,,,,,,,,,,,,,,,,,,,,,,,,,,,,,,,,,,,left,1,0.8647,,,,,,magnitude,2,1,2 | 1,1,0.05,0.065,incongruent,left,0,39,39,28,1,,,,,,,,,,,,,,,,,,,,,,,,,,,,,,,,,,,,,,,,,,,,,,,,,,,,,,,,,,,,,,,,,,,,,,,,
,414654074748,CAB,19/04/1999,001,2023-09-28_13h01.53.046,OS3_Mult_verification,2022.2.4,Win32,15.00060002,,,,,,,,,,,,,,,,,,,,,,,,,,,,,,,,,,,,,,,,,,,,,,,,,,,,,,,,,,,,,,,,,,,,,,,,,,,,,,,,,right,1,1.6101,,,,,,magnitude,4,9,4 | 9,5,0.06,0.06,neutral,right,0,40,40,67,1,,,,,,,,,,,,,,,,,,,,,,,,,,,,,,,,,,,,,,,,,,,,,,,,,,,,,,,,,,,,,,,,,,,,,,,,
