windowSize,participant,group,DOB (DD/MM/YEAR),session,date,expName,psychopyVersion,OS,frameRate,typing_instr_resp.keys,typing_instr_resp.rt,typing_response,typing_rt,typing_score,typingSpeed_input_resp.keys,typingSpeed_input_resp.rt,typing_speed_trials.thisRepN,typing_speed_trials.thisTrialN,typing_speed_trials.thisN,typing_speed_trials.thisIndex,typing_speed_trials.ran,typing_speed_stim,typing_report_resp.keys,typing_report_resp.rt,vpt_trial_resp1.keys,vpt_trial_resp1.rt,typedResponse,fluency_rt,fluency_score,fluencyInputResp.keys,fluencyInputResp.rt,fluencyPracLoop.thisRepN,fluencyPracLoop.thisTrialN,fluencyPracLoop.thisN,fluencyPracLoop.thisIndex,fluencyPracLoop.ran,problem,answers,fluencyLoop.thisRepN,fluencyLoop.thisTrialN,fluencyLoop.thisN,fluencyLoop.thisIndex,fluencyLoop.ran,sampleAudio_resp.keys,sampleAudio_resp.rt,subjResponse,audio_rt,DS_score,inputResp.keys,inputResp.rt,audioPracticeLoop.thisRepN,audioPracticeLoop.thisTrialN,audioPracticeLoop.thisN,audioPracticeLoop.thisIndex,audioPracticeLoop.ran,digitSpan,digits_audioStim,soundsFile,typeDS,audioTrials_Loop.thisRepN,audioTrials_Loop.thisTrialN,audioTrials_Loop.thisN,audioTrials_Loop.thisIndex,audioTrials_Loop.ran,audioBlocks_loop.thisRepN,audioBlocks_loop.thisTrialN,audioBlocks_loop.thisN,audioBlocks_loop.thisIndex,audioBlocks_loop.ran,ConditionFile,digitSpanTask_loop.thisRepN,digitSpanTask_loop.thisTrialN,digitSpanTask_loop.thisN,digitSpanTask_loop.thisIndex,digitSpanTask_loop.ran,dsFile,TASK_C.thisRepN,TASK_C.thisTrialN,TASK_C.thisN,TASK_C.thisIndex,TASK_C.ran,controlTaskOrder.thisRepN,controlTaskOrder.thisTrialN,controlTaskOrder.thisN,controlTaskOrder.thisIndex,controlTaskOrder.ran,nRepsTask1,nRepsTask2,nRepsTask3,stroopResp.keys,stroopResp.corr,stroopResp.rt,stroopPracLoop.thisRepN,stroopPracLoop.thisTrialN,stroopPracLoop.thisN,stroopPracLoop.thisIndex,stroopPracLoop.ran,stroopCond,leftNo,rightNo,displayProblem,numDistance,leftNo_size,rightNo_size,Dims,keyAnswer,stroopLoop.thisRepN,stroopLoop.thisTrialN,stroopLoop.thisN,stroopLoop.thisIndex,stroopLoop.ran,stroopBlocks.thisRepN,stroopBlocks.thisTrialN,stroopBlocks.thisN,stroopBlocks.thisIndex,stroopBlocks.ran,stroop_condition,stroop_pracFile,ActionInst,instrImage,TASK_A.thisRepN,TASK_A.thisTrialN,TASK_A.thisN,TASK_A.thisIndex,TASK_A.ran,vptCorrect,vpt_rt,respMouse.x,respMouse.y,respMouse.leftButton,respMouse.midButton,respMouse.rightButton,vptPracticeLoop.thisRepN,vptPracticeLoop.thisTrialN,vptPracticeLoop.thisN,vptPracticeLoop.thisIndex,vptPracticeLoop.ran,trialType,tiles,rows,cols,vptTrialLoop.thisRepN,vptTrialLoop.thisTrialN,vptTrialLoop.thisN,vptTrialLoop.thisIndex,vptTrialLoop.ran,noOfBlocks,TASK_B.thisRepN,TASK_B.thisTrialN,TASK_B.thisN,TASK_B.thisIndex,TASK_B.ran,veriStim_resp.keys,veriStim_resp.corr,veriStim_resp.rt,verificationPracLoop.thisRepN,verificationPracLoop.thisTrialN,verificationPracLoop.thisN,verificationPracLoop.thisIndex,verificationPracLoop.ran,mult_problem,mult_answer,mult_type,error_distance,interferenceScore,problemType,interferenceLevel,problemSize,img_leftButton,img_rightButton,veriLoop.thisRepN,veriLoop.thisTrialN,veriLoop.thisN,veriLoop.thisIndex,veriLoop.ran,veriBlock.thisRepN,veriBlock.thisTrialN,veriBlock.thisN,veriBlock.thisIndex,veriBlock.ran,verificationFiles,end_resp.keys,end_resp.rt
"[1280,609]",957558488938,CAB,05/10/2001,001,2023-04-18_22h59.14.471,OS3_Mult_verification,2022.2.4,Win32,59.82650314,,,,,,,,,,,,,,,,,,,,,,,,,,,,,,,,,,,,,,,,,,,,,,,,,,,,,,,,,,,,,,,,,,,,,,,,,,,,,,,,,,,,,,,,,,,,,,,,,,,,,,,,,,,,,,,,,,,,,,,,,,,,,,,,,,,,,,,,,,,,,,,,,,,,,,,,,,,,,,,,,,,,,,,,,,,,,,
,957558488938,CAB,05/10/2001,001,2023-04-18_22h59.14.471,OS3_Mult_verification,2022.2.4,Win32,59.82650314,,,,,,,,,,,,,,,,,,,,,,,,,,,,,,,,,,,,,,,,,,,,,,,,,,,,,,,,,,,,,,,,,,,,,,,,,,,,,,,,,,,,,,,,,,,,,,,,,,,,,,,,,,,,,,,,,,,,,,,,,,,,,,,,,,,,,,,,,,,,,,,,,,,,,,,,,,,,,,,,,,,,,,,,,,,,,,
,957558488938,CAB,05/10/2001,001,2023-04-18_22h59.14.471,OS3_Mult_verification,2022.2.4,Win32,59.82650314,space,25.499,,,,,,,,,,,,,,,,,,,,,,,,,,,,,,,,,,,,,,,,,,,,,,,,,,,,,,,,,,,,,,,,,,,,,,,,,,,,,,,,,,,,,,,,,,,,,,,,,,,,,,,,,,,,,,,,,,,,,,,,,,,,,,,,,,,,,,,,,,,,,,,,,,,,,,,,,,,,,,,,,,,,,,,,,,,,
,957558488938,CAB,05/10/2001,001,2023-04-18_22h59.14.471,OS3_Mult_verification,2022.2.4,Win32,59.82650314,,,45,2.1162,1,"[""4"",""5"",""return""]","[1.278399999976159,1.4281999999880668,2.0775999999642067]",0,0,0,22,1,45,,,,,,,,,,,,,,,,,,,,,,,,,,,,,,,,,,,,,,,,,,,,,,,,,,,,,,,,,,,,,,,,,,,,,,,,,,,,,,,,,,,,,,,,,,,,,,,,,,,,,,,,,,,,,,,,,,,,,,,,,,,,,,,,,,,,,,,,,,,,,,,,,,,,,,,,,,,,,,,,,
,957558488938,CAB,05/10/2001,001,2023-04-18_22h59.14.471,OS3_Mult_verification,2022.2.4,Win32,59.82650314,,,35,1.3998,1,"[""3"",""5"",""return""]","[0.9448000000119237,1.121600000023875,1.3721000000238632]",0,1,1,18,1,35,,,,,,,,,,,,,,,,,,,,,,,,,,,,,,,,,,,,,,,,,,,,,,,,,,,,,,,,,,,,,,,,,,,,,,,,,,,,,,,,,,,,,,,,,,,,,,,,,,,,,,,,,,,,,,,,,,,,,,,,,,,,,,,,,,,,,,,,,,,,,,,,,,,,,,,,,,,,,,,,,
,957558488938,CAB,05/10/2001,001,2023-04-18_22h59.14.471,OS3_Mult_verification,2022.2.4,Win32,59.82650314,,,2,1.1664,0,"[""2"",""return""]","[0.7101999999881059,1.1358000000118977]",0,2,2,13,1,25,,,,,,,,,,,,,,,,,,,,,,,,,,,,,,,,,,,,,,,,,,,,,,,,,,,,,,,,,,,,,,,,,,,,,,,,,,,,,,,,,,,,,,,,,,,,,,,,,,,,,,,,,,,,,,,,,,,,,,,,,,,,,,,,,,,,,,,,,,,,,,,,,,,,,,,,,,,,,,,,,
,957558488938,CAB,05/10/2001,001,2023-04-18_22h59.14.471,OS3_Mult_verification,2022.2.4,Win32,59.82650314,,,54,1.3661,1,"[""5"",""4"",""return""]","[0.9446999999880745,1.1448999999761327,1.3304999999999723]",0,3,3,25,1,54,,,,,,,,,,,,,,,,,,,,,,,,,,,,,,,,,,,,,,,,,,,,,,,,,,,,,,,,,,,,,,,,,,,,,,,,,,,,,,,,,,,,,,,,,,,,,,,,,,,,,,,,,,,,,,,,,,,,,,,,,,,,,,,,,,,,,,,,,,,,,,,,,,,,,,,,,,,,,,,,,
,957558488938,CAB,05/10/2001,001,2023-04-18_22h59.14.471,OS3_Mult_verification,2022.2.4,Win32,59.82650314,,,48,1.3834,1,"[""4"",""8"",""return""]","[0.934100000023875,1.146000000000015,1.3483000000119318]",0,4,4,23,1,48,,,,,,,,,,,,,,,,,,,,,,,,,,,,,,,,,,,,,,,,,,,,,,,,,,,,,,,,,,,,,,,,,,,,,,,,,,,,,,,,,,,,,,,,,,,,,,,,,,,,,,,,,,,,,,,,,,,,,,,,,,,,,,,,,,,,,,,,,,,,,,,,,,,,,,,,,,,,,,,,,
,957558488938,CAB,05/10/2001,001,2023-04-18_22h59.14.471,OS3_Mult_verification,2022.2.4,Win32,59.82650314,,,12,1.2664,1,"[""1"",""2"",""return""]","[0.8782000000476842,0.9642000000476969,1.2274000000358]",0,5,5,5,1,12,,,,,,,,,,,,,,,,,,,,,,,,,,,,,,,,,,,,,,,,,,,,,,,,,,,,,,,,,,,,,,,,,,,,,,,,,,,,,,,,,,,,,,,,,,,,,,,,,,,,,,,,,,,,,,,,,,,,,,,,,,,,,,,,,,,,,,,,,,,,,,,,,,,,,,,,,,,,,,,,,
,957558488938,CAB,05/10/2001,001,2023-04-18_22h59.14.471,OS3_Mult_verification,2022.2.4,Win32,59.82650314,,,20,1.183,1,"[""2"",""0"",""return""]","[0.6721999999880381,1.0168999999761468,1.1471999999880609]",0,6,6,10,1,20,,,,,,,,,,,,,,,,,,,,,,,,,,,,,,,,,,,,,,,,,,,,,,,,,,,,,,,,,,,,,,,,,,,,,,,,,,,,,,,,,,,,,,,,,,,,,,,,,,,,,,,,,,,,,,,,,,,,,,,,,,,,,,,,,,,,,,,,,,,,,,,,,,,,,,,,,,,,,,,,,
,957558488938,CAB,05/10/2001,001,2023-04-18_22h59.14.471,OS3_Mult_verification,2022.2.4,Win32,59.82650314,,,6,1.0994,1,"[""6"",""return""]","[0.9316000000238205,1.0623999999761509]",0,7,7,1,1,6,,,,,,,,,,,,,,,,,,,,,,,,,,,,,,,,,,,,,,,,,,,,,,,,,,,,,,,,,,,,,,,,,,,,,,,,,,,,,,,,,,,,,,,,,,,,,,,,,,,,,,,,,,,,,,,,,,,,,,,,,,,,,,,,,,,,,,,,,,,,,,,,,,,,,,,,,,,,,,,,,
,957558488938,CAB,05/10/2001,001,2023-04-18_22h59.14.471,OS3_Mult_verification,2022.2.4,Win32,59.82650314,,,32,1.7162,1,"[""3"",""2"",""return""]","[1.2298000000118918,1.2979000000357246,1.6881000000238373]",0,8,8,17,1,32,,,,,,,,,,,,,,,,,,,,,,,,,,,,,,,,,,,,,,,,,,,,,,,,,,,,,,,,,,,,,,,,,,,,,,,,,,,,,,,,,,,,,,,,,,,,,,,,,,,,,,,,,,,,,,,,,,,,,,,,,,,,,,,,,,,,,,,,,,,,,,,,,,,,,,,,,,,,,,,,,
,957558488938,CAB,05/10/2001,001,2023-04-18_22h59.14.471,OS3_Mult_verification,2022.2.4,Win32,59.82650314,,,63,1.4332,0,"[""6"",""4"",""3"",""return""]","[0.8118000000118855,1.0114999999999554,1.017100000023845,1.3943000000119241]",0,9,9,28,1,64,,,,,,,,,,,,,,,,,,,,,,,,,,,,,,,,,,,,,,,,,,,,,,,,,,,,,,,,,,,,,,,,,,,,,,,,,,,,,,,,,,,,,,,,,,,,,,,,,,,,,,,,,,,,,,,,,,,,,,,,,,,,,,,,,,,,,,,,,,,,,,,,,,,,,,,,,,,,,,,,,
,957558488938,CAB,05/10/2001,001,2023-04-18_22h59.14.471,OS3_Mult_verification,2022.2.4,Win32,59.82650314,,,36,1.5997,1,"[""3"",""6"",""return""]","[0.9516000000238591,1.2221000000238291,1.5613999999761745]",0,10,10,19,1,36,,,,,,,,,,,,,,,,,,,,,,,,,,,,,,,,,,,,,,,,,,,,,,,,,,,,,,,,,,,,,,,,,,,,,,,,,,,,,,,,,,,,,,,,,,,,,,,,,,,,,,,,,,,,,,,,,,,,,,,,,,,,,,,,,,,,,,,,,,,,,,,,,,,,,,,,,,,,,,,,,
,957558488938,CAB,05/10/2001,001,2023-04-18_22h59.14.471,OS3_Mult_verification,2022.2.4,Win32,59.82650314,,,63,1.6831,1,"[""6"",""3"",""return""]","[1.0610000000000355,1.5521999999880904,1.6558999999761568]",0,11,11,27,1,63,,,,,,,,,,,,,,,,,,,,,,,,,,,,,,,,,,,,,,,,,,,,,,,,,,,,,,,,,,,,,,,,,,,,,,,,,,,,,,,,,,,,,,,,,,,,,,,,,,,,,,,,,,,,,,,,,,,,,,,,,,,,,,,,,,,,,,,,,,,,,,,,,,,,,,,,,,,,,,,,,
,957558488938,CAB,05/10/2001,001,2023-04-18_22h59.14.471,OS3_Mult_verification,2022.2.4,Win32,59.82650314,,,9,1.0495,1,"[""9"",""return""]","[0.8328000000119005,1.014400000035721]",0,12,12,3,1,9,,,,,,,,,,,,,,,,,,,,,,,,,,,,,,,,,,,,,,,,,,,,,,,,,,,,,,,,,,,,,,,,,,,,,,,,,,,,,,,,,,,,,,,,,,,,,,,,,,,,,,,,,,,,,,,,,,,,,,,,,,,,,,,,,,,,,,,,,,,,,,,,,,,,,,,,,,,,,,,,,
,957558488938,CAB,05/10/2001,001,2023-04-18_22h59.14.471,OS3_Mult_verification,2022.2.4,Win32,59.82650314,,,27,1.1162,1,"[""2"",""7"",""return""]","[0.6665999999642622,0.9655999999642404,1.0753999999761845]",0,13,13,14,1,27,,,,,,,,,,,,,,,,,,,,,,,,,,,,,,,,,,,,,,,,,,,,,,,,,,,,,,,,,,,,,,,,,,,,,,,,,,,,,,,,,,,,,,,,,,,,,,,,,,,,,,,,,,,,,,,,,,,,,,,,,,,,,,,,,,,,,,,,,,,,,,,,,,,,,,,,,,,,,,,,,
,957558488938,CAB,05/10/2001,001,2023-04-18_22h59.14.471,OS3_Mult_verification,2022.2.4,Win32,59.82650314,,,72,1.3163,1,"[""7"",""2"",""return""]","[0.8440000000000509,1.143800000011936,1.2770000000000437]",0,14,14,29,1,72,,,,,,,,,,,,,,,,,,,,,,,,,,,,,,,,,,,,,,,,,,,,,,,,,,,,,,,,,,,,,,,,,,,,,,,,,,,,,,,,,,,,,,,,,,,,,,,,,,,,,,,,,,,,,,,,,,,,,,,,,,,,,,,,,,,,,,,,,,,,,,,,,,,,,,,,,,,,,,,,,
,957558488938,CAB,05/10/2001,001,2023-04-18_22h59.14.471,OS3_Mult_verification,2022.2.4,Win32,59.82650314,,,8,1.1165,1,"[""8"",""return""]","[0.9491000000238614,1.0840000000000032]",0,15,15,2,1,8,,,,,,,,,,,,,,,,,,,,,,,,,,,,,,,,,,,,,,,,,,,,,,,,,,,,,,,,,,,,,,,,,,,,,,,,,,,,,,,,,,,,,,,,,,,,,,,,,,,,,,,,,,,,,,,,,,,,,,,,,,,,,,,,,,,,,,,,,,,,,,,,,,,,,,,,,,,,,,,,,
,957558488938,CAB,05/10/2001,001,2023-04-18_22h59.14.471,OS3_Mult_verification,2022.2.4,Win32,59.82650314,,,42,1.2666,1,"[""4"",""2"",""return""]","[0.9121999999881041,1.0215000000000032,1.23599999999999]",0,16,16,21,1,42,,,,,,,,,,,,,,,,,,,,,,,,,,,,,,,,,,,,,,,,,,,,,,,,,,,,,,,,,,,,,,,,,,,,,,,,,,,,,,,,,,,,,,,,,,,,,,,,,,,,,,,,,,,,,,,,,,,,,,,,,,,,,,,,,,,,,,,,,,,,,,,,,,,,,,,,,,,,,,,,,
,957558488938,CAB,05/10/2001,001,2023-04-18_22h59.14.471,OS3_Mult_verification,2022.2.4,Win32,59.82650314,,,18,1.3165,1,"[""1"",""8"",""return""]","[0.678800000011961,1.0343000000119105,1.2778999999761709]",0,17,17,9,1,18,,,,,,,,,,,,,,,,,,,,,,,,,,,,,,,,,,,,,,,,,,,,,,,,,,,,,,,,,,,,,,,,,,,,,,,,,,,,,,,,,,,,,,,,,,,,,,,,,,,,,,,,,,,,,,,,,,,,,,,,,,,,,,,,,,,,,,,,,,,,,,,,,,,,,,,,,,,,,,,,,
,957558488938,CAB,05/10/2001,001,2023-04-18_22h59.14.471,OS3_Mult_verification,2022.2.4,Win32,59.82650314,,,4,1.1334,1,"[""4"",""return""]","[0.9118999999761286,1.094799999952329]",0,18,18,0,1,4,,,,,,,,,,,,,,,,,,,,,,,,,,,,,,,,,,,,,,,,,,,,,,,,,,,,,,,,,,,,,,,,,,,,,,,,,,,,,,,,,,,,,,,,,,,,,,,,,,,,,,,,,,,,,,,,,,,,,,,,,,,,,,,,,,,,,,,,,,,,,,,,,,,,,,,,,,,,,,,,,
,957558488938,CAB,05/10/2001,001,2023-04-18_22h59.14.471,OS3_Mult_verification,2022.2.4,Win32,59.82650314,,,14,1.3164,1,"[""1"",""4"",""return""]","[0.9813000000119132,1.07859999996424,1.2785999999642286]",0,19,19,6,1,14,,,,,,,,,,,,,,,,,,,,,,,,,,,,,,,,,,,,,,,,,,,,,,,,,,,,,,,,,,,,,,,,,,,,,,,,,,,,,,,,,,,,,,,,,,,,,,,,,,,,,,,,,,,,,,,,,,,,,,,,,,,,,,,,,,,,,,,,,,,,,,,,,,,,,,,,,,,,,,,,,
,957558488938,CAB,05/10/2001,001,2023-04-18_22h59.14.471,OS3_Mult_verification,2022.2.4,Win32,59.82650314,,,49,1.3331,1,"[""4"",""9"",""return""]","[0.9376999999880695,1.071300000011945,1.3008999999761386]",0,20,20,24,1,49,,,,,,,,,,,,,,,,,,,,,,,,,,,,,,,,,,,,,,,,,,,,,,,,,,,,,,,,,,,,,,,,,,,,,,,,,,,,,,,,,,,,,,,,,,,,,,,,,,,,,,,,,,,,,,,,,,,,,,,,,,,,,,,,,,,,,,,,,,,,,,,,,,,,,,,,,,,,,,,,,
,957558488938,CAB,05/10/2001,001,2023-04-18_22h59.14.471,OS3_Mult_verification,2022.2.4,Win32,59.82650314,,,24,1.1996,1,"[""2"",""4"",""return""]","[0.837900000035745,1.011400000035735,1.1606999999880827]",0,21,21,12,1,24,,,,,,,,,,,,,,,,,,,,,,,,,,,,,,,,,,,,,,,,,,,,,,,,,,,,,,,,,,,,,,,,,,,,,,,,,,,,,,,,,,,,,,,,,,,,,,,,,,,,,,,,,,,,,,,,,,,,,,,,,,,,,,,,,,,,,,,,,,,,,,,,,,,,,,,,,,,,,,,,,
,957558488938,CAB,05/10/2001,001,2023-04-18_22h59.14.471,OS3_Mult_verification,2022.2.4,Win32,59.82650314,,,15,1.0661,1,"[""1"",""5"",""return""]","[0.6121999999880359,0.9142999999522772,1.0320999999642027]",0,22,22,7,1,15,,,,,,,,,,,,,,,,,,,,,,,,,,,,,,,,,,,,,,,,,,,,,,,,,,,,,,,,,,,,,,,,,,,,,,,,,,,,,,,,,,,,,,,,,,,,,,,,,,,,,,,,,,,,,,,,,,,,,,,,,,,,,,,,,,,,,,,,,,,,,,,,,,,,,,,,,,,,,,,,,
,957558488938,CAB,05/10/2001,001,2023-04-18_22h59.14.471,OS3_Mult_verification,2022.2.4,Win32,59.82650314,,,26,1.0831,0,"[""2"",""6"",""return""]","[0.6054999999999495,0.784899999976119,1.0469999999999686]",0,23,23,8,1,16,,,,,,,,,,,,,,,,,,,,,,,,,,,,,,,,,,,,,,,,,,,,,,,,,,,,,,,,,,,,,,,,,,,,,,,,,,,,,,,,,,,,,,,,,,,,,,,,,,,,,,,,,,,,,,,,,,,,,,,,,,,,,,,,,,,,,,,,,,,,,,,,,,,,,,,,,,,,,,,,,
,957558488938,CAB,05/10/2001,001,2023-04-18_22h59.14.471,OS3_Mult_verification,2022.2.4,Win32,59.82650314,,,10,1.0332,1,"[""1"",""0"",""return""]","[0.5876000000238264,0.912600000023815,1.002199999988079]",0,24,24,4,1,10,,,,,,,,,,,,,,,,,,,,,,,,,,,,,,,,,,,,,,,,,,,,,,,,,,,,,,,,,,,,,,,,,,,,,,,,,,,,,,,,,,,,,,,,,,,,,,,,,,,,,,,,,,,,,,,,,,,,,,,,,,,,,,,,,,,,,,,,,,,,,,,,,,,,,,,,,,,,,,,,,
,957558488938,CAB,05/10/2001,001,2023-04-18_22h59.14.471,OS3_Mult_verification,2022.2.4,Win32,59.82650314,,,40,1.3165,1,"[""4"",""0"",""return""]","[0.8730999999642108,1.1456999999880964,1.2788999999761472]",0,25,25,20,1,40,,,,,,,,,,,,,,,,,,,,,,,,,,,,,,,,,,,,,,,,,,,,,,,,,,,,,,,,,,,,,,,,,,,,,,,,,,,,,,,,,,,,,,,,,,,,,,,,,,,,,,,,,,,,,,,,,,,,,,,,,,,,,,,,,,,,,,,,,,,,,,,,,,,,,,,,,,,,,,,,,
,957558488938,CAB,05/10/2001,001,2023-04-18_22h59.14.471,OS3_Mult_verification,2022.2.4,Win32,59.82650314,,,30,1.433,1,"[""3"",""0"",""return""]","[1.021000000000015,1.3011999999880572,1.4061999999880754]",0,26,26,16,1,30,,,,,,,,,,,,,,,,,,,,,,,,,,,,,,,,,,,,,,,,,,,,,,,,,,,,,,,,,,,,,,,,,,,,,,,,,,,,,,,,,,,,,,,,,,,,,,,,,,,,,,,,,,,,,,,,,,,,,,,,,,,,,,,,,,,,,,,,,,,,,,,,,,,,,,,,,,,,,,,,,
,957558488938,CAB,05/10/2001,001,2023-04-18_22h59.14.471,OS3_Mult_verification,2022.2.4,Win32,59.82650314,,,21,1.2329,1,"[""2"",""1"",""return""]","[0.8309999999999604,0.9011000000238027,1.2009000000357446]",0,27,27,11,1,21,,,,,,,,,,,,,,,,,,,,,,,,,,,,,,,,,,,,,,,,,,,,,,,,,,,,,,,,,,,,,,,,,,,,,,,,,,,,,,,,,,,,,,,,,,,,,,,,,,,,,,,,,,,,,,,,,,,,,,,,,,,,,,,,,,,,,,,,,,,,,,,,,,,,,,,,,,,,,,,,,
,957558488938,CAB,05/10/2001,001,2023-04-18_22h59.14.471,OS3_Mult_verification,2022.2.4,Win32,59.82650314,,,56,1.1165,1,"[""5"",""6"",""return""]","[0.8188000000119473,0.9785999999642172,1.0885000000000105]",0,28,28,26,1,56,,,,,,,,,,,,,,,,,,,,,,,,,,,,,,,,,,,,,,,,,,,,,,,,,,,,,,,,,,,,,,,,,,,,,,,,,,,,,,,,,,,,,,,,,,,,,,,,,,,,,,,,,,,,,,,,,,,,,,,,,,,,,,,,,,,,,,,,,,,,,,,,,,,,,,,,,,,,,,,,,
,957558488938,CAB,05/10/2001,001,2023-04-18_22h59.14.471,OS3_Mult_verification,2022.2.4,Win32,59.82650314,,,81,1.3497,1,"[""8"",""1"",""return""]","[0.797199999988095,1.1556999999880873,1.3153999999761368]",0,29,29,30,1,81,,,,,,,,,,,,,,,,,,,,,,,,,,,,,,,,,,,,,,,,,,,,,,,,,,,,,,,,,,,,,,,,,,,,,,,,,,,,,,,,,,,,,,,,,,,,,,,,,,,,,,,,,,,,,,,,,,,,,,,,,,,,,,,,,,,,,,,,,,,,,,,,,,,,,,,,,,,,,,,,,
,957558488938,CAB,05/10/2001,001,2023-04-18_22h59.14.471,OS3_Mult_verification,2022.2.4,Win32,59.82650314,,,28,1.1828,1,"[""2"",""8"",""return""]","[0.7006999999880463,1.0153999999761254,1.1448000000119123]",0,30,30,15,1,28,,,,,,,,,,,,,,,,,,,,,,,,,,,,,,,,,,,,,,,,,,,,,,,,,,,,,,,,,,,,,,,,,,,,,,,,,,,,,,,,,,,,,,,,,,,,,,,,,,,,,,,,,,,,,,,,,,,,,,,,,,,,,,,,,,,,,,,,,,,,,,,,,,,,,,,,,,,,,,,,,
,957558488938,CAB,05/10/2001,001,2023-04-18_22h59.14.471,OS3_Mult_verification,2022.2.4,Win32,59.82650314,,,35,1.1997,1,"[""3"",""5"",""return""]","[0.8119000000357346,1.0786000000238118,1.1671000000238223]",1,0,31,18,1,35,,,,,,,,,,,,,,,,,,,,,,,,,,,,,,,,,,,,,,,,,,,,,,,,,,,,,,,,,,,,,,,,,,,,,,,,,,,,,,,,,,,,,,,,,,,,,,,,,,,,,,,,,,,,,,,,,,,,,,,,,,,,,,,,,,,,,,,,,,,,,,,,,,,,,,,,,,,,,,,,,
,957558488938,CAB,05/10/2001,001,2023-04-18_22h59.14.471,OS3_Mult_verification,2022.2.4,Win32,59.82650314,,,81,1.4664,1,"[""8"",""1"",""return""]","[0.8948000000119123,1.271000000000015,1.4312000000476814]",1,1,32,30,1,81,,,,,,,,,,,,,,,,,,,,,,,,,,,,,,,,,,,,,,,,,,,,,,,,,,,,,,,,,,,,,,,,,,,,,,,,,,,,,,,,,,,,,,,,,,,,,,,,,,,,,,,,,,,,,,,,,,,,,,,,,,,,,,,,,,,,,,,,,,,,,,,,,,,,,,,,,,,,,,,,,
,957558488938,CAB,05/10/2001,001,2023-04-18_22h59.14.471,OS3_Mult_verification,2022.2.4,Win32,59.82650314,,,20,1.1664,1,"[""2"",""0"",""return""]","[0.6447999999522835,0.9840999999642008,1.1391999999880795]",1,2,33,10,1,20,,,,,,,,,,,,,,,,,,,,,,,,,,,,,,,,,,,,,,,,,,,,,,,,,,,,,,,,,,,,,,,,,,,,,,,,,,,,,,,,,,,,,,,,,,,,,,,,,,,,,,,,,,,,,,,,,,,,,,,,,,,,,,,,,,,,,,,,,,,,,,,,,,,,,,,,,,,,,,,,,
,957558488938,CAB,05/10/2001,001,2023-04-18_22h59.14.471,OS3_Mult_verification,2022.2.4,Win32,59.82650314,,,48,1.7328,1,"[""4"",""8"",""return""]","[1.3175999999642158,1.5118999999761513,1.701899999976149]",1,3,34,23,1,48,,,,,,,,,,,,,,,,,,,,,,,,,,,,,,,,,,,,,,,,,,,,,,,,,,,,,,,,,,,,,,,,,,,,,,,,,,,,,,,,,,,,,,,,,,,,,,,,,,,,,,,,,,,,,,,,,,,,,,,,,,,,,,,,,,,,,,,,,,,,,,,,,,,,,,,,,,,,,,,,,
,957558488938,CAB,05/10/2001,001,2023-04-18_22h59.14.471,OS3_Mult_verification,2022.2.4,Win32,59.82650314,,,10,1.0832,1,"[""1"",""0"",""return""]","[0.5790000000000077,0.9189999999999827,1.0528999999761481]",1,4,35,4,1,10,,,,,,,,,,,,,,,,,,,,,,,,,,,,,,,,,,,,,,,,,,,,,,,,,,,,,,,,,,,,,,,,,,,,,,,,,,,,,,,,,,,,,,,,,,,,,,,,,,,,,,,,,,,,,,,,,,,,,,,,,,,,,,,,,,,,,,,,,,,,,,,,,,,,,,,,,,,,,,,,,
,957558488938,CAB,05/10/2001,001,2023-04-18_22h59.14.471,OS3_Mult_verification,2022.2.4,Win32,59.82650314,,,72,2.6666,1,"[""7"",""3"",""backspace"",""2"",""return""]","[0.7631000000238259,1.1628000000118845,1.835199999988049,1.89549999999997,2.629300000011881]",1,5,36,29,1,72,,,,,,,,,,,,,,,,,,,,,,,,,,,,,,,,,,,,,,,,,,,,,,,,,,,,,,,,,,,,,,,,,,,,,,,,,,,,,,,,,,,,,,,,,,,,,,,,,,,,,,,,,,,,,,,,,,,,,,,,,,,,,,,,,,,,,,,,,,,,,,,,,,,,,,,,,,,,,,,,,
,957558488938,CAB,05/10/2001,001,2023-04-18_22h59.14.471,OS3_Mult_verification,2022.2.4,Win32,59.82650314,,,25,1.2827,1,"[""2"",""5"",""return""]","[1.0120999999642777,1.064199999988091,1.247000000000014]",1,6,37,13,1,25,,,,,,,,,,,,,,,,,,,,,,,,,,,,,,,,,,,,,,,,,,,,,,,,,,,,,,,,,,,,,,,,,,,,,,,,,,,,,,,,,,,,,,,,,,,,,,,,,,,,,,,,,,,,,,,,,,,,,,,,,,,,,,,,,,,,,,,,,,,,,,,,,,,,,,,,,,,,,,,,,
,957558488938,CAB,05/10/2001,001,2023-04-18_22h59.14.471,OS3_Mult_verification,2022.2.4,Win32,59.82650314,,,18,1.0832,1,"[""1"",""8"",""return""]","[0.6043000000119036,0.8954000000357496,1.0531999999880668]",1,7,38,9,1,18,,,,,,,,,,,,,,,,,,,,,,,,,,,,,,,,,,,,,,,,,,,,,,,,,,,,,,,,,,,,,,,,,,,,,,,,,,,,,,,,,,,,,,,,,,,,,,,,,,,,,,,,,,,,,,,,,,,,,,,,,,,,,,,,,,,,,,,,,,,,,,,,,,,,,,,,,,,,,,,,,
,957558488938,CAB,05/10/2001,001,2023-04-18_22h59.14.471,OS3_Mult_verification,2022.2.4,Win32,59.82650314,,,4,1.3663,1,"[""4"",""return""]","[0.7898000000118941,1.3276999999880559]",1,8,39,0,1,4,,,,,,,,,,,,,,,,,,,,,,,,,,,,,,,,,,,,,,,,,,,,,,,,,,,,,,,,,,,,,,,,,,,,,,,,,,,,,,,,,,,,,,,,,,,,,,,,,,,,,,,,,,,,,,,,,,,,,,,,,,,,,,,,,,,,,,,,,,,,,,,,,,,,,,,,,,,,,,,,,
,957558488938,CAB,05/10/2001,001,2023-04-18_22h59.14.471,OS3_Mult_verification,2022.2.4,Win32,59.82650314,,,36,1.2834,1,"[""3"",""6"",""return""]","[0.8628999999761504,1.0795999999642163,1.2457999999522826]",1,9,40,19,1,36,,,,,,,,,,,,,,,,,,,,,,,,,,,,,,,,,,,,,,,,,,,,,,,,,,,,,,,,,,,,,,,,,,,,,,,,,,,,,,,,,,,,,,,,,,,,,,,,,,,,,,,,,,,,,,,,,,,,,,,,,,,,,,,,,,,,,,,,,,,,,,,,,,,,,,,,,,,,,,,,,
,957558488938,CAB,05/10/2001,001,2023-04-18_22h59.14.471,OS3_Mult_verification,2022.2.4,Win32,59.82650314,,,32,1.2163,1,"[""3"",""2"",""return""]","[0.9159999999999968,1.005300000011914,1.1796999999880882]",1,10,41,17,1,32,,,,,,,,,,,,,,,,,,,,,,,,,,,,,,,,,,,,,,,,,,,,,,,,,,,,,,,,,,,,,,,,,,,,,,,,,,,,,,,,,,,,,,,,,,,,,,,,,,,,,,,,,,,,,,,,,,,,,,,,,,,,,,,,,,,,,,,,,,,,,,,,,,,,,,,,,,,,,,,,,
,957558488938,CAB,05/10/2001,001,2023-04-18_22h59.14.471,OS3_Mult_verification,2022.2.4,Win32,59.82650314,,,24,2.9834,1,"[""4"",""2"",""backspace"",""backspace"",""2"",""4"",""return""]","[1.5978000000119437,1.6623000000118964,2.4728000000119437,2.598900000035769,2.7216999999880613,2.797300000011944,2.95590000003574]",1,11,42,12,1,24,,,,,,,,,,,,,,,,,,,,,,,,,,,,,,,,,,,,,,,,,,,,,,,,,,,,,,,,,,,,,,,,,,,,,,,,,,,,,,,,,,,,,,,,,,,,,,,,,,,,,,,,,,,,,,,,,,,,,,,,,,,,,,,,,,,,,,,,,,,,,,,,,,,,,,,,,,,,,,,,,
,957558488938,CAB,05/10/2001,001,2023-04-18_22h59.14.471,OS3_Mult_verification,2022.2.4,Win32,59.82650314,,,30,1.2331,1,"[""3"",""0"",""return""]","[0.6483999999761636,0.982600000023865,1.1981999999881054]",1,12,43,16,1,30,,,,,,,,,,,,,,,,,,,,,,,,,,,,,,,,,,,,,,,,,,,,,,,,,,,,,,,,,,,,,,,,,,,,,,,,,,,,,,,,,,,,,,,,,,,,,,,,,,,,,,,,,,,,,,,,,,,,,,,,,,,,,,,,,,,,,,,,,,,,,,,,,,,,,,,,,,,,,,,,,
,957558488938,CAB,05/10/2001,001,2023-04-18_22h59.14.471,OS3_Mult_verification,2022.2.4,Win32,59.82650314,,,54,1.1994,1,"[""5"",""4"",""return""]","[0.7496999999880245,0.9453000000119118,1.1611999999880709]",1,13,44,25,1,54,,,,,,,,,,,,,,,,,,,,,,,,,,,,,,,,,,,,,,,,,,,,,,,,,,,,,,,,,,,,,,,,,,,,,,,,,,,,,,,,,,,,,,,,,,,,,,,,,,,,,,,,,,,,,,,,,,,,,,,,,,,,,,,,,,,,,,,,,,,,,,,,,,,,,,,,,,,,,,,,,
,957558488938,CAB,05/10/2001,001,2023-04-18_22h59.14.471,OS3_Mult_verification,2022.2.4,Win32,59.82650314,,,63,1.4328,1,"[""6"",""3"",""return""]","[0.9134000000357787,1.2886000000238482,1.39730000001191]",1,14,45,27,1,63,,,,,,,,,,,,,,,,,,,,,,,,,,,,,,,,,,,,,,,,,,,,,,,,,,,,,,,,,,,,,,,,,,,,,,,,,,,,,,,,,,,,,,,,,,,,,,,,,,,,,,,,,,,,,,,,,,,,,,,,,,,,,,,,,,,,,,,,,,,,,,,,,,,,,,,,,,,,,,,,,
,957558488938,CAB,05/10/2001,001,2023-04-18_22h59.14.471,OS3_Mult_verification,2022.2.4,Win32,59.82650314,,,9,0.9667,1,"[""9"",""return""]","[0.7843000000119105,0.9283000000119159]",1,15,46,3,1,9,,,,,,,,,,,,,,,,,,,,,,,,,,,,,,,,,,,,,,,,,,,,,,,,,,,,,,,,,,,,,,,,,,,,,,,,,,,,,,,,,,,,,,,,,,,,,,,,,,,,,,,,,,,,,,,,,,,,,,,,,,,,,,,,,,,,,,,,,,,,,,,,,,,,,,,,,,,,,,,,,
,957558488938,CAB,05/10/2001,001,2023-04-18_22h59.14.471,OS3_Mult_verification,2022.2.4,Win32,59.82650314,,,6,0.9664,1,"[""6"",""return""]","[0.8220000000000027,0.92739999997616]",1,16,47,1,1,6,,,,,,,,,,,,,,,,,,,,,,,,,,,,,,,,,,,,,,,,,,,,,,,,,,,,,,,,,,,,,,,,,,,,,,,,,,,,,,,,,,,,,,,,,,,,,,,,,,,,,,,,,,,,,,,,,,,,,,,,,,,,,,,,,,,,,,,,,,,,,,,,,,,,,,,,,,,,,,,,,
,957558488938,CAB,05/10/2001,001,2023-04-18_22h59.14.471,OS3_Mult_verification,2022.2.4,Win32,59.82650314,,,49,1.9332,1,"[""4"",""9"",""return""]","[1.5786000000238687,1.655200000047671,1.8954000000357496]",1,17,48,24,1,49,,,,,,,,,,,,,,,,,,,,,,,,,,,,,,,,,,,,,,,,,,,,,,,,,,,,,,,,,,,,,,,,,,,,,,,,,,,,,,,,,,,,,,,,,,,,,,,,,,,,,,,,,,,,,,,,,,,,,,,,,,,,,,,,,,,,,,,,,,,,,,,,,,,,,,,,,,,,,,,,,
,957558488938,CAB,05/10/2001,001,2023-04-18_22h59.14.471,OS3_Mult_verification,2022.2.4,Win32,59.82650314,,,15,1.5496,1,"[""1"",""5"",""return""]","[1.00180000001194,1.0325999999642477,1.5116999999880818]",1,18,49,7,1,15,,,,,,,,,,,,,,,,,,,,,,,,,,,,,,,,,,,,,,,,,,,,,,,,,,,,,,,,,,,,,,,,,,,,,,,,,,,,,,,,,,,,,,,,,,,,,,,,,,,,,,,,,,,,,,,,,,,,,,,,,,,,,,,,,,,,,,,,,,,,,,,,,,,,,,,,,,,,,,,,,
,957558488938,CAB,05/10/2001,001,2023-04-18_22h59.14.471,OS3_Mult_verification,2022.2.4,Win32,59.82650314,,,8,1.0665,1,"[""8"",""return""]","[0.8958000000119455,1.0358000000119318]",1,19,50,2,1,8,,,,,,,,,,,,,,,,,,,,,,,,,,,,,,,,,,,,,,,,,,,,,,,,,,,,,,,,,,,,,,,,,,,,,,,,,,,,,,,,,,,,,,,,,,,,,,,,,,,,,,,,,,,,,,,,,,,,,,,,,,,,,,,,,,,,,,,,,,,,,,,,,,,,,,,,,,,,,,,,,
,957558488938,CAB,05/10/2001,001,2023-04-18_22h59.14.471,OS3_Mult_verification,2022.2.4,Win32,59.82650314,,,42,1.0997,1,"[""4"",""2"",""return""]","[0.7618000000119309,0.904300000011915,1.0613000000118973]",1,20,51,21,1,42,,,,,,,,,,,,,,,,,,,,,,,,,,,,,,,,,,,,,,,,,,,,,,,,,,,,,,,,,,,,,,,,,,,,,,,,,,,,,,,,,,,,,,,,,,,,,,,,,,,,,,,,,,,,,,,,,,,,,,,,,,,,,,,,,,,,,,,,,,,,,,,,,,,,,,,,,,,,,,,,,
,957558488938,CAB,05/10/2001,001,2023-04-18_22h59.14.471,OS3_Mult_verification,2022.2.4,Win32,59.82650314,,,56,1.1996,1,"[""5"",""6"",""return""]","[0.8446999999881086,1.0276999999881014,1.1725000000000136]",1,21,52,26,1,56,,,,,,,,,,,,,,,,,,,,,,,,,,,,,,,,,,,,,,,,,,,,,,,,,,,,,,,,,,,,,,,,,,,,,,,,,,,,,,,,,,,,,,,,,,,,,,,,,,,,,,,,,,,,,,,,,,,,,,,,,,,,,,,,,,,,,,,,,,,,,,,,,,,,,,,,,,,,,,,,,
,957558488938,CAB,05/10/2001,001,2023-04-18_22h59.14.471,OS3_Mult_verification,2022.2.4,Win32,59.82650314,,,40,1.5996,1,"[""4"",""0"",""return""]","[1.1959000000357491,1.3291000000238,1.563400000035756]",1,22,53,20,1,40,,,,,,,,,,,,,,,,,,,,,,,,,,,,,,,,,,,,,,,,,,,,,,,,,,,,,,,,,,,,,,,,,,,,,,,,,,,,,,,,,,,,,,,,,,,,,,,,,,,,,,,,,,,,,,,,,,,,,,,,,,,,,,,,,,,,,,,,,,,,,,,,,,,,,,,,,,,,,,,,,
,957558488938,CAB,05/10/2001,001,2023-04-18_22h59.14.471,OS3_Mult_verification,2022.2.4,Win32,59.82650314,,,21,1.0497,1,"[""2"",""1"",""return""]","[0.7983000000119205,0.9175000000000182,1.0173000000119146]",1,23,54,11,1,21,,,,,,,,,,,,,,,,,,,,,,,,,,,,,,,,,,,,,,,,,,,,,,,,,,,,,,,,,,,,,,,,,,,,,,,,,,,,,,,,,,,,,,,,,,,,,,,,,,,,,,,,,,,,,,,,,,,,,,,,,,,,,,,,,,,,,,,,,,,,,,,,,,,,,,,,,,,,,,,,,
,957558488938,CAB,05/10/2001,001,2023-04-18_22h59.14.471,OS3_Mult_verification,2022.2.4,Win32,59.82650314,,,64,1.2664,1,"[""6"",""4"",""return""]","[0.93180000001189,1.078699999988089,1.231999999999971]",1,24,55,28,1,64,,,,,,,,,,,,,,,,,,,,,,,,,,,,,,,,,,,,,,,,,,,,,,,,,,,,,,,,,,,,,,,,,,,,,,,,,,,,,,,,,,,,,,,,,,,,,,,,,,,,,,,,,,,,,,,,,,,,,,,,,,,,,,,,,,,,,,,,,,,,,,,,,,,,,,,,,,,,,,,,,
,957558488938,CAB,05/10/2001,001,2023-04-18_22h59.14.471,OS3_Mult_verification,2022.2.4,Win32,59.82650314,,,27,1.4665,1,"[""2"",""7"",""return""]","[1.1509000000357332,1.2288000000119155,1.4286000000238346]",1,25,56,14,1,27,,,,,,,,,,,,,,,,,,,,,,,,,,,,,,,,,,,,,,,,,,,,,,,,,,,,,,,,,,,,,,,,,,,,,,,,,,,,,,,,,,,,,,,,,,,,,,,,,,,,,,,,,,,,,,,,,,,,,,,,,,,,,,,,,,,,,,,,,,,,,,,,,,,,,,,,,,,,,,,,,
,957558488938,CAB,05/10/2001,001,2023-04-18_22h59.14.471,OS3_Mult_verification,2022.2.4,Win32,59.82650314,,,28,1.4827,1,"[""2"",""8"",""return""]","[1.0780000000000314,1.2721000000238405,1.4516999999880795]",1,26,57,15,1,28,,,,,,,,,,,,,,,,,,,,,,,,,,,,,,,,,,,,,,,,,,,,,,,,,,,,,,,,,,,,,,,,,,,,,,,,,,,,,,,,,,,,,,,,,,,,,,,,,,,,,,,,,,,,,,,,,,,,,,,,,,,,,,,,,,,,,,,,,,,,,,,,,,,,,,,,,,,,,,,,,
,957558488938,CAB,05/10/2001,001,2023-04-18_22h59.14.471,OS3_Mult_verification,2022.2.4,Win32,59.82650314,,,16,1.1666,1,"[""1"",""6"",""return""]","[0.7955000000000041,1.0122999999522904,1.1340000000000146]",1,27,58,8,1,16,,,,,,,,,,,,,,,,,,,,,,,,,,,,,,,,,,,,,,,,,,,,,,,,,,,,,,,,,,,,,,,,,,,,,,,,,,,,,,,,,,,,,,,,,,,,,,,,,,,,,,,,,,,,,,,,,,,,,,,,,,,,,,,,,,,,,,,,,,,,,,,,,,,,,,,,,,,,,,,,,
,957558488938,CAB,05/10/2001,001,2023-04-18_22h59.14.471,OS3_Mult_verification,2022.2.4,Win32,59.82650314,,,14,1.133,1,"[""1"",""4"",""return""]","[0.8617000000476764,0.9474000000357705,1.1016000000238364]",1,28,59,6,1,14,,,,,,,,,,,,,,,,,,,,,,,,,,,,,,,,,,,,,,,,,,,,,,,,,,,,,,,,,,,,,,,,,,,,,,,,,,,,,,,,,,,,,,,,,,,,,,,,,,,,,,,,,,,,,,,,,,,,,,,,,,,,,,,,,,,,,,,,,,,,,,,,,,,,,,,,,,,,,,,,,
,957558488938,CAB,05/10/2001,001,2023-04-18_22h59.14.471,OS3_Mult_verification,2022.2.4,Win32,59.82650314,,,45,1.1329,1,"[""4"",""5"",""return""]","[0.8954000000357496,0.9881000000238487,1.094800000011901]",1,29,60,22,1,45,,,,,,,,,,,,,,,,,,,,,,,,,,,,,,,,,,,,,,,,,,,,,,,,,,,,,,,,,,,,,,,,,,,,,,,,,,,,,,,,,,,,,,,,,,,,,,,,,,,,,,,,,,,,,,,,,,,,,,,,,,,,,,,,,,,,,,,,,,,,,,,,,,,,,,,,,,,,,,,,,
,957558488938,CAB,05/10/2001,001,2023-04-18_22h59.14.471,OS3_Mult_verification,2022.2.4,Win32,59.82650314,,,12,1.0497,1,"[""1"",""2"",""return""]","[0.7456999999880622,0.8553000000119368,1.0120000000000005]",1,30,61,5,1,12,,,,,,,,,,,,,,,,,,,,,,,,,,,,,,,,,,,,,,,,,,,,,,,,,,,,,,,,,,,,,,,,,,,,,,,,,,,,,,,,,,,,,,,,,,,,,,,,,,,,,,,,,,,,,,,,,,,,,,,,,,,,,,,,,,,,,,,,,,,,,,,,,,,,,,,,,,,,,,,,,
,957558488938,CAB,05/10/2001,001,2023-04-18_22h59.14.471,OS3_Mult_verification,2022.2.4,Win32,59.82650314,,,,,,,,,,,,,,space,3.6114,,,,,,,,,,,,,,,,,,,,,,,,,,,,,,,,,,,,,,,,,,,,,,,,,,,,,,,,,,,,,,,,,,,,,,,,,,,,,,,,,,,,,,,,,,,,,,,,,,,,,,,,,,,,,,,,,,,,,,,,,,,,,,,,,,,,,,,,,,,,,,,,,,,,,,,,,,,,,,,
,957558488938,CAB,05/10/2001,001,2023-04-18_22h59.14.471,OS3_Mult_verification,2022.2.4,Win32,59.82650314,,,,,,,,,,,,,,,,,,,,,,,,,,,,,,,,,,,,,,,,,,,,,,,,,,,,,,,,,,,,,,,,,,,,,,,,,,,,,,,,,,,,,,,,,,,,,,,,,,,,,,,,,,,,,,,,,,,,,,,,,,,,,,,,,,,,,,,,,,,,,,,,,,,,,,,,,,,,,,,,,,,,,,,,,,,,,,
,957558488938,CAB,05/10/2001,001,2023-04-18_22h59.14.471,OS3_Mult_verification,2022.2.4,Win32,59.82650314,,,,,,,,,,,,,,,,space,3.878,,,,,,,,,,,,,,,,,,,,,,,,,,,,,,,,,,,,,,,,,,,,,,,,,,,,,,,,,,,,,,,,,,,,,,,,,,,,,,,,,,,,,,,,,,,,,,,,,,,,,,,,,,,,,,,,,,,,,,,,,,,,,,,,,,,,,,,,,,,,,,,,,,,,,,,,,,,,,
,957558488938,CAB,05/10/2001,001,2023-04-18_22h59.14.471,OS3_Mult_verification,2022.2.4,Win32,59.82650314,,,,,,,,,,,,,,,,,,7,1.9659,1,"[""7"",""return""]","[1.4319000000357391,1.6666000000238341]",0,0,0,0,1,1 × 7 =,7,,,,,,,,,,,,,,,,,,,,,,,,,,,,,,,,,,,,,,,,,,,,,,,,,,,,,,,,,,,,,,,,,,,,,,,,,,,,,,,,,,,,,,,,,,,,,,,,,,,,,,,,,,,,,,,,,,,,,,,,,,,,,,,,,,,,,,,,,,,,,,,,,
,957558488938,CAB,05/10/2001,001,2023-04-18_22h59.14.471,OS3_Mult_verification,2022.2.4,Win32,59.82650314,,,,,,,,,,,,,,,,,,20,2.1207,1,"[""2"",""0"",""return""]","[1.41310000002386,1.7266999999880568,1.835199999988049]",0,1,1,1,1,2 × 10 =,20,,,,,,,,,,,,,,,,,,,,,,,,,,,,,,,,,,,,,,,,,,,,,,,,,,,,,,,,,,,,,,,,,,,,,,,,,,,,,,,,,,,,,,,,,,,,,,,,,,,,,,,,,,,,,,,,,,,,,,,,,,,,,,,,,,,,,,,,,,,,,,,,,
,957558488938,CAB,05/10/2001,001,2023-04-18_22h59.14.471,OS3_Mult_verification,2022.2.4,Win32,59.82650314,,,,,,,,,,,,,,,,,,22,1.7562,1,"[""2"",""2"",""return""]","[1.2291999999880545,1.365000000000009,1.4638000000119291]",0,2,2,2,1,2 × 11 =,22,,,,,,,,,,,,,,,,,,,,,,,,,,,,,,,,,,,,,,,,,,,,,,,,,,,,,,,,,,,,,,,,,,,,,,,,,,,,,,,,,,,,,,,,,,,,,,,,,,,,,,,,,,,,,,,,,,,,,,,,,,,,,,,,,,,,,,,,,,,,,,,,,
,957558488938,CAB,05/10/2001,001,2023-04-18_22h59.14.471,OS3_Mult_verification,2022.2.4,Win32,59.82650314,,,,,,,,,,,,,,,,,,,,,,,,,,,,,,,,,,,,,,,,,,,,,,,,,,,,,,,,,,,,,,,,,,,,,,,,,,,,,,,,,,,,,,,,,,,,,,,,,,,,,,,,,,,,,,,,,,,,,,,,,,,,,,,,,,,,,,,,,,,,,,,,,,,,,,,,,,,,,,,,,,,,,,,,,,,,,,
,957558488938,CAB,05/10/2001,001,2023-04-18_22h59.14.471,OS3_Mult_verification,2022.2.4,Win32,59.82650314,,,,,,,,,,,,,,,,,,,,,,,,,,,,,,,,,,,,,,,,,,,,,,,,,,,,,,,,,,,,,,,,,,,,,,,,,,,,,,,,,,,,,,,,,,,,,,,,,,,,,,,,,,,,,,,,,,,,,,,,,,,,,,,,,,,,,,,,,,,,,,,,,,,,,,,,,,,,,,,,,,,,,,,,,,,,,,
,957558488938,CAB,05/10/2001,001,2023-04-18_22h59.14.471,OS3_Mult_verification,2022.2.4,Win32,59.82650314,,,,,,,,,,,,,,,,,,6,1.885,1,"[""6"",""return""]","[1.4986000000238278,1.5978000000118868]",,,,,,2 × 3 =,6,0,0,0,0,1,,,,,,,,,,,,,,,,,,,,,,,,,,,,,,,,,,,,,,,,,,,,,,,,,,,,,,,,,,,,,,,,,,,,,,,,,,,,,,,,,,,,,,,,,,,,,,,,,,,,,,,,,,,,,,,,,,,,,,,,,,,,,,,,,,,,,,,,,,,,
,957558488938,CAB,05/10/2001,001,2023-04-18_22h59.14.471,OS3_Mult_verification,2022.2.4,Win32,59.82650314,,,,,,,,,,,,,,,,,,40,2.7823,1,"[""4"",""0"",""return""]","[2.061599999964244,2.386800000011874,2.481300000011913]",,,,,,5 × 8 =,40,0,1,1,1,1,,,,,,,,,,,,,,,,,,,,,,,,,,,,,,,,,,,,,,,,,,,,,,,,,,,,,,,,,,,,,,,,,,,,,,,,,,,,,,,,,,,,,,,,,,,,,,,,,,,,,,,,,,,,,,,,,,,,,,,,,,,,,,,,,,,,,,,,,,,,
,957558488938,CAB,05/10/2001,001,2023-04-18_22h59.14.471,OS3_Mult_verification,2022.2.4,Win32,59.82650314,,,,,,,,,,,,,,,,,,12,1.5999,1,"[""1"",""2"",""return""]","[1.135600000023885,1.2354000000357814,1.3203000000119687]",,,,,,3 × 4 =,12,0,2,2,2,1,,,,,,,,,,,,,,,,,,,,,,,,,,,,,,,,,,,,,,,,,,,,,,,,,,,,,,,,,,,,,,,,,,,,,,,,,,,,,,,,,,,,,,,,,,,,,,,,,,,,,,,,,,,,,,,,,,,,,,,,,,,,,,,,,,,,,,,,,,,,
,957558488938,CAB,05/10/2001,001,2023-04-18_22h59.14.471,OS3_Mult_verification,2022.2.4,Win32,59.82650314,,,,,,,,,,,,,,,,,,15,1.9494,1,"[""1"",""5"",""return""]","[1.0486999999880595,1.522699999988049,1.652499999999975]",,,,,,5 × 3 =,15,0,3,3,3,1,,,,,,,,,,,,,,,,,,,,,,,,,,,,,,,,,,,,,,,,,,,,,,,,,,,,,,,,,,,,,,,,,,,,,,,,,,,,,,,,,,,,,,,,,,,,,,,,,,,,,,,,,,,,,,,,,,,,,,,,,,,,,,,,,,,,,,,,,,,,
,957558488938,CAB,05/10/2001,001,2023-04-18_22h59.14.471,OS3_Mult_verification,2022.2.4,Win32,59.82650314,,,,,,,,,,,,,,,,,,8,1.6833,1,"[""8"",""return""]","[1.3022000000477192,1.377700000047696]",,,,,,2 × 4 =,8,0,4,4,4,1,,,,,,,,,,,,,,,,,,,,,,,,,,,,,,,,,,,,,,,,,,,,,,,,,,,,,,,,,,,,,,,,,,,,,,,,,,,,,,,,,,,,,,,,,,,,,,,,,,,,,,,,,,,,,,,,,,,,,,,,,,,,,,,,,,,,,,,,,,,,
,957558488938,CAB,05/10/2001,001,2023-04-18_22h59.14.471,OS3_Mult_verification,2022.2.4,Win32,59.82650314,,,,,,,,,,,,,,,,,,4,2.4827,1,"[""2"",""backspace"",""4"",""return""]","[0.7347999999523154,1.5797999999522858,1.8332999999523167,2.1793999999761695]",,,,,,2 × 2 =,4,0,5,5,5,1,,,,,,,,,,,,,,,,,,,,,,,,,,,,,,,,,,,,,,,,,,,,,,,,,,,,,,,,,,,,,,,,,,,,,,,,,,,,,,,,,,,,,,,,,,,,,,,,,,,,,,,,,,,,,,,,,,,,,,,,,,,,,,,,,,,,,,,,,,,,
,957558488938,CAB,05/10/2001,001,2023-04-18_22h59.14.471,OS3_Mult_verification,2022.2.4,Win32,59.82650314,,,,,,,,,,,,,,,,,,20,1.7162,1,"[""2"",""0"",""return""]","[0.9956999999880622,1.3453999999761663,1.4351000000238514]",,,,,,4 × 5 =,20,0,6,6,6,1,,,,,,,,,,,,,,,,,,,,,,,,,,,,,,,,,,,,,,,,,,,,,,,,,,,,,,,,,,,,,,,,,,,,,,,,,,,,,,,,,,,,,,,,,,,,,,,,,,,,,,,,,,,,,,,,,,,,,,,,,,,,,,,,,,,,,,,,,,,,
,957558488938,CAB,05/10/2001,001,2023-04-18_22h59.14.471,OS3_Mult_verification,2022.2.4,Win32,59.82650314,,,,,,,,,,,,,,,,,,9,1.4163,1,"[""9"",""return""]","[1.0330999999642358,1.1232999999523372]",,,,,,3 × 3 =,9,0,7,7,7,1,,,,,,,,,,,,,,,,,,,,,,,,,,,,,,,,,,,,,,,,,,,,,,,,,,,,,,,,,,,,,,,,,,,,,,,,,,,,,,,,,,,,,,,,,,,,,,,,,,,,,,,,,,,,,,,,,,,,,,,,,,,,,,,,,,,,,,,,,,,,
,957558488938,CAB,05/10/2001,001,2023-04-18_22h59.14.471,OS3_Mult_verification,2022.2.4,Win32,59.82650314,,,,,,,,,,,,,,,,,,10,1.5996,1,"[""1"",""0"",""return""]","[0.8360000000000127,1.18569999998806,1.3053000000119255]",,,,,,5 × 2 =,10,0,8,8,8,1,,,,,,,,,,,,,,,,,,,,,,,,,,,,,,,,,,,,,,,,,,,,,,,,,,,,,,,,,,,,,,,,,,,,,,,,,,,,,,,,,,,,,,,,,,,,,,,,,,,,,,,,,,,,,,,,,,,,,,,,,,,,,,,,,,,,,,,,,,,,
,957558488938,CAB,05/10/2001,001,2023-04-18_22h59.14.471,OS3_Mult_verification,2022.2.4,Win32,59.82650314,,,,,,,,,,,,,,,,,,16,2.0495,1,"[""1"",""6"",""return""]","[1.2345999999642459,1.580799999952319,1.747799999952349]",,,,,,4 × 4 =,16,0,9,9,9,1,,,,,,,,,,,,,,,,,,,,,,,,,,,,,,,,,,,,,,,,,,,,,,,,,,,,,,,,,,,,,,,,,,,,,,,,,,,,,,,,,,,,,,,,,,,,,,,,,,,,,,,,,,,,,,,,,,,,,,,,,,,,,,,,,,,,,,,,,,,,
,957558488938,CAB,05/10/2001,001,2023-04-18_22h59.14.471,OS3_Mult_verification,2022.2.4,Win32,59.82650314,,,,,,,,,,,,,,,,,,24,1.8829,1,"[""2"",""4"",""return""]","[1.2690000000000055,1.4044000000357642,1.5836999999880845]",,,,,,8 × 3 =,24,0,10,10,10,1,,,,,,,,,,,,,,,,,,,,,,,,,,,,,,,,,,,,,,,,,,,,,,,,,,,,,,,,,,,,,,,,,,,,,,,,,,,,,,,,,,,,,,,,,,,,,,,,,,,,,,,,,,,,,,,,,,,,,,,,,,,,,,,,,,,,,,,,,,,,
,957558488938,CAB,05/10/2001,001,2023-04-18_22h59.14.471,OS3_Mult_verification,2022.2.4,Win32,59.82650314,,,,,,,,,,,,,,,,,,30,1.8998,1,"[""3"",""0"",""return""]","[1.21189999997614,1.47019999998804,1.5948999999761213]",,,,,,6 × 5 =,30,0,11,11,11,1,,,,,,,,,,,,,,,,,,,,,,,,,,,,,,,,,,,,,,,,,,,,,,,,,,,,,,,,,,,,,,,,,,,,,,,,,,,,,,,,,,,,,,,,,,,,,,,,,,,,,,,,,,,,,,,,,,,,,,,,,,,,,,,,,,,,,,,,,,,,
,957558488938,CAB,05/10/2001,001,2023-04-18_22h59.14.471,OS3_Mult_verification,2022.2.4,Win32,59.82650314,,,,,,,,,,,,,,,,,,14,1.8496,1,"[""1"",""4"",""return""]","[1.0553999999761459,1.4956000000238419,1.5501000000238605]",,,,,,7 × 2 =,14,0,12,12,12,1,,,,,,,,,,,,,,,,,,,,,,,,,,,,,,,,,,,,,,,,,,,,,,,,,,,,,,,,,,,,,,,,,,,,,,,,,,,,,,,,,,,,,,,,,,,,,,,,,,,,,,,,,,,,,,,,,,,,,,,,,,,,,,,,,,,,,,,,,,,,
,957558488938,CAB,05/10/2001,001,2023-04-18_22h59.14.471,OS3_Mult_verification,2022.2.4,Win32,59.82650314,,,,,,,,,,,,,,,,,,21,1.9995,0,"[""2"",""1"",""return""]","[1.5133000000118955,1.5502000000476528,1.704499999999996]",,,,,,3 × 9 =,27,0,13,13,13,1,,,,,,,,,,,,,,,,,,,,,,,,,,,,,,,,,,,,,,,,,,,,,,,,,,,,,,,,,,,,,,,,,,,,,,,,,,,,,,,,,,,,,,,,,,,,,,,,,,,,,,,,,,,,,,,,,,,,,,,,,,,,,,,,,,,,,,,,,,,,
,957558488938,CAB,05/10/2001,001,2023-04-18_22h59.14.471,OS3_Mult_verification,2022.2.4,Win32,59.82650314,,,,,,,,,,,,,,,,,,16,3.0496,1,"[""1"",""5"",""backspace"",""6"",""return""]","[1.4990999999641872,1.8336999999880277,2.5386999999880686,2.5830999999641904,2.745099999964225]",,,,,,2 × 8 =,16,0,14,14,14,1,,,,,,,,,,,,,,,,,,,,,,,,,,,,,,,,,,,,,,,,,,,,,,,,,,,,,,,,,,,,,,,,,,,,,,,,,,,,,,,,,,,,,,,,,,,,,,,,,,,,,,,,,,,,,,,,,,,,,,,,,,,,,,,,,,,,,,,,,,,,
,957558488938,CAB,05/10/2001,001,2023-04-18_22h59.14.471,OS3_Mult_verification,2022.2.4,Win32,59.82650314,,,,,,,,,,,,,,,,,,24,2.4663,1,"[""2"",""4"",""return""]","[1.8136999999880459,2.0503999999761504,2.1671000000238223]",,,,,,4 × 6 =,24,0,15,15,15,1,,,,,,,,,,,,,,,,,,,,,,,,,,,,,,,,,,,,,,,,,,,,,,,,,,,,,,,,,,,,,,,,,,,,,,,,,,,,,,,,,,,,,,,,,,,,,,,,,,,,,,,,,,,,,,,,,,,,,,,,,,,,,,,,,,,,,,,,,,,,
,957558488938,CAB,05/10/2001,001,2023-04-18_22h59.14.471,OS3_Mult_verification,2022.2.4,Win32,59.82650314,,,,,,,,,,,,,,,,,,21,1.583,1,"[""2"",""1"",""return""]","[1.0139999999999532,1.120099999964225,1.277799999952265]",,,,,,7 × 3 =,21,0,16,16,16,1,,,,,,,,,,,,,,,,,,,,,,,,,,,,,,,,,,,,,,,,,,,,,,,,,,,,,,,,,,,,,,,,,,,,,,,,,,,,,,,,,,,,,,,,,,,,,,,,,,,,,,,,,,,,,,,,,,,,,,,,,,,,,,,,,,,,,,,,,,,,
,957558488938,CAB,05/10/2001,001,2023-04-18_22h59.14.471,OS3_Mult_verification,2022.2.4,Win32,59.82650314,,,,,,,,,,,,,,,,,,27,1.8496,1,"[""2"",""7"",""return""]","[1.129000000000019,1.4479000000357587,1.551199999988114]",,,,,,9 × 3 =,27,0,17,17,17,1,,,,,,,,,,,,,,,,,,,,,,,,,,,,,,,,,,,,,,,,,,,,,,,,,,,,,,,,,,,,,,,,,,,,,,,,,,,,,,,,,,,,,,,,,,,,,,,,,,,,,,,,,,,,,,,,,,,,,,,,,,,,,,,,,,,,,,,,,,,,
,957558488938,CAB,05/10/2001,001,2023-04-18_22h59.14.471,OS3_Mult_verification,2022.2.4,Win32,59.82650314,,,,,,,,,,,,,,,,,,28,2.7495,1,"[""1"",""backspace"",""2"",""8"",""return""]","[1.3810000000000286,1.9446999999880745,2.035000000000025,2.347000000000037,2.44969999998807]",,,,,,4 × 7 =,28,0,18,18,18,1,,,,,,,,,,,,,,,,,,,,,,,,,,,,,,,,,,,,,,,,,,,,,,,,,,,,,,,,,,,,,,,,,,,,,,,,,,,,,,,,,,,,,,,,,,,,,,,,,,,,,,,,,,,,,,,,,,,,,,,,,,,,,,,,,,,,,,,,,,,,
,957558488938,CAB,05/10/2001,001,2023-04-18_22h59.14.471,OS3_Mult_verification,2022.2.4,Win32,59.82650314,,,,,,,,,,,,,,,,,,18,1.8496,1,"[""1"",""8"",""return""]","[0.9800000000000182,1.4318999999761672,1.55210000002387]",,,,,,2 × 9 =,18,0,19,19,19,1,,,,,,,,,,,,,,,,,,,,,,,,,,,,,,,,,,,,,,,,,,,,,,,,,,,,,,,,,,,,,,,,,,,,,,,,,,,,,,,,,,,,,,,,,,,,,,,,,,,,,,,,,,,,,,,,,,,,,,,,,,,,,,,,,,,,,,,,,,,,
,957558488938,CAB,05/10/2001,001,2023-04-18_22h59.14.471,OS3_Mult_verification,2022.2.4,Win32,59.82650314,,,,,,,,,,,,,,,,,,72,10.0329,1,"[""7"",""2"",""return""]","[9.317099999964228,9.578699999988089,9.732199999988097]",,,,,,9 × 8 =,72,0,20,20,20,1,,,,,,,,,,,,,,,,,,,,,,,,,,,,,,,,,,,,,,,,,,,,,,,,,,,,,,,,,,,,,,,,,,,,,,,,,,,,,,,,,,,,,,,,,,,,,,,,,,,,,,,,,,,,,,,,,,,,,,,,,,,,,,,,,,,,,,,,,,,,
,957558488938,CAB,05/10/2001,001,2023-04-18_22h59.14.471,OS3_Mult_verification,2022.2.4,Win32,59.82650314,,,,,,,,,,,,,,,,,,42,5.5901,1,"[""4"",""2"",""return""]","[4.81819999998811,5.122600000023851,5.298100000023851]",,,,,,7 × 6 =,42,0,21,21,21,1,,,,,,,,,,,,,,,,,,,,,,,,,,,,,,,,,,,,,,,,,,,,,,,,,,,,,,,,,,,,,,,,,,,,,,,,,,,,,,,,,,,,,,,,,,,,,,,,,,,,,,,,,,,,,,,,,,,,,,,,,,,,,,,,,,,,,,,,,,,,
,957558488938,CAB,05/10/2001,001,2023-04-18_22h59.14.471,OS3_Mult_verification,2022.2.4,Win32,59.82650314,,,,,,,,,,,,,,,,,,54,9.7078,1,"[""3"",""backspace"",""5"",""4"",""return""]","[2.4458000000119,3.749600000023804,8.89540000003575,9.0625,9.414900000035743]",,,,,,6 × 9 =,54,0,22,22,22,1,,,,,,,,,,,,,,,,,,,,,,,,,,,,,,,,,,,,,,,,,,,,,,,,,,,,,,,,,,,,,,,,,,,,,,,,,,,,,,,,,,,,,,,,,,,,,,,,,,,,,,,,,,,,,,,,,,,,,,,,,,,,,,,,,,,,,,,,,,,,
,957558488938,CAB,05/10/2001,001,2023-04-18_22h59.14.471,OS3_Mult_verification,2022.2.4,Win32,59.82650314,,,,,,,,,,,,,,,,,,45,2.342,1,"[""4"",""5"",""return""]","[1.7461999999881073,1.9120000000000346,2.048199999988128]",,,,,,9 × 5 =,45,0,23,23,23,1,,,,,,,,,,,,,,,,,,,,,,,,,,,,,,,,,,,,,,,,,,,,,,,,,,,,,,,,,,,,,,,,,,,,,,,,,,,,,,,,,,,,,,,,,,,,,,,,,,,,,,,,,,,,,,,,,,,,,,,,,,,,,,,,,,,,,,,,,,,,
,957558488938,CAB,05/10/2001,001,2023-04-18_22h59.14.471,OS3_Mult_verification,2022.2.4,Win32,59.82650314,,,,,,,,,,,,,,,,,,56,2.2831,1,"[""5"",""6"",""return""]","[1.6016999999881136,1.7823000000119578,1.9823999999761668]",,,,,,8 × 7 =,56,0,24,24,24,1,,,,,,,,,,,,,,,,,,,,,,,,,,,,,,,,,,,,,,,,,,,,,,,,,,,,,,,,,,,,,,,,,,,,,,,,,,,,,,,,,,,,,,,,,,,,,,,,,,,,,,,,,,,,,,,,,,,,,,,,,,,,,,,,,,,,,,,,,,,,
,957558488938,CAB,05/10/2001,001,2023-04-18_22h59.14.471,OS3_Mult_verification,2022.2.4,Win32,59.82650314,,,,,,,,,,,,,,,,,,36,1.9827,1,"[""3"",""6"",""return""]","[1.187899999976139,1.545799999952294,1.6825000000000045]",,,,,,6 × 6 =,36,0,25,25,25,1,,,,,,,,,,,,,,,,,,,,,,,,,,,,,,,,,,,,,,,,,,,,,,,,,,,,,,,,,,,,,,,,,,,,,,,,,,,,,,,,,,,,,,,,,,,,,,,,,,,,,,,,,,,,,,,,,,,,,,,,,,,,,,,,,,,,,,,,,,,,
,957558488938,CAB,05/10/2001,001,2023-04-18_22h59.14.471,OS3_Mult_verification,2022.2.4,Win32,59.82650314,,,,,,,,,,,,,,,,,,35,2.5664,1,"[""3"",""5"",""return""]","[1.7858999999761522,1.8320999999642709,2.288899999976195]",,,,,,5 × 7 =,35,0,26,26,26,1,,,,,,,,,,,,,,,,,,,,,,,,,,,,,,,,,,,,,,,,,,,,,,,,,,,,,,,,,,,,,,,,,,,,,,,,,,,,,,,,,,,,,,,,,,,,,,,,,,,,,,,,,,,,,,,,,,,,,,,,,,,,,,,,,,,,,,,,,,,,
,957558488938,CAB,05/10/2001,001,2023-04-18_22h59.14.471,OS3_Mult_verification,2022.2.4,Win32,59.82650314,,,,,,,,,,,,,,,,,,36,5.5326,1,"[""3"",""6"",""return""]","[4.690800000011905,5.001300000011895,5.229800000011892]",,,,,,4 × 9 =,36,0,27,27,27,1,,,,,,,,,,,,,,,,,,,,,,,,,,,,,,,,,,,,,,,,,,,,,,,,,,,,,,,,,,,,,,,,,,,,,,,,,,,,,,,,,,,,,,,,,,,,,,,,,,,,,,,,,,,,,,,,,,,,,,,,,,,,,,,,,,,,,,,,,,,,
,957558488938,CAB,05/10/2001,001,2023-04-18_22h59.14.471,OS3_Mult_verification,2022.2.4,Win32,59.82650314,,,,,,,,,,,,,,,,,,48,4.2746,1,"[""4"",""8"",""return""]","[3.5115000000000123,3.8688000000119587,3.9844000000357482]",,,,,,8 × 6 =,48,0,28,28,28,1,,,,,,,,,,,,,,,,,,,,,,,,,,,,,,,,,,,,,,,,,,,,,,,,,,,,,,,,,,,,,,,,,,,,,,,,,,,,,,,,,,,,,,,,,,,,,,,,,,,,,,,,,,,,,,,,,,,,,,,,,,,,,,,,,,,,,,,,,,,,
,957558488938,CAB,05/10/2001,001,2023-04-18_22h59.14.471,OS3_Mult_verification,2022.2.4,Win32,59.82650314,,,,,,,,,,,,,,,,,,63,3.191,1,"[""6"",""3"",""return""]","[2.436199999988048,2.7463000000118996,2.8953000000119005]",,,,,,9 × 7 =,63,0,29,29,29,1,,,,,,,,,,,,,,,,,,,,,,,,,,,,,,,,,,,,,,,,,,,,,,,,,,,,,,,,,,,,,,,,,,,,,,,,,,,,,,,,,,,,,,,,,,,,,,,,,,,,,,,,,,,,,,,,,,,,,,,,,,,,,,,,,,,,,,,,,,,,
,957558488938,CAB,05/10/2001,001,2023-04-18_22h59.14.471,OS3_Mult_verification,2022.2.4,Win32,59.82650314,,,,,,,,,,,,,,,,,,12,1.5581,1,"[""1"",""2"",""return""]","[0.9196000000238769,1.1013000000119177,1.2617000000477105]",,,,,,4 × 3 =,12,0,30,30,30,1,,,,,,,,,,,,,,,,,,,,,,,,,,,,,,,,,,,,,,,,,,,,,,,,,,,,,,,,,,,,,,,,,,,,,,,,,,,,,,,,,,,,,,,,,,,,,,,,,,,,,,,,,,,,,,,,,,,,,,,,,,,,,,,,,,,,,,,,,,,,
,957558488938,CAB,05/10/2001,001,2023-04-18_22h59.14.471,OS3_Mult_verification,2022.2.4,Win32,59.82650314,,,,,,,,,,,,,,,,,,,0.5328,0,,,,,,,,5 × 5 =,25,0,31,31,31,1,,,,,,,,,,,,,,,,,,,,,,,,,,,,,,,,,,,,,,,,,,,,,,,,,,,,,,,,,,,,,,,,,,,,,,,,,,,,,,,,,,,,,,,,,,,,,,,,,,,,,,,,,,,,,,,,,,,,,,,,,,,,,,,,,,,,,,,,,,,,
,957558488938,CAB,05/10/2001,001,2023-04-18_22h59.14.471,OS3_Mult_verification,2022.2.4,Win32,59.82650314,,,,,,,,,,,,,,,,space,2.0838,,,,,,,,,,,,,,,,,,space,7.3457,321,2.0369,1,"[""3"",""2"",""1"",""return""]","[1.0066000000238091,1.1356000000238282,1.2879000000357337,2.0006000000238373]",0,0,0,1,1,3,321,Audio/321.mp3,practice,,,,,,,,,,,,,,,,,,,,,,,,,,,,,,,,,,,,,,,,,,,,,,,,,,,,,,,,,,,,,,,,,,,,,,,,,,,,,,,,,,,,,,,,,,,,,,,,,,,,,,,,,,,,,,,,,,,,,,,,,,,,
,957558488938,CAB,05/10/2001,001,2023-04-18_22h59.14.471,OS3_Mult_verification,2022.2.4,Win32,59.82650314,,,,,,,,,,,,,,,,,,,,,,,,,,,,,,,,,,,,,123,1.2686,1,"[""1"",""2"",""3"",""return""]","[0.609800000012001,0.7508999999762409,1.031500000000051,1.2183000000119364]",0,1,1,0,1,3,123,Audio/123.mp3,practice,,,,,,,,,,,,,,,,,,,,,,,,,,,,,,,,,,,,,,,,,,,,,,,,,,,,,,,,,,,,,,,,,,,,,,,,,,,,,,,,,,,,,,,,,,,,,,,,,,,,,,,,,,,,,,,,,,,,,,,,,,,,
,957558488938,CAB,05/10/2001,001,2023-04-18_22h59.14.471,OS3_Mult_verification,2022.2.4,Win32,59.82650314,,,,,,,,,,,,,,,,,,,,,,,,,,,,,,,,,,,,,911,1.4198,1,"[""9"",""1"",""1"",""return""]","[0.32009999996421357,1.0005999999641517,1.1744999999999663,1.3740999999641872]",0,2,2,2,1,3,911,Audio/911.mp3,practice,,,,,,,,,,,,,,,,,,,,,,,,,,,,,,,,,,,,,,,,,,,,,,,,,,,,,,,,,,,,,,,,,,,,,,,,,,,,,,,,,,,,,,,,,,,,,,,,,,,,,,,,,,,,,,,,,,,,,,,,,,,,
,957558488938,CAB,05/10/2001,001,2023-04-18_22h59.14.471,OS3_Mult_verification,2022.2.4,Win32,59.82650314,,,,,,,,,,,,,,,,,,,,,,,,,,,,,,,,,,,,,46,1.6541,1,"[""4"",""6"",""return""]","[1.2231000000238055,1.3416000000238455,1.600999999999999]",,,,,,2,46,Audio/46.mp3,EGNER,0,0,0,0,1,,,,,,,,,,,,,,,,,,,,,,,,,,,,,,,,,,,,,,,,,,,,,,,,,,,,,,,,,,,,,,,,,,,,,,,,,,,,,,,,,,,,,,,,,,,,,,,,,,,,,,,,,,,,,,,,,,,,,,,
,957558488938,CAB,05/10/2001,001,2023-04-18_22h59.14.471,OS3_Mult_verification,2022.2.4,Win32,59.82650314,,,,,,,,,,,,,,,,,,,,,,,,,,,,,,,,,,,,,82,0.9049,1,"[""8"",""2"",""return""]","[0.48410000002377274,0.6144000000357437,0.8509000000357219]",,,,,,2,82,Audio/82.mp3,EGNER,0,1,1,1,1,,,,,,,,,,,,,,,,,,,,,,,,,,,,,,,,,,,,,,,,,,,,,,,,,,,,,,,,,,,,,,,,,,,,,,,,,,,,,,,,,,,,,,,,,,,,,,,,,,,,,,,,,,,,,,,,,,,,,,,
,957558488938,CAB,05/10/2001,001,2023-04-18_22h59.14.471,OS3_Mult_verification,2022.2.4,Win32,59.82650314,,,,,,,,,,,,,,,,,,,,,,,,,,,,,,,,,,,,,,,,,,,,,,,,,,,,,,,,0,0,0,0,1,digitSpan_stim/twoAudio.xlsx,,,,,,,,,,,,,,,,,,,,,,,,,,,,,,,,,,,,,,,,,,,,,,,,,,,,,,,,,,,,,,,,,,,,,,,,,,,,,,,,,,,,,,,,,,,,,,,,,,,,,,,,,,,,,,,,,
,957558488938,CAB,05/10/2001,001,2023-04-18_22h59.14.471,OS3_Mult_verification,2022.2.4,Win32,59.82650314,,,,,,,,,,,,,,,,,,,,,,,,,,,,,,,,,,,,,157,1.4049,1,"[""1"",""5"",""7"",""return""]","[0.4917999999523772,0.650000000000091,1.0507999999523463,1.3668999999762264]",,,,,,3,157,Audio/157.mp3,EGNER,0,0,0,0,1,,,,,,,,,,,,,,,,,,,,,,,,,,,,,,,,,,,,,,,,,,,,,,,,,,,,,,,,,,,,,,,,,,,,,,,,,,,,,,,,,,,,,,,,,,,,,,,,,,,,,,,,,,,,,,,,,,,,,,,
,957558488938,CAB,05/10/2001,001,2023-04-18_22h59.14.471,OS3_Mult_verification,2022.2.4,Win32,59.82650314,,,,,,,,,,,,,,,,,,,,,,,,,,,,,,,,,,,,,397,0.9994,1,"[""3"",""9"",""7"",""return""]","[0.4223000000118873,0.6169999999999618,0.8336999999880845,0.9668000000119719]",,,,,,3,397,Audio/397.mp3,EGNER,0,1,1,1,1,,,,,,,,,,,,,,,,,,,,,,,,,,,,,,,,,,,,,,,,,,,,,,,,,,,,,,,,,,,,,,,,,,,,,,,,,,,,,,,,,,,,,,,,,,,,,,,,,,,,,,,,,,,,,,,,,,,,,,,
,957558488938,CAB,05/10/2001,001,2023-04-18_22h59.14.471,OS3_Mult_verification,2022.2.4,Win32,59.82650314,,,,,,,,,,,,,,,,,,,,,,,,,,,,,,,,,,,,,,,,,,,,,,,,,,,,,,,,0,1,1,1,1,digitSpan_stim/threeAudio.xlsx,,,,,,,,,,,,,,,,,,,,,,,,,,,,,,,,,,,,,,,,,,,,,,,,,,,,,,,,,,,,,,,,,,,,,,,,,,,,,,,,,,,,,,,,,,,,,,,,,,,,,,,,,,,,,,,,,
,957558488938,CAB,05/10/2001,001,2023-04-18_22h59.14.471,OS3_Mult_verification,2022.2.4,Win32,59.82650314,,,,,,,,,,,,,,,,,,,,,,,,,,,,,,,,,,,,,6352,2.1319,1,"[""6"",""3"",""5"",""2"",""return""]","[0.6505000000000791,0.9669999999999845,1.1844000000357937,1.8000000000000682,2.084300000011922]",,,,,,4,6352,Audio/6352.mp3,EGNER,0,0,0,0,1,,,,,,,,,,,,,,,,,,,,,,,,,,,,,,,,,,,,,,,,,,,,,,,,,,,,,,,,,,,,,,,,,,,,,,,,,,,,,,,,,,,,,,,,,,,,,,,,,,,,,,,,,,,,,,,,,,,,,,,
,957558488938,CAB,05/10/2001,001,2023-04-18_22h59.14.471,OS3_Mult_verification,2022.2.4,Win32,59.82650314,,,,,,,,,,,,,,,,,,,,,,,,,,,,,,,,,,,,,9184,2.3872,1,"[""9"",""1"",""8"",""4"",""return""]","[0.7233999999760954,1.3838999999760517,1.794499999999971,2.1508000000118273,2.3503000000118845]",,,,,,4,9184,Audio/9184.mp3,EGNER,0,1,1,1,1,,,,,,,,,,,,,,,,,,,,,,,,,,,,,,,,,,,,,,,,,,,,,,,,,,,,,,,,,,,,,,,,,,,,,,,,,,,,,,,,,,,,,,,,,,,,,,,,,,,,,,,,,,,,,,,,,,,,,,,
,957558488938,CAB,05/10/2001,001,2023-04-18_22h59.14.471,OS3_Mult_verification,2022.2.4,Win32,59.82650314,,,,,,,,,,,,,,,,,,,,,,,,,,,,,,,,,,,,,,,,,,,,,,,,,,,,,,,,0,2,2,2,1,digitSpan_stim/fourAudio.xlsx,,,,,,,,,,,,,,,,,,,,,,,,,,,,,,,,,,,,,,,,,,,,,,,,,,,,,,,,,,,,,,,,,,,,,,,,,,,,,,,,,,,,,,,,,,,,,,,,,,,,,,,,,,,,,,,,,
,957558488938,CAB,05/10/2001,001,2023-04-18_22h59.14.471,OS3_Mult_verification,2022.2.4,Win32,59.82650314,,,,,,,,,,,,,,,,,,,,,,,,,,,,,,,,,,,,,59281,2.4367,1,"[""5"",""9"",""2"",""8"",""1"",""return""]","[0.6111999999881164,0.8505999999641745,1.4146999999881018,1.7838999999761427,2.2195999999642027,2.4004999999999654]",,,,,,5,59281,Audio/59281.mp3,EGNER,0,0,0,0,1,,,,,,,,,,,,,,,,,,,,,,,,,,,,,,,,,,,,,,,,,,,,,,,,,,,,,,,,,,,,,,,,,,,,,,,,,,,,,,,,,,,,,,,,,,,,,,,,,,,,,,,,,,,,,,,,,,,,,,,
,957558488938,CAB,05/10/2001,001,2023-04-18_22h59.14.471,OS3_Mult_verification,2022.2.4,Win32,59.82650314,,,,,,,,,,,,,,,,,,,,,,,,,,,,,,,,,,,,,64738,3.3328,1,"[""6"",""4"",""7"",""3"",""8"",""return""]","[1.0566999999880409,1.8341000000237955,2.375499999999988,2.784100000023841,3.100900000035722,3.300199999988081]",,,,,,5,64738,Audio/64738.mp3,EGNER,0,1,1,1,1,,,,,,,,,,,,,,,,,,,,,,,,,,,,,,,,,,,,,,,,,,,,,,,,,,,,,,,,,,,,,,,,,,,,,,,,,,,,,,,,,,,,,,,,,,,,,,,,,,,,,,,,,,,,,,,,,,,,,,,
,957558488938,CAB,05/10/2001,001,2023-04-18_22h59.14.471,OS3_Mult_verification,2022.2.4,Win32,59.82650314,,,,,,,,,,,,,,,,,,,,,,,,,,,,,,,,,,,,,,,,,,,,,,,,,,,,,,,,0,3,3,3,1,digitSpan_stim/fiveAudio.xlsx,,,,,,,,,,,,,,,,,,,,,,,,,,,,,,,,,,,,,,,,,,,,,,,,,,,,,,,,,,,,,,,,,,,,,,,,,,,,,,,,,,,,,,,,,,,,,,,,,,,,,,,,,,,,,,,,,
,957558488938,CAB,05/10/2001,001,2023-04-18_22h59.14.471,OS3_Mult_verification,2022.2.4,Win32,59.82650314,,,,,,,,,,,,,,,,,,,,,,,,,,,,,,,,,,,,,396172,2.8379,1,"[""3"",""9"",""6"",""1"",""7"",""2"",""return""]","[0.6438999999761563,1.034099999964269,1.3476999999880945,1.888599999964299,2.201000000000022,2.547599999964291,2.80030000001193]",,,,,,6,396172,Audio/396172.mp3,EGNER,0,0,0,0,1,,,,,,,,,,,,,,,,,,,,,,,,,,,,,,,,,,,,,,,,,,,,,,,,,,,,,,,,,,,,,,,,,,,,,,,,,,,,,,,,,,,,,,,,,,,,,,,,,,,,,,,,,,,,,,,,,,,,,,,
,957558488938,CAB,05/10/2001,001,2023-04-18_22h59.14.471,OS3_Mult_verification,2022.2.4,Win32,59.82650314,,,,,,,,,,,,,,,,,,,,,,,,,,,,,,,,,,,,,594361,3.6714,0,"[""5"",""9"",""4"",""3"",""6"",""1"",""return""]","[0.20510000002389006,0.7674000000357637,1.2813000000119246,2.604100000023891,2.9392000000477765,3.373800000012011,3.6240000000000236]",,,,,,6,594631,Audio/594631.mp3,EGNER,0,1,1,1,1,,,,,,,,,,,,,,,,,,,,,,,,,,,,,,,,,,,,,,,,,,,,,,,,,,,,,,,,,,,,,,,,,,,,,,,,,,,,,,,,,,,,,,,,,,,,,,,,,,,,,,,,,,,,,,,,,,,,,,,
,957558488938,CAB,05/10/2001,001,2023-04-18_22h59.14.471,OS3_Mult_verification,2022.2.4,Win32,59.82650314,,,,,,,,,,,,,,,,,,,,,,,,,,,,,,,,,,,,,,,,,,,,,,,,,,,,,,,,0,4,4,4,1,digitSpan_stim/sixAudio.xlsx,,,,,,,,,,,,,,,,,,,,,,,,,,,,,,,,,,,,,,,,,,,,,,,,,,,,,,,,,,,,,,,,,,,,,,,,,,,,,,,,,,,,,,,,,,,,,,,,,,,,,,,,,,,,,,,,,
,957558488938,CAB,05/10/2001,001,2023-04-18_22h59.14.471,OS3_Mult_verification,2022.2.4,Win32,59.82650314,,,,,,,,,,,,,,,,,,,,,,,,,,,,,,,,,,,,,8249173,6.1153,0,"[""8"",""2"",""4"",""9"",""1"",""7"",""2"",""backspace"",""3"",""return""]","[1.2348999999761645,1.7341000000238864,2.0973999999762327,3.0008000000119637,3.5041000000238682,3.9946000000238655,4.524000000000001,5.534899999976233,5.832800000011957,6.0731999999881054]",,,,,,7,8241973,Audio/8241973.mp3,EGNER,0,0,0,0,1,,,,,,,,,,,,,,,,,,,,,,,,,,,,,,,,,,,,,,,,,,,,,,,,,,,,,,,,,,,,,,,,,,,,,,,,,,,,,,,,,,,,,,,,,,,,,,,,,,,,,,,,,,,,,,,,,,,,,,,
,957558488938,CAB,05/10/2001,001,2023-04-18_22h59.14.471,OS3_Mult_verification,2022.2.4,Win32,59.82650314,,,,,,,,,,,,,,,,,,,,,,,,,,,,,,,,,,,,,281437,7.5551,0,"[""2"",""8"",""1"",""4"",""3"",""7"",""return""]","[3.167500000000018,4.337999999999965,5.167500000000018,5.999000000000024,6.583600000023807,6.850699999988024,7.51689999997609]",,,,,,7,2814367,Audio/2814367.mp3,EGNER,0,1,1,1,1,,,,,,,,,,,,,,,,,,,,,,,,,,,,,,,,,,,,,,,,,,,,,,,,,,,,,,,,,,,,,,,,,,,,,,,,,,,,,,,,,,,,,,,,,,,,,,,,,,,,,,,,,,,,,,,,,,,,,,,
,957558488938,CAB,05/10/2001,001,2023-04-18_22h59.14.471,OS3_Mult_verification,2022.2.4,Win32,59.82650314,,,,,,,,,,,,,,,,,,,,,,,,,,,,,,,,,,,,,,,,,,,,,,,Egner,,,,,,,,,,,,,,,0,0,0,0,1,digitSpan_stim/Egner.xlsx,,,,,,,,,,,,,,,,,,,,,,,,,,,,,,,,,,,,,,,,,,,,,,,,,,,,,,,,,,,,,,,,,,,,,,,,,,,,,,,,,,,,,,,,,,,,,,,,,,,,,,,,,,,
,957558488938,CAB,05/10/2001,001,2023-04-18_22h59.14.471,OS3_Mult_verification,2022.2.4,Win32,59.82650314,,,,,,,,,,,,,,,,,,,,,,,,,,,,,,,,,,,,,97,1.5997,1,"[""9"",""7"",""return""]","[1.0004999999999882,1.127200000047651,1.55110000002378]",,,,,,2,97,Audio/97.mp3,WAIS,0,0,0,0,1,,,,,,,,,,,,,,,,,,,,,,,,,,,,,,,,,,,,,,,,,,,,,,,,,,,,,,,,,,,,,,,,,,,,,,,,,,,,,,,,,,,,,,,,,,,,,,,,,,,,,,,,,,,,,,,,,,,,,,,
,957558488938,CAB,05/10/2001,001,2023-04-18_22h59.14.471,OS3_Mult_verification,2022.2.4,Win32,59.82650314,,,,,,,,,,,,,,,,,,,,,,,,,,,,,,,,,,,,,63,0.8801,1,"[""6"",""3"",""return""]","[0.5055000000000973,0.6336999999881527,0.8338999999762109]",,,,,,2,63,Audio/63.mp3,WAIS,0,1,1,1,1,,,,,,,,,,,,,,,,,,,,,,,,,,,,,,,,,,,,,,,,,,,,,,,,,,,,,,,,,,,,,,,,,,,,,,,,,,,,,,,,,,,,,,,,,,,,,,,,,,,,,,,,,,,,,,,,,,,,,,,
,957558488938,CAB,05/10/2001,001,2023-04-18_22h59.14.471,OS3_Mult_verification,2022.2.4,Win32,59.82650314,,,,,,,,,,,,,,,,,,,,,,,,,,,,,,,,,,,,,,,,,,,,,,,,,,,,,,,,0,0,0,0,1,digitSpan_stim/twoWAIS.xlsx,,,,,,,,,,,,,,,,,,,,,,,,,,,,,,,,,,,,,,,,,,,,,,,,,,,,,,,,,,,,,,,,,,,,,,,,,,,,,,,,,,,,,,,,,,,,,,,,,,,,,,,,,,,,,,,,,
,957558488938,CAB,05/10/2001,001,2023-04-18_22h59.14.471,OS3_Mult_verification,2022.2.4,Win32,59.82650314,,,,,,,,,,,,,,,,,,,,,,,,,,,,,,,,,,,,,582,1.2385,1,"[""5"",""8"",""2"",""return""]","[0.4674999999999727,0.5840999999642236,1.06719999998802,1.2002999999523354]",,,,,,3,582,Audio/582.mp3,WAIS,0,0,0,0,1,,,,,,,,,,,,,,,,,,,,,,,,,,,,,,,,,,,,,,,,,,,,,,,,,,,,,,,,,,,,,,,,,,,,,,,,,,,,,,,,,,,,,,,,,,,,,,,,,,,,,,,,,,,,,,,,,,,,,,,
,957558488938,CAB,05/10/2001,001,2023-04-18_22h59.14.471,OS3_Mult_verification,2022.2.4,Win32,59.82650314,,,,,,,,,,,,,,,,,,,,,,,,,,,,,,,,,,,,,694,1.1213,1,"[""6"",""9"",""4"",""return""]","[0.46760000002382185,0.6676000000238673,0.9248000000119418,1.0839999999999463]",,,,,,3,694,Audio/694.mp3,WAIS,0,1,1,1,1,,,,,,,,,,,,,,,,,,,,,,,,,,,,,,,,,,,,,,,,,,,,,,,,,,,,,,,,,,,,,,,,,,,,,,,,,,,,,,,,,,,,,,,,,,,,,,,,,,,,,,,,,,,,,,,,,,,,,,,
,957558488938,CAB,05/10/2001,001,2023-04-18_22h59.14.471,OS3_Mult_verification,2022.2.4,Win32,59.82650314,,,,,,,,,,,,,,,,,,,,,,,,,,,,,,,,,,,,,,,,,,,,,,,,,,,,,,,,0,1,1,1,1,digitSpan_stim/threeWAIS.xlsx,,,,,,,,,,,,,,,,,,,,,,,,,,,,,,,,,,,,,,,,,,,,,,,,,,,,,,,,,,,,,,,,,,,,,,,,,,,,,,,,,,,,,,,,,,,,,,,,,,,,,,,,,,,,,,,,,
,957558488938,CAB,05/10/2001,001,2023-04-18_22h59.14.471,OS3_Mult_verification,2022.2.4,Win32,59.82650314,,,,,,,,,,,,,,,,,,,,,,,,,,,,,,,,,,,,,7286,1.5658,1,"[""7"",""2"",""8"",""6"",""return""]","[0.3838999999761654,0.6505999999642427,0.9004999999999654,1.1671999999880427,1.5253000000119528]",,,,,,4,7286,Audio/7286.mp3,WAIS,0,0,0,0,1,,,,,,,,,,,,,,,,,,,,,,,,,,,,,,,,,,,,,,,,,,,,,,,,,,,,,,,,,,,,,,,,,,,,,,,,,,,,,,,,,,,,,,,,,,,,,,,,,,,,,,,,,,,,,,,,,,,,,,,
,957558488938,CAB,05/10/2001,001,2023-04-18_22h59.14.471,OS3_Mult_verification,2022.2.4,Win32,59.82650314,,,,,,,,,,,,,,,,,,,,,,,,,,,,,,,,,,,,,6439,1.552,1,"[""6"",""4"",""3"",""9"",""return""]","[0.46740000003580917,0.7644999999999982,0.91700000000003,1.2009000000357446,1.5168000000119264]",,,,,,4,6439,Audio/6439.mp3,WAIS,0,1,1,1,1,,,,,,,,,,,,,,,,,,,,,,,,,,,,,,,,,,,,,,,,,,,,,,,,,,,,,,,,,,,,,,,,,,,,,,,,,,,,,,,,,,,,,,,,,,,,,,,,,,,,,,,,,,,,,,,,,,,,,,,
,957558488938,CAB,05/10/2001,001,2023-04-18_22h59.14.471,OS3_Mult_verification,2022.2.4,Win32,59.82650314,,,,,,,,,,,,,,,,,,,,,,,,,,,,,,,,,,,,,,,,,,,,,,,,,,,,,,,,0,2,2,2,1,digitSpan_stim/fourWAIS.xlsx,,,,,,,,,,,,,,,,,,,,,,,,,,,,,,,,,,,,,,,,,,,,,,,,,,,,,,,,,,,,,,,,,,,,,,,,,,,,,,,,,,,,,,,,,,,,,,,,,,,,,,,,,,,,,,,,,
,957558488938,CAB,05/10/2001,001,2023-04-18_22h59.14.471,OS3_Mult_verification,2022.2.4,Win32,59.82650314,,,,,,,,,,,,,,,,,,,,,,,,,,,,,,,,,,,,,42731,4.3317,1,"[""4"",""2"",""7"",""3"",""1"",""return""]","[2.368199999988178,2.8433999999762136,3.443099999964261,3.750499999999988,4.008699999988153,4.292599999964295]",,,,,,5,42731,Audio/42731.mp3,WAIS,0,0,0,0,1,,,,,,,,,,,,,,,,,,,,,,,,,,,,,,,,,,,,,,,,,,,,,,,,,,,,,,,,,,,,,,,,,,,,,,,,,,,,,,,,,,,,,,,,,,,,,,,,,,,,,,,,,,,,,,,,,,,,,,,
,957558488938,CAB,05/10/2001,001,2023-04-18_22h59.14.471,OS3_Mult_verification,2022.2.4,Win32,59.82650314,,,,,,,,,,,,,,,,,,,,,,,,,,,,,,,,,,,,,75836,3.66,1,"[""7"",""5"",""8"",""3"",""6"",""return""]","[1.1922000000477055,2.090100000023881,2.7552000000476937,3.0677000000476937,3.2608000000119546,3.6223000000119328]",,,,,,5,75836,Audio/75836.mp3,WAIS,0,1,1,1,1,,,,,,,,,,,,,,,,,,,,,,,,,,,,,,,,,,,,,,,,,,,,,,,,,,,,,,,,,,,,,,,,,,,,,,,,,,,,,,,,,,,,,,,,,,,,,,,,,,,,,,,,,,,,,,,,,,,,,,,
,957558488938,CAB,05/10/2001,001,2023-04-18_22h59.14.471,OS3_Mult_verification,2022.2.4,Win32,59.82650314,,,,,,,,,,,,,,,,,,,,,,,,,,,,,,,,,,,,,,,,,,,,,,,,,,,,,,,,0,3,3,3,1,digitSpan_stim/fiveWAIS.xlsx,,,,,,,,,,,,,,,,,,,,,,,,,,,,,,,,,,,,,,,,,,,,,,,,,,,,,,,,,,,,,,,,,,,,,,,,,,,,,,,,,,,,,,,,,,,,,,,,,,,,,,,,,,,,,,,,,
,957558488938,CAB,05/10/2001,001,2023-04-18_22h59.14.471,OS3_Mult_verification,2022.2.4,Win32,59.82650314,,,,,,,,,,,,,,,,,,,,,,,,,,,,,,,,,,,,,392847,3.7378,0,"[""3"",""9"",""2"",""8"",""4"",""7"",""return""]","[1.051499999999919,1.5225999999642,2.0178999999760663,2.6831999999880054,3.1345000000000027,3.3339999999999463,3.688699999987989]",,,,,,6,392487,Audio/392487.mp3,WAIS,0,0,0,0,1,,,,,,,,,,,,,,,,,,,,,,,,,,,,,,,,,,,,,,,,,,,,,,,,,,,,,,,,,,,,,,,,,,,,,,,,,,,,,,,,,,,,,,,,,,,,,,,,,,,,,,,,,,,,,,,,,,,,,,,
,957558488938,CAB,05/10/2001,001,2023-04-18_22h59.14.471,OS3_Mult_verification,2022.2.4,Win32,59.82650314,,,,,,,,,,,,,,,,,,,,,,,,,,,,,,,,,,,,,691473,4.7041,0,"[""6"",""9"",""1"",""4"",""7"",""3"",""return""]","[1.5054999999999836,2.1006999999880236,2.62219999998797,3.0216999999880727,3.9529999999999745,4.265600000023824,4.650999999999954]",,,,,,6,619473,Audio/619473.mp3,WAIS,0,1,1,1,1,,,,,,,,,,,,,,,,,,,,,,,,,,,,,,,,,,,,,,,,,,,,,,,,,,,,,,,,,,,,,,,,,,,,,,,,,,,,,,,,,,,,,,,,,,,,,,,,,,,,,,,,,,,,,,,,,,,,,,,
,957558488938,CAB,05/10/2001,001,2023-04-18_22h59.14.471,OS3_Mult_verification,2022.2.4,Win32,59.82650314,,,,,,,,,,,,,,,,,,,,,,,,,,,,,,,,,,,,,,,,,,,,,,,WAIS,,,,,,,,,,,,,,,0,1,1,1,1,digitSpan_stim/WAIS.xlsx,,,,,,,,,,,,,,,,,,,,,,,,,,,,,,,,,,,,,,,,,,,,,,,,,,,,,,,,,,,,,,,,,,,,,,,,,,,,,,,,,,,,,,,,,,,,,,,,,,,,,,,,,,,
,957558488938,CAB,05/10/2001,001,2023-04-18_22h59.14.471,OS3_Mult_verification,2022.2.4,Win32,59.82650314,,,,,,,,,,,,,,,,,,,,,,,,,,,,,,,,,,,,,,,,,,,,,,,,,,,,,,,,,,,,,,,,,,,,0,0,0,0,1,,,,,,,,,,,,,,,,,,,,,,,,,,,,,,,,,,,,,,,,,,,,,,,,,,,,,,,,,,,,,,,,,,,,,,,,,,,,,,,,,,,,,,,,,,,,,,,,,,,,,,
,957558488938,CAB,05/10/2001,001,2023-04-18_22h59.14.471,OS3_Mult_verification,2022.2.4,Win32,59.82650314,,,,,,,,,,,,,,,,,,,,,,,,,,,,,,,,,,,,,,,,,,,,,,,,,,,,,,,,,,,,,,,,,,,,,,,,,0,0,0,0,1,0,0,1,,,,,,,,,,,,,,,,,,,,,,,,,,,,,,,,,,,,,,,,,,,,,,,,,,,,,,,,,,,,,,,,,,,,,,,,,,,,,,,,,,,,,,,,,,,,,,
,957558488938,CAB,05/10/2001,001,2023-04-18_22h59.14.471,OS3_Mult_verification,2022.2.4,Win32,59.82650314,,,,,,,,,,,,,,,,space,2.4992,,,,,,,,,,,,,,,,,,,,,,,,,,,,,,,,,,,,,,,,,,,,,,,,,,,,,,,,,,,,,,,,right,1,0.9408,0,0,0,2,1,practice,4,9,4 | 9,5,0.06,0.06,neutral,right,,,,,,,,,,,,,,,,,,,,,,,,,,,,,,,,,,,,,,,,,,,,,,,,,,,,,,,,,,,,,,,,,,,,,,,,,,,,,
,957558488938,CAB,05/10/2001,001,2023-04-18_22h59.14.471,OS3_Mult_verification,2022.2.4,Win32,59.82650314,,,,,,,,,,,,,,,,,,,,,,,,,,,,,,,,,,,,,,,,,,,,,,,,,,,,,,,,,,,,,,,,,,,,,,,,,,,,,,,,,right,1,0.5068,0,1,1,0,1,practice,1,2,1 | 2,1,0.05,0.065,congruent,right,,,,,,,,,,,,,,,,,,,,,,,,,,,,,,,,,,,,,,,,,,,,,,,,,,,,,,,,,,,,,,,,,,,,,,,,,,,,,
,957558488938,CAB,05/10/2001,001,2023-04-18_22h59.14.471,OS3_Mult_verification,2022.2.4,Win32,59.82650314,,,,,,,,,,,,,,,,,,,,,,,,,,,,,,,,,,,,,,,,,,,,,,,,,,,,,,,,,,,,,,,,,,,,,,,,,,,,,,,,,left,0,0.4292,0,2,2,1,1,practice,7,8,7 | 8,1,0.065,0.05,incongruent,right,,,,,,,,,,,,,,,,,,,,,,,,,,,,,,,,,,,,,,,,,,,,,,,,,,,,,,,,,,,,,,,,,,,,,,,,,,,,,
,957558488938,CAB,05/10/2001,001,2023-04-18_22h59.14.471,OS3_Mult_verification,2022.2.4,Win32,59.82650314,,,,,,,,,,,,,,,,,,,,,,,,,,,,,,,,,,,,,,,,,,,,,,,,,,,,,,,,,,,,,,,,,,,,,,,,,,,,,,,,,right,0,0.6785,,,,,,magnitude,8,6,8 | 6,2,0.05,0.065,incongruent,left,0,0,0,38,1,,,,,,,,,,,,,,,,,,,,,,,,,,,,,,,,,,,,,,,,,,,,,,,,,,,,,,,,,,,,,,,,,,,,,,,,
,957558488938,CAB,05/10/2001,001,2023-04-18_22h59.14.471,OS3_Mult_verification,2022.2.4,Win32,59.82650314,,,,,,,,,,,,,,,,,,,,,,,,,,,,,,,,,,,,,,,,,,,,,,,,,,,,,,,,,,,,,,,,,,,,,,,,,,,,,,,,,left,0,1.137,,,,,,magnitude,1,2,1 | 2,1,0.06,0.06,neutral,right,0,1,1,48,1,,,,,,,,,,,,,,,,,,,,,,,,,,,,,,,,,,,,,,,,,,,,,,,,,,,,,,,,,,,,,,,,,,,,,,,,
,957558488938,CAB,05/10/2001,001,2023-04-18_22h59.14.471,OS3_Mult_verification,2022.2.4,Win32,59.82650314,,,,,,,,,,,,,,,,,,,,,,,,,,,,,,,,,,,,,,,,,,,,,,,,,,,,,,,,,,,,,,,,,,,,,,,,,,,,,,,,,left,1,0.5774,,,,,,magnitude,8,3,8 | 3,5,0.065,0.05,congruent,left,0,2,2,22,1,,,,,,,,,,,,,,,,,,,,,,,,,,,,,,,,,,,,,,,,,,,,,,,,,,,,,,,,,,,,,,,,,,,,,,,,
,957558488938,CAB,05/10/2001,001,2023-04-18_22h59.14.471,OS3_Mult_verification,2022.2.4,Win32,59.82650314,,,,,,,,,,,,,,,,,,,,,,,,,,,,,,,,,,,,,,,,,,,,,,,,,,,,,,,,,,,,,,,,,,,,,,,,,,,,,,,,,left,0,0.647,,,,,,magnitude,1,3,1 | 3,2,0.06,0.06,neutral,right,0,3,3,56,1,,,,,,,,,,,,,,,,,,,,,,,,,,,,,,,,,,,,,,,,,,,,,,,,,,,,,,,,,,,,,,,,,,,,,,,,
,957558488938,CAB,05/10/2001,001,2023-04-18_22h59.14.471,OS3_Mult_verification,2022.2.4,Win32,59.82650314,,,,,,,,,,,,,,,,,,,,,,,,,,,,,,,,,,,,,,,,,,,,,,,,,,,,,,,,,,,,,,,,,,,,,,,,,,,,,,,,,left,0,0.794,,,,,,magnitude,8,9,8 | 9,1,0.065,0.05,incongruent,right,0,4,4,27,1,,,,,,,,,,,,,,,,,,,,,,,,,,,,,,,,,,,,,,,,,,,,,,,,,,,,,,,,,,,,,,,,,,,,,,,,
,957558488938,CAB,05/10/2001,001,2023-04-18_22h59.14.471,OS3_Mult_verification,2022.2.4,Win32,59.82650314,,,,,,,,,,,,,,,,,,,,,,,,,,,,,,,,,,,,,,,,,,,,,,,,,,,,,,,,,,,,,,,,,,,,,,,,,,,,,,,,,left,0,1.4021,,,,,,magnitude,6,8,6 | 8,2,0.06,0.06,neutral,right,0,5,5,58,1,,,,,,,,,,,,,,,,,,,,,,,,,,,,,,,,,,,,,,,,,,,,,,,,,,,,,,,,,,,,,,,,,,,,,,,,
,957558488938,CAB,05/10/2001,001,2023-04-18_22h59.14.471,OS3_Mult_verification,2022.2.4,Win32,59.82650314,,,,,,,,,,,,,,,,,,,,,,,,,,,,,,,,,,,,,,,,,,,,,,,,,,,,,,,,,,,,,,,,,,,,,,,,,,,,,,,,,right,0,2.3958,,,,,,magnitude,8,3,8 | 3,5,0.06,0.06,neutral,left,0,6,6,70,1,,,,,,,,,,,,,,,,,,,,,,,,,,,,,,,,,,,,,,,,,,,,,,,,,,,,,,,,,,,,,,,,,,,,,,,,
,957558488938,CAB,05/10/2001,001,2023-04-18_22h59.14.471,OS3_Mult_verification,2022.2.4,Win32,59.82650314,,,,,,,,,,,,,,,,,,,,,,,,,,,,,,,,,,,,,,,,,,,,,,,,,,,,,,,,,,,,,,,,,,,,,,,,,,,,,,,,,left,0,0.8776,,,,,,magnitude,2,7,2 | 7,5,0.065,0.05,incongruent,right,0,7,7,41,1,,,,,,,,,,,,,,,,,,,,,,,,,,,,,,,,,,,,,,,,,,,,,,,,,,,,,,,,,,,,,,,,,,,,,,,,
,957558488938,CAB,05/10/2001,001,2023-04-18_22h59.14.471,OS3_Mult_verification,2022.2.4,Win32,59.82650314,,,,,,,,,,,,,,,,,,,,,,,,,,,,,,,,,,,,,,,,,,,,,,,,,,,,,,,,,,,,,,,,,,,,,,,,,,,,,,,,,right,0,0.5478,,,,,,magnitude,9,8,9 | 8,1,0.05,0.065,incongruent,left,0,8,8,31,1,,,,,,,,,,,,,,,,,,,,,,,,,,,,,,,,,,,,,,,,,,,,,,,,,,,,,,,,,,,,,,,,,,,,,,,,
,957558488938,CAB,05/10/2001,001,2023-04-18_22h59.14.471,OS3_Mult_verification,2022.2.4,Win32,59.82650314,,,,,,,,,,,,,,,,,,,,,,,,,,,,,,,,,,,,,,,,,,,,,,,,,,,,,,,,,,,,,,,,,,,,,,,,,,,,,,,,,left,0,1.2275,,,,,,magnitude,7,9,7 | 9,2,0.06,0.06,neutral,right,0,9,9,59,1,,,,,,,,,,,,,,,,,,,,,,,,,,,,,,,,,,,,,,,,,,,,,,,,,,,,,,,,,,,,,,,,,,,,,,,,
,957558488938,CAB,05/10/2001,001,2023-04-18_22h59.14.471,OS3_Mult_verification,2022.2.4,Win32,59.82650314,,,,,,,,,,,,,,,,,,,,,,,,,,,,,,,,,,,,,,,,,,,,,,,,,,,,,,,,,,,,,,,,,,,,,,,,,,,,,,,,,right,1,0.6616,,,,,,magnitude,3,8,3 | 8,5,0.05,0.065,congruent,right,0,10,10,18,1,,,,,,,,,,,,,,,,,,,,,,,,,,,,,,,,,,,,,,,,,,,,,,,,,,,,,,,,,,,,,,,,,,,,,,,,
,957558488938,CAB,05/10/2001,001,2023-04-18_22h59.14.471,OS3_Mult_verification,2022.2.4,Win32,59.82650314,,,,,,,,,,,,,,,,,,,,,,,,,,,,,,,,,,,,,,,,,,,,,,,,,,,,,,,,,,,,,,,,,,,,,,,,,,,,,,,,,left,0,0.6276,,,,,,magnitude,3,4,3 | 4,1,0.065,0.05,incongruent,right,0,11,11,25,1,,,,,,,,,,,,,,,,,,,,,,,,,,,,,,,,,,,,,,,,,,,,,,,,,,,,,,,,,,,,,,,,,,,,,,,,
,957558488938,CAB,05/10/2001,001,2023-04-18_22h59.14.471,OS3_Mult_verification,2022.2.4,Win32,59.82650314,,,,,,,,,,,,,,,,,,,,,,,,,,,,,,,,,,,,,,,,,,,,,,,,,,,,,,,,,,,,,,,,,,,,,,,,,,,,,,,,,left,1,1.5475,,,,,,magnitude,3,1,3 | 1,2,0.06,0.06,neutral,left,0,12,12,60,1,,,,,,,,,,,,,,,,,,,,,,,,,,,,,,,,,,,,,,,,,,,,,,,,,,,,,,,,,,,,,,,,,,,,,,,,
,957558488938,CAB,05/10/2001,001,2023-04-18_22h59.14.471,OS3_Mult_verification,2022.2.4,Win32,59.82650314,,,,,,,,,,,,,,,,,,,,,,,,,,,,,,,,,,,,,,,,,,,,,,,,,,,,,,,,,,,,,,,,,,,,,,,,,,,,,,,,,right,1,0.6028,,,,,,magnitude,8,9,8 | 9,1,0.05,0.065,congruent,right,0,13,13,3,1,,,,,,,,,,,,,,,,,,,,,,,,,,,,,,,,,,,,,,,,,,,,,,,,,,,,,,,,,,,,,,,,,,,,,,,,
,957558488938,CAB,05/10/2001,001,2023-04-18_22h59.14.471,OS3_Mult_verification,2022.2.4,Win32,59.82650314,,,,,,,,,,,,,,,,,,,,,,,,,,,,,,,,,,,,,,,,,,,,,,,,,,,,,,,,,,,,,,,,,,,,,,,,,,,,,,,,,right,0,0.7534,,,,,,magnitude,7,2,7 | 2,5,0.05,0.065,incongruent,left,0,14,14,45,1,,,,,,,,,,,,,,,,,,,,,,,,,,,,,,,,,,,,,,,,,,,,,,,,,,,,,,,,,,,,,,,,,,,,,,,,
,957558488938,CAB,05/10/2001,001,2023-04-18_22h59.14.471,OS3_Mult_verification,2022.2.4,Win32,59.82650314,,,,,,,,,,,,,,,,,,,,,,,,,,,,,,,,,,,,,,,,,,,,,,,,,,,,,,,,,,,,,,,,,,,,,,,,,,,,,,,,,left,0,1.3276,,,,,,magnitude,3,8,3 | 8,5,0.06,0.06,neutral,right,0,15,15,66,1,,,,,,,,,,,,,,,,,,,,,,,,,,,,,,,,,,,,,,,,,,,,,,,,,,,,,,,,,,,,,,,,,,,,,,,,
,957558488938,CAB,05/10/2001,001,2023-04-18_22h59.14.471,OS3_Mult_verification,2022.2.4,Win32,59.82650314,,,,,,,,,,,,,,,,,,,,,,,,,,,,,,,,,,,,,,,,,,,,,,,,,,,,,,,,,,,,,,,,,,,,,,,,,,,,,,,,,left,0,1.5154,,,,,,magnitude,6,7,6 | 7,1,0.06,0.06,neutral,right,0,16,16,50,1,,,,,,,,,,,,,,,,,,,,,,,,,,,,,,,,,,,,,,,,,,,,,,,,,,,,,,,,,,,,,,,,,,,,,,,,
,957558488938,CAB,05/10/2001,001,2023-04-18_22h59.14.471,OS3_Mult_verification,2022.2.4,Win32,59.82650314,,,,,,,,,,,,,,,,,,,,,,,,,,,,,,,,,,,,,,,,,,,,,,,,,,,,,,,,,,,,,,,,,,,,,,,,,,,,,,,,,left,0,1.2715,,,,,,magnitude,4,9,4 | 9,5,0.06,0.06,neutral,right,0,17,17,67,1,,,,,,,,,,,,,,,,,,,,,,,,,,,,,,,,,,,,,,,,,,,,,,,,,,,,,,,,,,,,,,,,,,,,,,,,
,957558488938,CAB,05/10/2001,001,2023-04-18_22h59.14.471,OS3_Mult_verification,2022.2.4,Win32,59.82650314,,,,,,,,,,,,,,,,,,,,,,,,,,,,,,,,,,,,,,,,,,,,,,,,,,,,,,,,,,,,,,,,,,,,,,,,,,,,,,,,,left,0,1.4401,,,,,,magnitude,8,9,8 | 9,1,0.06,0.06,neutral,right,0,18,18,51,1,,,,,,,,,,,,,,,,,,,,,,,,,,,,,,,,,,,,,,,,,,,,,,,,,,,,,,,,,,,,,,,,,,,,,,,,
,957558488938,CAB,05/10/2001,001,2023-04-18_22h59.14.471,OS3_Mult_verification,2022.2.4,Win32,59.82650314,,,,,,,,,,,,,,,,,,,,,,,,,,,,,,,,,,,,,,,,,,,,,,,,,,,,,,,,,,,,,,,,,,,,,,,,,,,,,,,,,left,1,1.8472,,,,,,magnitude,4,2,4 | 2,2,0.06,0.06,neutral,left,0,19,19,61,1,,,,,,,,,,,,,,,,,,,,,,,,,,,,,,,,,,,,,,,,,,,,,,,,,,,,,,,,,,,,,,,,,,,,,,,,
,957558488938,CAB,05/10/2001,001,2023-04-18_22h59.14.471,OS3_Mult_verification,2022.2.4,Win32,59.82650314,,,,,,,,,,,,,,,,,,,,,,,,,,,,,,,,,,,,,,,,,,,,,,,,,,,,,,,,,,,,,,,,,,,,,,,,,,,,,,,,,right,0,0.5287,,,,,,magnitude,3,1,3 | 1,2,0.05,0.065,incongruent,left,0,20,20,36,1,,,,,,,,,,,,,,,,,,,,,,,,,,,,,,,,,,,,,,,,,,,,,,,,,,,,,,,,,,,,,,,,,,,,,,,,
,957558488938,CAB,05/10/2001,001,2023-04-18_22h59.14.471,OS3_Mult_verification,2022.2.4,Win32,59.82650314,,,,,,,,,,,,,,,,,,,,,,,,,,,,,,,,,,,,,,,,,,,,,,,,,,,,,,,,,,,,,,,,,,,,,,,,,,,,,,,,,left,1,0.4772,,,,,,magnitude,9,8,9 | 8,1,0.065,0.05,congruent,left,0,21,21,7,1,,,,,,,,,,,,,,,,,,,,,,,,,,,,,,,,,,,,,,,,,,,,,,,,,,,,,,,,,,,,,,,,,,,,,,,,
,957558488938,CAB,05/10/2001,001,2023-04-18_22h59.14.471,OS3_Mult_verification,2022.2.4,Win32,59.82650314,,,,,,,,,,,,,,,,,,,,,,,,,,,,,,,,,,,,,,,,,,,,,,,,,,,,,,,,,,,,,,,,,,,,,,,,,,,,,,,,,right,1,0.5108,,,,,,magnitude,1,6,1 | 6,5,0.05,0.065,congruent,right,0,22,22,16,1,,,,,,,,,,,,,,,,,,,,,,,,,,,,,,,,,,,,,,,,,,,,,,,,,,,,,,,,,,,,,,,,,,,,,,,,
,957558488938,CAB,05/10/2001,001,2023-04-18_22h59.14.471,OS3_Mult_verification,2022.2.4,Win32,59.82650314,,,,,,,,,,,,,,,,,,,,,,,,,,,,,,,,,,,,,,,,,,,,,,,,,,,,,,,,,,,,,,,,,,,,,,,,,,,,,,,,,left,1,0.48,,,,,,magnitude,4,2,4 | 2,2,0.065,0.05,congruent,left,0,23,23,13,1,,,,,,,,,,,,,,,,,,,,,,,,,,,,,,,,,,,,,,,,,,,,,,,,,,,,,,,,,,,,,,,,,,,,,,,,
,957558488938,CAB,05/10/2001,001,2023-04-18_22h59.14.471,OS3_Mult_verification,2022.2.4,Win32,59.82650314,,,,,,,,,,,,,,,,,,,,,,,,,,,,,,,,,,,,,,,,,,,,,,,,,,,,,,,,,,,,,,,,,,,,,,,,,,,,,,,,,right,0,0.7945,,,,,,magnitude,7,6,7 | 6,1,0.05,0.065,incongruent,left,0,24,24,30,1,,,,,,,,,,,,,,,,,,,,,,,,,,,,,,,,,,,,,,,,,,,,,,,,,,,,,,,,,,,,,,,,,,,,,,,,
,957558488938,CAB,05/10/2001,001,2023-04-18_22h59.14.471,OS3_Mult_verification,2022.2.4,Win32,59.82650314,,,,,,,,,,,,,,,,,,,,,,,,,,,,,,,,,,,,,,,,,,,,,,,,,,,,,,,,,,,,,,,,,,,,,,,,,,,,,,,,,right,1,0.5145,,,,,,magnitude,6,7,6 | 7,1,0.05,0.065,congruent,right,0,25,25,2,1,,,,,,,,,,,,,,,,,,,,,,,,,,,,,,,,,,,,,,,,,,,,,,,,,,,,,,,,,,,,,,,,,,,,,,,,
,957558488938,CAB,05/10/2001,001,2023-04-18_22h59.14.471,OS3_Mult_verification,2022.2.4,Win32,59.82650314,,,,,,,,,,,,,,,,,,,,,,,,,,,,,,,,,,,,,,,,,,,,,,,,,,,,,,,,,,,,,,,,,,,,,,,,,,,,,,,,,right,1,0.4939,,,,,,magnitude,7,9,7 | 9,2,0.05,0.065,congruent,right,0,26,26,11,1,,,,,,,,,,,,,,,,,,,,,,,,,,,,,,,,,,,,,,,,,,,,,,,,,,,,,,,,,,,,,,,,,,,,,,,,
,957558488938,CAB,05/10/2001,001,2023-04-18_22h59.14.471,OS3_Mult_verification,2022.2.4,Win32,59.82650314,,,,,,,,,,,,,,,,,,,,,,,,,,,,,,,,,,,,,,,,,,,,,,,,,,,,,,,,,,,,,,,,,,,,,,,,,,,,,,,,,left,0,0.4689,,,,,,magnitude,3,8,3 | 8,5,0.065,0.05,incongruent,right,0,27,27,42,1,,,,,,,,,,,,,,,,,,,,,,,,,,,,,,,,,,,,,,,,,,,,,,,,,,,,,,,,,,,,,,,,,,,,,,,,
,957558488938,CAB,05/10/2001,001,2023-04-18_22h59.14.471,OS3_Mult_verification,2022.2.4,Win32,59.82650314,,,,,,,,,,,,,,,,,,,,,,,,,,,,,,,,,,,,,,,,,,,,,,,,,,,,,,,,,,,,,,,,,,,,,,,,,,,,,,,,,left,1,0.4935,,,,,,magnitude,7,2,7 | 2,5,0.065,0.05,congruent,left,0,28,28,21,1,,,,,,,,,,,,,,,,,,,,,,,,,,,,,,,,,,,,,,,,,,,,,,,,,,,,,,,,,,,,,,,,,,,,,,,,
,957558488938,CAB,05/10/2001,001,2023-04-18_22h59.14.471,OS3_Mult_verification,2022.2.4,Win32,59.82650314,,,,,,,,,,,,,,,,,,,,,,,,,,,,,,,,,,,,,,,,,,,,,,,,,,,,,,,,,,,,,,,,,,,,,,,,,,,,,,,,,left,0,0.4531,,,,,,magnitude,1,3,1 | 3,2,0.065,0.05,incongruent,right,0,29,29,32,1,,,,,,,,,,,,,,,,,,,,,,,,,,,,,,,,,,,,,,,,,,,,,,,,,,,,,,,,,,,,,,,,,,,,,,,,
,957558488938,CAB,05/10/2001,001,2023-04-18_22h59.14.471,OS3_Mult_verification,2022.2.4,Win32,59.82650314,,,,,,,,,,,,,,,,,,,,,,,,,,,,,,,,,,,,,,,,,,,,,,,,,,,,,,,,,,,,,,,,,,,,,,,,,,,,,,,,,left,1,0.5444,,,,,,magnitude,4,3,4 | 3,1,0.06,0.06,neutral,left,0,30,30,53,1,,,,,,,,,,,,,,,,,,,,,,,,,,,,,,,,,,,,,,,,,,,,,,,,,,,,,,,,,,,,,,,,,,,,,,,,
,957558488938,CAB,05/10/2001,001,2023-04-18_22h59.14.471,OS3_Mult_verification,2022.2.4,Win32,59.82650314,,,,,,,,,,,,,,,,,,,,,,,,,,,,,,,,,,,,,,,,,,,,,,,,,,,,,,,,,,,,,,,,,,,,,,,,,,,,,,,,,right,0,0.4886,,,,,,magnitude,4,2,4 | 2,2,0.05,0.065,incongruent,left,0,31,31,37,1,,,,,,,,,,,,,,,,,,,,,,,,,,,,,,,,,,,,,,,,,,,,,,,,,,,,,,,,,,,,,,,,,,,,,,,,
,957558488938,CAB,05/10/2001,001,2023-04-18_22h59.14.471,OS3_Mult_verification,2022.2.4,Win32,59.82650314,,,,,,,,,,,,,,,,,,,,,,,,,,,,,,,,,,,,,,,,,,,,,,,,,,,,,,,,,,,,,,,,,,,,,,,,,,,,,,,,,right,1,0.5198,,,,,,magnitude,1,2,1 | 2,1,0.05,0.065,congruent,right,0,32,32,0,1,,,,,,,,,,,,,,,,,,,,,,,,,,,,,,,,,,,,,,,,,,,,,,,,,,,,,,,,,,,,,,,,,,,,,,,,
,957558488938,CAB,05/10/2001,001,2023-04-18_22h59.14.471,OS3_Mult_verification,2022.2.4,Win32,59.82650314,,,,,,,,,,,,,,,,,,,,,,,,,,,,,,,,,,,,,,,,,,,,,,,,,,,,,,,,,,,,,,,,,,,,,,,,,,,,,,,,,right,0,0.5195,,,,,,magnitude,4,3,4 | 3,1,0.05,0.065,incongruent,left,0,33,33,29,1,,,,,,,,,,,,,,,,,,,,,,,,,,,,,,,,,,,,,,,,,,,,,,,,,,,,,,,,,,,,,,,,,,,,,,,,
,957558488938,CAB,05/10/2001,001,2023-04-18_22h59.14.471,OS3_Mult_verification,2022.2.4,Win32,59.82650314,,,,,,,,,,,,,,,,,,,,,,,,,,,,,,,,,,,,,,,,,,,,,,,,,,,,,,,,,,,,,,,,,,,,,,,,,,,,,,,,,left,1,0.4872,,,,,,magnitude,9,8,9 | 8,1,0.06,0.06,neutral,left,0,34,34,55,1,,,,,,,,,,,,,,,,,,,,,,,,,,,,,,,,,,,,,,,,,,,,,,,,,,,,,,,,,,,,,,,,,,,,,,,,
,957558488938,CAB,05/10/2001,001,2023-04-18_22h59.14.471,OS3_Mult_verification,2022.2.4,Win32,59.82650314,,,,,,,,,,,,,,,,,,,,,,,,,,,,,,,,,,,,,,,,,,,,,,,,,,,,,,,,,,,,,,,,,,,,,,,,,,,,,,,,,left,1,0.5132,,,,,,magnitude,7,6,7 | 6,1,0.065,0.05,congruent,left,0,35,35,6,1,,,,,,,,,,,,,,,,,,,,,,,,,,,,,,,,,,,,,,,,,,,,,,,,,,,,,,,,,,,,,,,,,,,,,,,,
,957558488938,CAB,05/10/2001,001,2023-04-18_22h59.14.471,OS3_Mult_verification,2022.2.4,Win32,59.82650314,,,,,,,,,,,,,,,,,,,,,,,,,,,,,,,,,,,,,,,,,,,,,,,,,,,,,,,,,,,,,,,,,,,,,,,,,,,,,,,,,right,1,0.4165,,,,,,magnitude,4,9,4 | 9,5,0.05,0.065,congruent,right,0,36,36,19,1,,,,,,,,,,,,,,,,,,,,,,,,,,,,,,,,,,,,,,,,,,,,,,,,,,,,,,,,,,,,,,,,,,,,,,,,
,957558488938,CAB,05/10/2001,001,2023-04-18_22h59.14.471,OS3_Mult_verification,2022.2.4,Win32,59.82650314,,,,,,,,,,,,,,,,,,,,,,,,,,,,,,,,,,,,,,,,,,,,,,,,,,,,,,,,,,,,,,,,,,,,,,,,,,,,,,,,,left,0,0.5802,,,,,,magnitude,2,4,2 | 4,2,0.065,0.05,incongruent,right,0,37,37,33,1,,,,,,,,,,,,,,,,,,,,,,,,,,,,,,,,,,,,,,,,,,,,,,,,,,,,,,,,,,,,,,,,,,,,,,,,
,957558488938,CAB,05/10/2001,001,2023-04-18_22h59.14.471,OS3_Mult_verification,2022.2.4,Win32,59.82650314,,,,,,,,,,,,,,,,,,,,,,,,,,,,,,,,,,,,,,,,,,,,,,,,,,,,,,,,,,,,,,,,,,,,,,,,,,,,,,,,,right,0,0.4541,,,,,,magnitude,9,7,9 | 7,2,0.05,0.065,incongruent,left,0,38,38,39,1,,,,,,,,,,,,,,,,,,,,,,,,,,,,,,,,,,,,,,,,,,,,,,,,,,,,,,,,,,,,,,,,,,,,,,,,
,957558488938,CAB,05/10/2001,001,2023-04-18_22h59.14.471,OS3_Mult_verification,2022.2.4,Win32,59.82650314,,,,,,,,,,,,,,,,,,,,,,,,,,,,,,,,,,,,,,,,,,,,,,,,,,,,,,,,,,,,,,,,,,,,,,,,,,,,,,,,,right,0,0.4943,,,,,,magnitude,2,1,2 | 1,1,0.05,0.065,incongruent,left,0,39,39,28,1,,,,,,,,,,,,,,,,,,,,,,,,,,,,,,,,,,,,,,,,,,,,,,,,,,,,,,,,,,,,,,,,,,,,,,,,
,957558488938,CAB,05/10/2001,001,2023-04-18_22h59.14.471,OS3_Mult_verification,2022.2.4,Win32,59.82650314,,,,,,,,,,,,,,,,,,,,,,,,,,,,,,,,,,,,,,,,,,,,,,,,,,,,,,,,,,,,,,,,,,,,,,,,,,,,,,,,,left,1,0.4446,,,,,,magnitude,8,6,8 | 6,2,0.065,0.05,congruent,left,0,40,40,14,1,,,,,,,,,,,,,,,,,,,,,,,,,,,,,,,,,,,,,,,,,,,,,,,,,,,,,,,,,,,,,,,,,,,,,,,,
,957558488938,CAB,05/10/2001,001,2023-04-18_22h59.14.471,OS3_Mult_verification,2022.2.4,Win32,59.82650314,,,,,,,,,,,,,,,,,,,,,,,,,,,,,,,,,,,,,,,,,,,,,,,,,,,,,,,,,,,,,,,,,,,,,,,,,,,,,,,,,left,1,1.0268,,,,,,magnitude,9,7,9 | 7,2,0.06,0.06,neutral,left,0,41,41,63,1,,,,,,,,,,,,,,,,,,,,,,,,,,,,,,,,,,,,,,,,,,,,,,,,,,,,,,,,,,,,,,,,,,,,,,,,
,957558488938,CAB,05/10/2001,001,2023-04-18_22h59.14.471,OS3_Mult_verification,2022.2.4,Win32,59.82650314,,,,,,,,,,,,,,,,,,,,,,,,,,,,,,,,,,,,,,,,,,,,,,,,,,,,,,,,,,,,,,,,,,,,,,,,,,,,,,,,,left,1,0.4488,,,,,,magnitude,2,1,2 | 1,1,0.065,0.05,congruent,left,0,42,42,4,1,,,,,,,,,,,,,,,,,,,,,,,,,,,,,,,,,,,,,,,,,,,,,,,,,,,,,,,,,,,,,,,,,,,,,,,,
,957558488938,CAB,05/10/2001,001,2023-04-18_22h59.14.471,OS3_Mult_verification,2022.2.4,Win32,59.82650314,,,,,,,,,,,,,,,,,,,,,,,,,,,,,,,,,,,,,,,,,,,,,,,,,,,,,,,,,,,,,,,,,,,,,,,,,,,,,,,,,right,0,0.4612,,,,,,magnitude,9,4,9 | 4,5,0.05,0.065,incongruent,left,0,43,43,47,1,,,,,,,,,,,,,,,,,,,,,,,,,,,,,,,,,,,,,,,,,,,,,,,,,,,,,,,,,,,,,,,,,,,,,,,,
,957558488938,CAB,05/10/2001,001,2023-04-18_22h59.14.471,OS3_Mult_verification,2022.2.4,Win32,59.82650314,,,,,,,,,,,,,,,,,,,,,,,,,,,,,,,,,,,,,,,,,,,,,,,,,,,,,,,,,,,,,,,,,,,,,,,,,,,,,,,,,right,1,0.512,,,,,,magnitude,6,8,6 | 8,2,0.05,0.065,congruent,right,0,44,44,10,1,,,,,,,,,,,,,,,,,,,,,,,,,,,,,,,,,,,,,,,,,,,,,,,,,,,,,,,,,,,,,,,,,,,,,,,,
,957558488938,CAB,05/10/2001,001,2023-04-18_22h59.14.471,OS3_Mult_verification,2022.2.4,Win32,59.82650314,,,,,,,,,,,,,,,,,,,,,,,,,,,,,,,,,,,,,,,,,,,,,,,,,,,,,,,,,,,,,,,,,,,,,,,,,,,,,,,,,left,1,0.9944,,,,,,magnitude,8,6,8 | 6,2,0.06,0.06,neutral,left,0,45,45,62,1,,,,,,,,,,,,,,,,,,,,,,,,,,,,,,,,,,,,,,,,,,,,,,,,,,,,,,,,,,,,,,,,,,,,,,,,
,957558488938,CAB,05/10/2001,001,2023-04-18_22h59.14.471,OS3_Mult_verification,2022.2.4,Win32,59.82650314,,,,,,,,,,,,,,,,,,,,,,,,,,,,,,,,,,,,,,,,,,,,,,,,,,,,,,,,,,,,,,,,,,,,,,,,,,,,,,,,,right,0,1.0964,,,,,,magnitude,9,4,9 | 4,5,0.06,0.06,neutral,left,0,46,46,71,1,,,,,,,,,,,,,,,,,,,,,,,,,,,,,,,,,,,,,,,,,,,,,,,,,,,,,,,,,,,,,,,,,,,,,,,,
,957558488938,CAB,05/10/2001,001,2023-04-18_22h59.14.471,OS3_Mult_verification,2022.2.4,Win32,59.82650314,,,,,,,,,,,,,,,,,,,,,,,,,,,,,,,,,,,,,,,,,,,,,,,,,,,,,,,,,,,,,,,,,,,,,,,,,,,,,,,,,left,1,0.6297,,,,,,magnitude,7,6,7 | 6,1,0.06,0.06,neutral,left,0,47,47,54,1,,,,,,,,,,,,,,,,,,,,,,,,,,,,,,,,,,,,,,,,,,,,,,,,,,,,,,,,,,,,,,,,,,,,,,,,
,957558488938,CAB,05/10/2001,001,2023-04-18_22h59.14.471,OS3_Mult_verification,2022.2.4,Win32,59.82650314,,,,,,,,,,,,,,,,,,,,,,,,,,,,,,,,,,,,,,,,,,,,,,,,,,,,,,,,,,,,,,,,,,,,,,,,,,,,,,,,,left,1,0.4998,,,,,,magnitude,9,7,9 | 7,2,0.065,0.05,congruent,left,0,48,48,15,1,,,,,,,,,,,,,,,,,,,,,,,,,,,,,,,,,,,,,,,,,,,,,,,,,,,,,,,,,,,,,,,,,,,,,,,,
,957558488938,CAB,05/10/2001,001,2023-04-18_22h59.14.471,OS3_Mult_verification,2022.2.4,Win32,59.82650314,,,,,,,,,,,,,,,,,,,,,,,,,,,,,,,,,,,,,,,,,,,,,,,,,,,,,,,,,,,,,,,,,,,,,,,,,,,,,,,,,left,0,0.4882,,,,,,magnitude,6,7,6 | 7,1,0.065,0.05,incongruent,right,0,49,49,26,1,,,,,,,,,,,,,,,,,,,,,,,,,,,,,,,,,,,,,,,,,,,,,,,,,,,,,,,,,,,,,,,,,,,,,,,,
,957558488938,CAB,05/10/2001,001,2023-04-18_22h59.14.471,OS3_Mult_verification,2022.2.4,Win32,59.82650314,,,,,,,,,,,,,,,,,,,,,,,,,,,,,,,,,,,,,,,,,,,,,,,,,,,,,,,,,,,,,,,,,,,,,,,,,,,,,,,,,right,1,0.4105,,,,,,magnitude,3,4,3 | 4,1,0.05,0.065,congruent,right,0,50,50,1,1,,,,,,,,,,,,,,,,,,,,,,,,,,,,,,,,,,,,,,,,,,,,,,,,,,,,,,,,,,,,,,,,,,,,,,,,
,957558488938,CAB,05/10/2001,001,2023-04-18_22h59.14.471,OS3_Mult_verification,2022.2.4,Win32,59.82650314,,,,,,,,,,,,,,,,,,,,,,,,,,,,,,,,,,,,,,,,,,,,,,,,,,,,,,,,,,,,,,,,,,,,,,,,,,,,,,,,,right,0,0.5383,,,,,,magnitude,8,3,8 | 3,5,0.05,0.065,incongruent,left,0,51,51,46,1,,,,,,,,,,,,,,,,,,,,,,,,,,,,,,,,,,,,,,,,,,,,,,,,,,,,,,,,,,,,,,,,,,,,,,,,
,957558488938,CAB,05/10/2001,001,2023-04-18_22h59.14.471,OS3_Mult_verification,2022.2.4,Win32,59.82650314,,,,,,,,,,,,,,,,,,,,,,,,,,,,,,,,,,,,,,,,,,,,,,,,,,,,,,,,,,,,,,,,,,,,,,,,,,,,,,,,,right,1,0.498,,,,,,magnitude,2,4,2 | 4,2,0.05,0.065,congruent,right,0,52,52,9,1,,,,,,,,,,,,,,,,,,,,,,,,,,,,,,,,,,,,,,,,,,,,,,,,,,,,,,,,,,,,,,,,,,,,,,,,
,957558488938,CAB,05/10/2001,001,2023-04-18_22h59.14.471,OS3_Mult_verification,2022.2.4,Win32,59.82650314,,,,,,,,,,,,,,,,,,,,,,,,,,,,,,,,,,,,,,,,,,,,,,,,,,,,,,,,,,,,,,,,,,,,,,,,,,,,,,,,,right,1,0.5774,,,,,,magnitude,2,4,2 | 4,2,0.06,0.06,neutral,right,0,53,53,57,1,,,,,,,,,,,,,,,,,,,,,,,,,,,,,,,,,,,,,,,,,,,,,,,,,,,,,,,,,,,,,,,,,,,,,,,,
,957558488938,CAB,05/10/2001,001,2023-04-18_22h59.14.471,OS3_Mult_verification,2022.2.4,Win32,59.82650314,,,,,,,,,,,,,,,,,,,,,,,,,,,,,,,,,,,,,,,,,,,,,,,,,,,,,,,,,,,,,,,,,,,,,,,,,,,,,,,,,left,1,0.8874,,,,,,magnitude,2,1,2 | 1,1,0.06,0.06,neutral,left,0,54,54,52,1,,,,,,,,,,,,,,,,,,,,,,,,,,,,,,,,,,,,,,,,,,,,,,,,,,,,,,,,,,,,,,,,,,,,,,,,
,957558488938,CAB,05/10/2001,001,2023-04-18_22h59.14.471,OS3_Mult_verification,2022.2.4,Win32,59.82650314,,,,,,,,,,,,,,,,,,,,,,,,,,,,,,,,,,,,,,,,,,,,,,,,,,,,,,,,,,,,,,,,,,,,,,,,,,,,,,,,,left,0,0.455,,,,,,magnitude,7,9,7 | 9,2,0.065,0.05,incongruent,right,0,55,55,35,1,,,,,,,,,,,,,,,,,,,,,,,,,,,,,,,,,,,,,,,,,,,,,,,,,,,,,,,,,,,,,,,,,,,,,,,,
,957558488938,CAB,05/10/2001,001,2023-04-18_22h59.14.471,OS3_Mult_verification,2022.2.4,Win32,59.82650314,,,,,,,,,,,,,,,,,,,,,,,,,,,,,,,,,,,,,,,,,,,,,,,,,,,,,,,,,,,,,,,,,,,,,,,,,,,,,,,,,left,0,0.431,,,,,,magnitude,4,9,4 | 9,5,0.065,0.05,incongruent,right,0,56,56,43,1,,,,,,,,,,,,,,,,,,,,,,,,,,,,,,,,,,,,,,,,,,,,,,,,,,,,,,,,,,,,,,,,,,,,,,,,
,957558488938,CAB,05/10/2001,001,2023-04-18_22h59.14.471,OS3_Mult_verification,2022.2.4,Win32,59.82650314,,,,,,,,,,,,,,,,,,,,,,,,,,,,,,,,,,,,,,,,,,,,,,,,,,,,,,,,,,,,,,,,,,,,,,,,,,,,,,,,,right,0,0.48,,,,,,magnitude,6,1,6 | 1,5,0.05,0.065,incongruent,left,0,57,57,44,1,,,,,,,,,,,,,,,,,,,,,,,,,,,,,,,,,,,,,,,,,,,,,,,,,,,,,,,,,,,,,,,,,,,,,,,,
,957558488938,CAB,05/10/2001,001,2023-04-18_22h59.14.471,OS3_Mult_verification,2022.2.4,Win32,59.82650314,,,,,,,,,,,,,,,,,,,,,,,,,,,,,,,,,,,,,,,,,,,,,,,,,,,,,,,,,,,,,,,,,,,,,,,,,,,,,,,,,left,0,0.4482,,,,,,magnitude,6,8,6 | 8,2,0.065,0.05,incongruent,right,0,58,58,34,1,,,,,,,,,,,,,,,,,,,,,,,,,,,,,,,,,,,,,,,,,,,,,,,,,,,,,,,,,,,,,,,,,,,,,,,,
,957558488938,CAB,05/10/2001,001,2023-04-18_22h59.14.471,OS3_Mult_verification,2022.2.4,Win32,59.82650314,,,,,,,,,,,,,,,,,,,,,,,,,,,,,,,,,,,,,,,,,,,,,,,,,,,,,,,,,,,,,,,,,,,,,,,,,,,,,,,,,left,1,0.533,,,,,,magnitude,6,1,6 | 1,5,0.065,0.05,congruent,left,0,59,59,20,1,,,,,,,,,,,,,,,,,,,,,,,,,,,,,,,,,,,,,,,,,,,,,,,,,,,,,,,,,,,,,,,,,,,,,,,,
,957558488938,CAB,05/10/2001,001,2023-04-18_22h59.14.471,OS3_Mult_verification,2022.2.4,Win32,59.82650314,,,,,,,,,,,,,,,,,,,,,,,,,,,,,,,,,,,,,,,,,,,,,,,,,,,,,,,,,,,,,,,,,,,,,,,,,,,,,,,,,left,0,1.007,,,,,,magnitude,2,7,2 | 7,5,0.06,0.06,neutral,right,0,60,60,65,1,,,,,,,,,,,,,,,,,,,,,,,,,,,,,,,,,,,,,,,,,,,,,,,,,,,,,,,,,,,,,,,,,,,,,,,,
,957558488938,CAB,05/10/2001,001,2023-04-18_22h59.14.471,OS3_Mult_verification,2022.2.4,Win32,59.82650314,,,,,,,,,,,,,,,,,,,,,,,,,,,,,,,,,,,,,,,,,,,,,,,,,,,,,,,,,,,,,,,,,,,,,,,,,,,,,,,,,right,0,0.6286,,,,,,magnitude,6,1,6 | 1,5,0.06,0.06,neutral,left,0,61,61,68,1,,,,,,,,,,,,,,,,,,,,,,,,,,,,,,,,,,,,,,,,,,,,,,,,,,,,,,,,,,,,,,,,,,,,,,,,
,957558488938,CAB,05/10/2001,001,2023-04-18_22h59.14.471,OS3_Mult_verification,2022.2.4,Win32,59.82650314,,,,,,,,,,,,,,,,,,,,,,,,,,,,,,,,,,,,,,,,,,,,,,,,,,,,,,,,,,,,,,,,,,,,,,,,,,,,,,,,,left,0,0.444,,,,,,magnitude,1,2,1 | 2,1,0.065,0.05,incongruent,right,0,62,62,24,1,,,,,,,,,,,,,,,,,,,,,,,,,,,,,,,,,,,,,,,,,,,,,,,,,,,,,,,,,,,,,,,,,,,,,,,,
,957558488938,CAB,05/10/2001,001,2023-04-18_22h59.14.471,OS3_Mult_verification,2022.2.4,Win32,59.82650314,,,,,,,,,,,,,,,,,,,,,,,,,,,,,,,,,,,,,,,,,,,,,,,,,,,,,,,,,,,,,,,,,,,,,,,,,,,,,,,,,right,0,1.1951,,,,,,magnitude,7,2,7 | 2,5,0.06,0.06,neutral,left,0,63,63,69,1,,,,,,,,,,,,,,,,,,,,,,,,,,,,,,,,,,,,,,,,,,,,,,,,,,,,,,,,,,,,,,,,,,,,,,,,
,957558488938,CAB,05/10/2001,001,2023-04-18_22h59.14.471,OS3_Mult_verification,2022.2.4,Win32,59.82650314,,,,,,,,,,,,,,,,,,,,,,,,,,,,,,,,,,,,,,,,,,,,,,,,,,,,,,,,,,,,,,,,,,,,,,,,,,,,,,,,,left,0,0.4107,,,,,,magnitude,1,6,1 | 6,5,0.065,0.05,incongruent,right,0,64,64,40,1,,,,,,,,,,,,,,,,,,,,,,,,,,,,,,,,,,,,,,,,,,,,,,,,,,,,,,,,,,,,,,,,,,,,,,,,
,957558488938,CAB,05/10/2001,001,2023-04-18_22h59.14.471,OS3_Mult_verification,2022.2.4,Win32,59.82650314,,,,,,,,,,,,,,,,,,,,,,,,,,,,,,,,,,,,,,,,,,,,,,,,,,,,,,,,,,,,,,,,,,,,,,,,,,,,,,,,,left,1,0.5781,,,,,,magnitude,3,1,3 | 1,2,0.065,0.05,congruent,left,0,65,65,12,1,,,,,,,,,,,,,,,,,,,,,,,,,,,,,,,,,,,,,,,,,,,,,,,,,,,,,,,,,,,,,,,,,,,,,,,,
,957558488938,CAB,05/10/2001,001,2023-04-18_22h59.14.471,OS3_Mult_verification,2022.2.4,Win32,59.82650314,,,,,,,,,,,,,,,,,,,,,,,,,,,,,,,,,,,,,,,,,,,,,,,,,,,,,,,,,,,,,,,,,,,,,,,,,,,,,,,,,right,1,0.447,,,,,,magnitude,2,7,2 | 7,5,0.05,0.065,congruent,right,0,66,66,17,1,,,,,,,,,,,,,,,,,,,,,,,,,,,,,,,,,,,,,,,,,,,,,,,,,,,,,,,,,,,,,,,,,,,,,,,,
,957558488938,CAB,05/10/2001,001,2023-04-18_22h59.14.471,OS3_Mult_verification,2022.2.4,Win32,59.82650314,,,,,,,,,,,,,,,,,,,,,,,,,,,,,,,,,,,,,,,,,,,,,,,,,,,,,,,,,,,,,,,,,,,,,,,,,,,,,,,,,left,1,0.3911,,,,,,magnitude,4,3,4 | 3,1,0.065,0.05,congruent,left,0,67,67,5,1,,,,,,,,,,,,,,,,,,,,,,,,,,,,,,,,,,,,,,,,,,,,,,,,,,,,,,,,,,,,,,,,,,,,,,,,
,957558488938,CAB,05/10/2001,001,2023-04-18_22h59.14.471,OS3_Mult_verification,2022.2.4,Win32,59.82650314,,,,,,,,,,,,,,,,,,,,,,,,,,,,,,,,,,,,,,,,,,,,,,,,,,,,,,,,,,,,,,,,,,,,,,,,,,,,,,,,,right,1,1.0919,,,,,,magnitude,1,6,1 | 6,5,0.06,0.06,neutral,right,0,68,68,64,1,,,,,,,,,,,,,,,,,,,,,,,,,,,,,,,,,,,,,,,,,,,,,,,,,,,,,,,,,,,,,,,,,,,,,,,,
,957558488938,CAB,05/10/2001,001,2023-04-18_22h59.14.471,OS3_Mult_verification,2022.2.4,Win32,59.82650314,,,,,,,,,,,,,,,,,,,,,,,,,,,,,,,,,,,,,,,,,,,,,,,,,,,,,,,,,,,,,,,,,,,,,,,,,,,,,,,,,right,1,0.6011,,,,,,magnitude,1,3,1 | 3,2,0.05,0.065,congruent,right,0,69,69,8,1,,,,,,,,,,,,,,,,,,,,,,,,,,,,,,,,,,,,,,,,,,,,,,,,,,,,,,,,,,,,,,,,,,,,,,,,
,957558488938,CAB,05/10/2001,001,2023-04-18_22h59.14.471,OS3_Mult_verification,2022.2.4,Win32,59.82650314,,,,,,,,,,,,,,,,,,,,,,,,,,,,,,,,,,,,,,,,,,,,,,,,,,,,,,,,,,,,,,,,,,,,,,,,,,,,,,,,,left,1,0.5165,,,,,,magnitude,9,4,9 | 4,5,0.065,0.05,congruent,left,0,70,70,23,1,,,,,,,,,,,,,,,,,,,,,,,,,,,,,,,,,,,,,,,,,,,,,,,,,,,,,,,,,,,,,,,,,,,,,,,,
,957558488938,CAB,05/10/2001,001,2023-04-18_22h59.14.471,OS3_Mult_verification,2022.2.4,Win32,59.82650314,,,,,,,,,,,,,,,,,,,,,,,,,,,,,,,,,,,,,,,,,,,,,,,,,,,,,,,,,,,,,,,,,,,,,,,,,,,,,,,,,left,0,1.0677,,,,,,magnitude,3,4,3 | 4,1,0.06,0.06,neutral,right,0,71,71,49,1,,,,,,,,,,,,,,,,,,,,,,,,,,,,,,,,,,,,,,,,,,,,,,,,,,,,,,,,,,,,,,,,,,,,,,,,
,957558488938,CAB,05/10/2001,001,2023-04-18_22h59.14.471,OS3_Mult_verification,2022.2.4,Win32,59.82650314,,,,,,,,,,,,,,,,,,,,,,,,,,,,,,,,,,,,,,,,,,,,,,,,,,,,,,,,,,,,,,,,,,,,,,,,,,,,,,,,,,,,,,,,,,,,,,,,,,,,,,,0,0,0,0,1,stroop_stim/magnitude.xlsx,stroop_stim/prac_magnitude.xlsx,NUMERICALLY larger (larger coefficient).,images/numericallyLarger.png,,,,,,,,,,,,,,,,,,,,,,,,,,,,,,,,,,,,,,,,,,,,,,,,,,,,,,,,,,,,,,,
,957558488938,CAB,05/10/2001,001,2023-04-18_22h59.14.471,OS3_Mult_verification,2022.2.4,Win32,59.82650314,,,,,,,,,,,,,,,,space,1.1258,,,,,,,,,,,,,,,,,,,,,,,,,,,,,,,,,,,,,,,,,,,,,,,,,,,,,,,,,,,,,,,,left,1,0.6839,0,0,0,0,1,practice,9,8,9 | 8,1,0.065,0.05,congruent,left,,,,,,,,,,,,,,,,,,,,,,,,,,,,,,,,,,,,,,,,,,,,,,,,,,,,,,,,,,,,,,,,,,,,,,,,,,,,,
,957558488938,CAB,05/10/2001,001,2023-04-18_22h59.14.471,OS3_Mult_verification,2022.2.4,Win32,59.82650314,,,,,,,,,,,,,,,,,,,,,,,,,,,,,,,,,,,,,,,,,,,,,,,,,,,,,,,,,,,,,,,,,,,,,,,,,,,,,,,,,right,1,0.4841,0,1,1,2,1,practice,9,9,9 | 9,0,0.05,0.065,neutral,right,,,,,,,,,,,,,,,,,,,,,,,,,,,,,,,,,,,,,,,,,,,,,,,,,,,,,,,,,,,,,,,,,,,,,,,,,,,,,
,957558488938,CAB,05/10/2001,001,2023-04-18_22h59.14.471,OS3_Mult_verification,2022.2.4,Win32,59.82650314,,,,,,,,,,,,,,,,,,,,,,,,,,,,,,,,,,,,,,,,,,,,,,,,,,,,,,,,,,,,,,,,,,,,,,,,,,,,,,,,,right,1,0.4842,0,2,2,1,1,practice,4,3,4 | 3,1,0.05,0.065,incongruent,right,,,,,,,,,,,,,,,,,,,,,,,,,,,,,,,,,,,,,,,,,,,,,,,,,,,,,,,,,,,,,,,,,,,,,,,,,,,,,
,957558488938,CAB,05/10/2001,001,2023-04-18_22h59.14.471,OS3_Mult_verification,2022.2.4,Win32,59.82650314,,,,,,,,,,,,,,,,,,,,,,,,,,,,,,,,,,,,,,,,,,,,,,,,,,,,,,,,,,,,,,,,,,,,,,,,,,,,,,,,,right,1,0.7509,,,,,,physical,2,2,2 | 2,0,0.05,0.065,neutral,right,0,0,0,65,1,,,,,,,,,,,,,,,,,,,,,,,,,,,,,,,,,,,,,,,,,,,,,,,,,,,,,,,,,,,,,,,,,,,,,,,,
,957558488938,CAB,05/10/2001,001,2023-04-18_22h59.14.471,OS3_Mult_verification,2022.2.4,Win32,59.82650314,,,,,,,,,,,,,,,,,,,,,,,,,,,,,,,,,,,,,,,,,,,,,,,,,,,,,,,,,,,,,,,,,,,,,,,,,,,,,,,,,left,1,0.7009,,,,,,physical,3,8,3 | 8,5,0.065,0.05,incongruent,left,0,1,1,42,1,,,,,,,,,,,,,,,,,,,,,,,,,,,,,,,,,,,,,,,,,,,,,,,,,,,,,,,,,,,,,,,,,,,,,,,,
,957558488938,CAB,05/10/2001,001,2023-04-18_22h59.14.471,OS3_Mult_verification,2022.2.4,Win32,59.82650314,,,,,,,,,,,,,,,,,,,,,,,,,,,,,,,,,,,,,,,,,,,,,,,,,,,,,,,,,,,,,,,,,,,,,,,,,,,,,,,,,right,1,0.5714,,,,,,physical,6,7,6 | 7,1,0.05,0.065,congruent,right,0,2,2,2,1,,,,,,,,,,,,,,,,,,,,,,,,,,,,,,,,,,,,,,,,,,,,,,,,,,,,,,,,,,,,,,,,,,,,,,,,
,957558488938,CAB,05/10/2001,001,2023-04-18_22h59.14.471,OS3_Mult_verification,2022.2.4,Win32,59.82650314,,,,,,,,,,,,,,,,,,,,,,,,,,,,,,,,,,,,,,,,,,,,,,,,,,,,,,,,,,,,,,,,,,,,,,,,,,,,,,,,,right,1,0.5343,,,,,,physical,6,6,6 | 6,0,0.05,0.065,neutral,right,0,3,3,58,1,,,,,,,,,,,,,,,,,,,,,,,,,,,,,,,,,,,,,,,,,,,,,,,,,,,,,,,,,,,,,,,,,,,,,,,,
,957558488938,CAB,05/10/2001,001,2023-04-18_22h59.14.471,OS3_Mult_verification,2022.2.4,Win32,59.82650314,,,,,,,,,,,,,,,,,,,,,,,,,,,,,,,,,,,,,,,,,,,,,,,,,,,,,,,,,,,,,,,,,,,,,,,,,,,,,,,,,left,1,0.5174,,,,,,physical,1,1,1 | 1,0,0.065,0.05,neutral,left,0,4,4,48,1,,,,,,,,,,,,,,,,,,,,,,,,,,,,,,,,,,,,,,,,,,,,,,,,,,,,,,,,,,,,,,,,,,,,,,,,
,957558488938,CAB,05/10/2001,001,2023-04-18_22h59.14.471,OS3_Mult_verification,2022.2.4,Win32,59.82650314,,,,,,,,,,,,,,,,,,,,,,,,,,,,,,,,,,,,,,,,,,,,,,,,,,,,,,,,,,,,,,,,,,,,,,,,,,,,,,,,,right,1,0.4998,,,,,,physical,6,8,6 | 8,2,0.05,0.065,congruent,right,0,5,5,10,1,,,,,,,,,,,,,,,,,,,,,,,,,,,,,,,,,,,,,,,,,,,,,,,,,,,,,,,,,,,,,,,,,,,,,,,,
,957558488938,CAB,05/10/2001,001,2023-04-18_22h59.14.471,OS3_Mult_verification,2022.2.4,Win32,59.82650314,,,,,,,,,,,,,,,,,,,,,,,,,,,,,,,,,,,,,,,,,,,,,,,,,,,,,,,,,,,,,,,,,,,,,,,,,,,,,,,,,right,1,0.618,,,,,,physical,1,3,1 | 3,2,0.05,0.065,congruent,right,0,6,6,8,1,,,,,,,,,,,,,,,,,,,,,,,,,,,,,,,,,,,,,,,,,,,,,,,,,,,,,,,,,,,,,,,,,,,,,,,,
,957558488938,CAB,05/10/2001,001,2023-04-18_22h59.14.471,OS3_Mult_verification,2022.2.4,Win32,59.82650314,,,,,,,,,,,,,,,,,,,,,,,,,,,,,,,,,,,,,,,,,,,,,,,,,,,,,,,,,,,,,,,,,,,,,,,,,,,,,,,,,right,1,0.5708,,,,,,physical,8,9,8 | 9,1,0.05,0.065,congruent,right,0,7,7,3,1,,,,,,,,,,,,,,,,,,,,,,,,,,,,,,,,,,,,,,,,,,,,,,,,,,,,,,,,,,,,,,,,,,,,,,,,
,957558488938,CAB,05/10/2001,001,2023-04-18_22h59.14.471,OS3_Mult_verification,2022.2.4,Win32,59.82650314,,,,,,,,,,,,,,,,,,,,,,,,,,,,,,,,,,,,,,,,,,,,,,,,,,,,,,,,,,,,,,,,,,,,,,,,,,,,,,,,,right,1,0.5178,,,,,,physical,7,9,7 | 9,2,0.05,0.065,congruent,right,0,8,8,11,1,,,,,,,,,,,,,,,,,,,,,,,,,,,,,,,,,,,,,,,,,,,,,,,,,,,,,,,,,,,,,,,,,,,,,,,,
,957558488938,CAB,05/10/2001,001,2023-04-18_22h59.14.471,OS3_Mult_verification,2022.2.4,Win32,59.82650314,,,,,,,,,,,,,,,,,,,,,,,,,,,,,,,,,,,,,,,,,,,,,,,,,,,,,,,,,,,,,,,,,,,,,,,,,,,,,,,,,right,1,0.425,,,,,,physical,2,7,2 | 7,5,0.05,0.065,congruent,right,0,9,9,17,1,,,,,,,,,,,,,,,,,,,,,,,,,,,,,,,,,,,,,,,,,,,,,,,,,,,,,,,,,,,,,,,,,,,,,,,,
,957558488938,CAB,05/10/2001,001,2023-04-18_22h59.14.471,OS3_Mult_verification,2022.2.4,Win32,59.82650314,,,,,,,,,,,,,,,,,,,,,,,,,,,,,,,,,,,,,,,,,,,,,,,,,,,,,,,,,,,,,,,,,,,,,,,,,,,,,,,,,left,1,0.4888,,,,,,physical,7,7,7 | 7,0,0.065,0.05,neutral,left,0,10,10,54,1,,,,,,,,,,,,,,,,,,,,,,,,,,,,,,,,,,,,,,,,,,,,,,,,,,,,,,,,,,,,,,,,,,,,,,,,
,957558488938,CAB,05/10/2001,001,2023-04-18_22h59.14.471,OS3_Mult_verification,2022.2.4,Win32,59.82650314,,,,,,,,,,,,,,,,,,,,,,,,,,,,,,,,,,,,,,,,,,,,,,,,,,,,,,,,,,,,,,,,,,,,,,,,,,,,,,,,,right,1,0.4841,,,,,,physical,8,3,8 | 3,5,0.05,0.065,incongruent,right,0,11,11,46,1,,,,,,,,,,,,,,,,,,,,,,,,,,,,,,,,,,,,,,,,,,,,,,,,,,,,,,,,,,,,,,,,,,,,,,,,
,957558488938,CAB,05/10/2001,001,2023-04-18_22h59.14.471,OS3_Mult_verification,2022.2.4,Win32,59.82650314,,,,,,,,,,,,,,,,,,,,,,,,,,,,,,,,,,,,,,,,,,,,,,,,,,,,,,,,,,,,,,,,,,,,,,,,,,,,,,,,,right,1,0.4839,,,,,,physical,4,4,4 | 4,0,0.05,0.065,neutral,right,0,12,12,61,1,,,,,,,,,,,,,,,,,,,,,,,,,,,,,,,,,,,,,,,,,,,,,,,,,,,,,,,,,,,,,,,,,,,,,,,,
,957558488938,CAB,05/10/2001,001,2023-04-18_22h59.14.471,OS3_Mult_verification,2022.2.4,Win32,59.82650314,,,,,,,,,,,,,,,,,,,,,,,,,,,,,,,,,,,,,,,,,,,,,,,,,,,,,,,,,,,,,,,,,,,,,,,,,,,,,,,,,left,1,0.4478,,,,,,physical,7,9,7 | 9,2,0.065,0.05,incongruent,left,0,13,13,35,1,,,,,,,,,,,,,,,,,,,,,,,,,,,,,,,,,,,,,,,,,,,,,,,,,,,,,,,,,,,,,,,,,,,,,,,,
,957558488938,CAB,05/10/2001,001,2023-04-18_22h59.14.471,OS3_Mult_verification,2022.2.4,Win32,59.82650314,,,,,,,,,,,,,,,,,,,,,,,,,,,,,,,,,,,,,,,,,,,,,,,,,,,,,,,,,,,,,,,,,,,,,,,,,,,,,,,,,left,1,0.4982,,,,,,physical,8,8,8 | 8,0,0.065,0.05,neutral,left,0,14,14,70,1,,,,,,,,,,,,,,,,,,,,,,,,,,,,,,,,,,,,,,,,,,,,,,,,,,,,,,,,,,,,,,,,,,,,,,,,
,957558488938,CAB,05/10/2001,001,2023-04-18_22h59.14.471,OS3_Mult_verification,2022.2.4,Win32,59.82650314,,,,,,,,,,,,,,,,,,,,,,,,,,,,,,,,,,,,,,,,,,,,,,,,,,,,,,,,,,,,,,,,,,,,,,,,,,,,,,,,,left,1,0.4498,,,,,,physical,2,1,2 | 1,1,0.065,0.05,congruent,left,0,15,15,4,1,,,,,,,,,,,,,,,,,,,,,,,,,,,,,,,,,,,,,,,,,,,,,,,,,,,,,,,,,,,,,,,,,,,,,,,,
,957558488938,CAB,05/10/2001,001,2023-04-18_22h59.14.471,OS3_Mult_verification,2022.2.4,Win32,59.82650314,,,,,,,,,,,,,,,,,,,,,,,,,,,,,,,,,,,,,,,,,,,,,,,,,,,,,,,,,,,,,,,,,,,,,,,,,,,,,,,,,left,1,0.484,,,,,,physical,2,2,2 | 2,0,0.065,0.05,neutral,left,0,16,16,52,1,,,,,,,,,,,,,,,,,,,,,,,,,,,,,,,,,,,,,,,,,,,,,,,,,,,,,,,,,,,,,,,,,,,,,,,,
,957558488938,CAB,05/10/2001,001,2023-04-18_22h59.14.471,OS3_Mult_verification,2022.2.4,Win32,59.82650314,,,,,,,,,,,,,,,,,,,,,,,,,,,,,,,,,,,,,,,,,,,,,,,,,,,,,,,,,,,,,,,,,,,,,,,,,,,,,,,,,right,1,0.4347,,,,,,physical,7,7,7 | 7,0,0.05,0.065,neutral,right,0,17,17,69,1,,,,,,,,,,,,,,,,,,,,,,,,,,,,,,,,,,,,,,,,,,,,,,,,,,,,,,,,,,,,,,,,,,,,,,,,
,957558488938,CAB,05/10/2001,001,2023-04-18_22h59.14.471,OS3_Mult_verification,2022.2.4,Win32,59.82650314,,,,,,,,,,,,,,,,,,,,,,,,,,,,,,,,,,,,,,,,,,,,,,,,,,,,,,,,,,,,,,,,,,,,,,,,,,,,,,,,,right,1,0.6344,,,,,,physical,1,2,1 | 2,1,0.05,0.065,congruent,right,0,18,18,0,1,,,,,,,,,,,,,,,,,,,,,,,,,,,,,,,,,,,,,,,,,,,,,,,,,,,,,,,,,,,,,,,,,,,,,,,,
,957558488938,CAB,05/10/2001,001,2023-04-18_22h59.14.471,OS3_Mult_verification,2022.2.4,Win32,59.82650314,,,,,,,,,,,,,,,,,,,,,,,,,,,,,,,,,,,,,,,,,,,,,,,,,,,,,,,,,,,,,,,,,,,,,,,,,,,,,,,,,right,1,0.6841,,,,,,physical,1,6,1 | 6,5,0.05,0.065,congruent,right,0,19,19,16,1,,,,,,,,,,,,,,,,,,,,,,,,,,,,,,,,,,,,,,,,,,,,,,,,,,,,,,,,,,,,,,,,,,,,,,,,
,957558488938,CAB,05/10/2001,001,2023-04-18_22h59.14.471,OS3_Mult_verification,2022.2.4,Win32,59.82650314,,,,,,,,,,,,,,,,,,,,,,,,,,,,,,,,,,,,,,,,,,,,,,,,,,,,,,,,,,,,,,,,,,,,,,,,,,,,,,,,,right,1,0.4936,,,,,,physical,7,2,7 | 2,5,0.05,0.065,incongruent,right,0,20,20,45,1,,,,,,,,,,,,,,,,,,,,,,,,,,,,,,,,,,,,,,,,,,,,,,,,,,,,,,,,,,,,,,,,,,,,,,,,
,957558488938,CAB,05/10/2001,001,2023-04-18_22h59.14.471,OS3_Mult_verification,2022.2.4,Win32,59.82650314,,,,,,,,,,,,,,,,,,,,,,,,,,,,,,,,,,,,,,,,,,,,,,,,,,,,,,,,,,,,,,,,,,,,,,,,,,,,,,,,,left,1,0.4324,,,,,,physical,1,2,1 | 2,1,0.065,0.05,incongruent,left,0,21,21,24,1,,,,,,,,,,,,,,,,,,,,,,,,,,,,,,,,,,,,,,,,,,,,,,,,,,,,,,,,,,,,,,,,,,,,,,,,
,957558488938,CAB,05/10/2001,001,2023-04-18_22h59.14.471,OS3_Mult_verification,2022.2.4,Win32,59.82650314,,,,,,,,,,,,,,,,,,,,,,,,,,,,,,,,,,,,,,,,,,,,,,,,,,,,,,,,,,,,,,,,,,,,,,,,,,,,,,,,,left,1,0.4364,,,,,,physical,1,3,1 | 3,2,0.065,0.05,incongruent,left,0,22,22,32,1,,,,,,,,,,,,,,,,,,,,,,,,,,,,,,,,,,,,,,,,,,,,,,,,,,,,,,,,,,,,,,,,,,,,,,,,
,957558488938,CAB,05/10/2001,001,2023-04-18_22h59.14.471,OS3_Mult_verification,2022.2.4,Win32,59.82650314,,,,,,,,,,,,,,,,,,,,,,,,,,,,,,,,,,,,,,,,,,,,,,,,,,,,,,,,,,,,,,,,,,,,,,,,,,,,,,,,,left,1,0.4506,,,,,,physical,3,4,3 | 4,1,0.065,0.05,incongruent,left,0,23,23,25,1,,,,,,,,,,,,,,,,,,,,,,,,,,,,,,,,,,,,,,,,,,,,,,,,,,,,,,,,,,,,,,,,,,,,,,,,
,957558488938,CAB,05/10/2001,001,2023-04-18_22h59.14.471,OS3_Mult_verification,2022.2.4,Win32,59.82650314,,,,,,,,,,,,,,,,,,,,,,,,,,,,,,,,,,,,,,,,,,,,,,,,,,,,,,,,,,,,,,,,,,,,,,,,,,,,,,,,,left,1,0.4508,,,,,,physical,1,6,1 | 6,5,0.065,0.05,incongruent,left,0,24,24,40,1,,,,,,,,,,,,,,,,,,,,,,,,,,,,,,,,,,,,,,,,,,,,,,,,,,,,,,,,,,,,,,,,,,,,,,,,
,957558488938,CAB,05/10/2001,001,2023-04-18_22h59.14.471,OS3_Mult_verification,2022.2.4,Win32,59.82650314,,,,,,,,,,,,,,,,,,,,,,,,,,,,,,,,,,,,,,,,,,,,,,,,,,,,,,,,,,,,,,,,,,,,,,,,,,,,,,,,,left,1,0.433,,,,,,physical,9,9,9 | 9,0,0.065,0.05,neutral,left,0,25,25,55,1,,,,,,,,,,,,,,,,,,,,,,,,,,,,,,,,,,,,,,,,,,,,,,,,,,,,,,,,,,,,,,,,,,,,,,,,
,957558488938,CAB,05/10/2001,001,2023-04-18_22h59.14.471,OS3_Mult_verification,2022.2.4,Win32,59.82650314,,,,,,,,,,,,,,,,,,,,,,,,,,,,,,,,,,,,,,,,,,,,,,,,,,,,,,,,,,,,,,,,,,,,,,,,,,,,,,,,,left,1,0.4372,,,,,,physical,9,8,9 | 8,1,0.065,0.05,congruent,left,0,26,26,7,1,,,,,,,,,,,,,,,,,,,,,,,,,,,,,,,,,,,,,,,,,,,,,,,,,,,,,,,,,,,,,,,,,,,,,,,,
,957558488938,CAB,05/10/2001,001,2023-04-18_22h59.14.471,OS3_Mult_verification,2022.2.4,Win32,59.82650314,,,,,,,,,,,,,,,,,,,,,,,,,,,,,,,,,,,,,,,,,,,,,,,,,,,,,,,,,,,,,,,,,,,,,,,,,,,,,,,,,left,1,0.4101,,,,,,physical,8,8,8 | 8,0,0.065,0.05,neutral,left,0,27,27,51,1,,,,,,,,,,,,,,,,,,,,,,,,,,,,,,,,,,,,,,,,,,,,,,,,,,,,,,,,,,,,,,,,,,,,,,,,
,957558488938,CAB,05/10/2001,001,2023-04-18_22h59.14.471,OS3_Mult_verification,2022.2.4,Win32,59.82650314,,,,,,,,,,,,,,,,,,,,,,,,,,,,,,,,,,,,,,,,,,,,,,,,,,,,,,,,,,,,,,,,,,,,,,,,,,,,,,,,,left,1,0.4011,,,,,,physical,8,3,8 | 3,5,0.065,0.05,congruent,left,0,28,28,22,1,,,,,,,,,,,,,,,,,,,,,,,,,,,,,,,,,,,,,,,,,,,,,,,,,,,,,,,,,,,,,,,,,,,,,,,,
,957558488938,CAB,05/10/2001,001,2023-04-18_22h59.14.471,OS3_Mult_verification,2022.2.4,Win32,59.82650314,,,,,,,,,,,,,,,,,,,,,,,,,,,,,,,,,,,,,,,,,,,,,,,,,,,,,,,,,,,,,,,,,,,,,,,,,,,,,,,,,left,1,0.3749,,,,,,physical,8,6,8 | 6,2,0.065,0.05,congruent,left,0,29,29,14,1,,,,,,,,,,,,,,,,,,,,,,,,,,,,,,,,,,,,,,,,,,,,,,,,,,,,,,,,,,,,,,,,,,,,,,,,
,957558488938,CAB,05/10/2001,001,2023-04-18_22h59.14.471,OS3_Mult_verification,2022.2.4,Win32,59.82650314,,,,,,,,,,,,,,,,,,,,,,,,,,,,,,,,,,,,,,,,,,,,,,,,,,,,,,,,,,,,,,,,,,,,,,,,,,,,,,,,,left,0,0.3006,,,,,,physical,7,6,7 | 6,1,0.05,0.065,incongruent,right,0,30,30,30,1,,,,,,,,,,,,,,,,,,,,,,,,,,,,,,,,,,,,,,,,,,,,,,,,,,,,,,,,,,,,,,,,,,,,,,,,
,957558488938,CAB,05/10/2001,001,2023-04-18_22h59.14.471,OS3_Mult_verification,2022.2.4,Win32,59.82650314,,,,,,,,,,,,,,,,,,,,,,,,,,,,,,,,,,,,,,,,,,,,,,,,,,,,,,,,,,,,,,,,,,,,,,,,,,,,,,,,,left,1,0.5841,,,,,,physical,7,6,7 | 6,1,0.065,0.05,congruent,left,0,31,31,6,1,,,,,,,,,,,,,,,,,,,,,,,,,,,,,,,,,,,,,,,,,,,,,,,,,,,,,,,,,,,,,,,,,,,,,,,,
,957558488938,CAB,05/10/2001,001,2023-04-18_22h59.14.471,OS3_Mult_verification,2022.2.4,Win32,59.82650314,,,,,,,,,,,,,,,,,,,,,,,,,,,,,,,,,,,,,,,,,,,,,,,,,,,,,,,,,,,,,,,,,,,,,,,,,,,,,,,,,left,1,0.5026,,,,,,physical,6,7,6 | 7,1,0.065,0.05,incongruent,left,0,32,32,26,1,,,,,,,,,,,,,,,,,,,,,,,,,,,,,,,,,,,,,,,,,,,,,,,,,,,,,,,,,,,,,,,,,,,,,,,,
,957558488938,CAB,05/10/2001,001,2023-04-18_22h59.14.471,OS3_Mult_verification,2022.2.4,Win32,59.82650314,,,,,,,,,,,,,,,,,,,,,,,,,,,,,,,,,,,,,,,,,,,,,,,,,,,,,,,,,,,,,,,,,,,,,,,,,,,,,,,,,right,1,0.4441,,,,,,physical,3,4,3 | 4,1,0.05,0.065,congruent,right,0,33,33,1,1,,,,,,,,,,,,,,,,,,,,,,,,,,,,,,,,,,,,,,,,,,,,,,,,,,,,,,,,,,,,,,,,,,,,,,,,
,957558488938,CAB,05/10/2001,001,2023-04-18_22h59.14.471,OS3_Mult_verification,2022.2.4,Win32,59.82650314,,,,,,,,,,,,,,,,,,,,,,,,,,,,,,,,,,,,,,,,,,,,,,,,,,,,,,,,,,,,,,,,,,,,,,,,,,,,,,,,,right,1,0.5509,,,,,,physical,9,7,9 | 7,2,0.05,0.065,incongruent,right,0,34,34,39,1,,,,,,,,,,,,,,,,,,,,,,,,,,,,,,,,,,,,,,,,,,,,,,,,,,,,,,,,,,,,,,,,,,,,,,,,
,957558488938,CAB,05/10/2001,001,2023-04-18_22h59.14.471,OS3_Mult_verification,2022.2.4,Win32,59.82650314,,,,,,,,,,,,,,,,,,,,,,,,,,,,,,,,,,,,,,,,,,,,,,,,,,,,,,,,,,,,,,,,,,,,,,,,,,,,,,,,,left,1,0.4845,,,,,,physical,4,3,4 | 3,1,0.065,0.05,congruent,left,0,35,35,5,1,,,,,,,,,,,,,,,,,,,,,,,,,,,,,,,,,,,,,,,,,,,,,,,,,,,,,,,,,,,,,,,,,,,,,,,,
,957558488938,CAB,05/10/2001,001,2023-04-18_22h59.14.471,OS3_Mult_verification,2022.2.4,Win32,59.82650314,,,,,,,,,,,,,,,,,,,,,,,,,,,,,,,,,,,,,,,,,,,,,,,,,,,,,,,,,,,,,,,,,,,,,,,,,,,,,,,,,right,1,0.3841,,,,,,physical,9,9,9 | 9,0,0.05,0.065,neutral,right,0,36,36,71,1,,,,,,,,,,,,,,,,,,,,,,,,,,,,,,,,,,,,,,,,,,,,,,,,,,,,,,,,,,,,,,,,,,,,,,,,
,957558488938,CAB,05/10/2001,001,2023-04-18_22h59.14.471,OS3_Mult_verification,2022.2.4,Win32,59.82650314,,,,,,,,,,,,,,,,,,,,,,,,,,,,,,,,,,,,,,,,,,,,,,,,,,,,,,,,,,,,,,,,,,,,,,,,,,,,,,,,,right,1,0.506,,,,,,physical,3,1,3 | 1,2,0.05,0.065,incongruent,right,0,37,37,36,1,,,,,,,,,,,,,,,,,,,,,,,,,,,,,,,,,,,,,,,,,,,,,,,,,,,,,,,,,,,,,,,,,,,,,,,,
,957558488938,CAB,05/10/2001,001,2023-04-18_22h59.14.471,OS3_Mult_verification,2022.2.4,Win32,59.82650314,,,,,,,,,,,,,,,,,,,,,,,,,,,,,,,,,,,,,,,,,,,,,,,,,,,,,,,,,,,,,,,,,,,,,,,,,,,,,,,,,left,1,0.434,,,,,,physical,6,8,6 | 8,2,0.065,0.05,incongruent,left,0,38,38,34,1,,,,,,,,,,,,,,,,,,,,,,,,,,,,,,,,,,,,,,,,,,,,,,,,,,,,,,,,,,,,,,,,,,,,,,,,
,957558488938,CAB,05/10/2001,001,2023-04-18_22h59.14.471,OS3_Mult_verification,2022.2.4,Win32,59.82650314,,,,,,,,,,,,,,,,,,,,,,,,,,,,,,,,,,,,,,,,,,,,,,,,,,,,,,,,,,,,,,,,,,,,,,,,,,,,,,,,,left,1,0.5075,,,,,,physical,4,9,4 | 9,5,0.065,0.05,incongruent,left,0,39,39,43,1,,,,,,,,,,,,,,,,,,,,,,,,,,,,,,,,,,,,,,,,,,,,,,,,,,,,,,,,,,,,,,,,,,,,,,,,
,957558488938,CAB,05/10/2001,001,2023-04-18_22h59.14.471,OS3_Mult_verification,2022.2.4,Win32,59.82650314,,,,,,,,,,,,,,,,,,,,,,,,,,,,,,,,,,,,,,,,,,,,,,,,,,,,,,,,,,,,,,,,,,,,,,,,,,,,,,,,,left,1,0.5335,,,,,,physical,8,9,8 | 9,1,0.065,0.05,incongruent,left,0,40,40,27,1,,,,,,,,,,,,,,,,,,,,,,,,,,,,,,,,,,,,,,,,,,,,,,,,,,,,,,,,,,,,,,,,,,,,,,,,
,957558488938,CAB,05/10/2001,001,2023-04-18_22h59.14.471,OS3_Mult_verification,2022.2.4,Win32,59.82650314,,,,,,,,,,,,,,,,,,,,,,,,,,,,,,,,,,,,,,,,,,,,,,,,,,,,,,,,,,,,,,,,,,,,,,,,,,,,,,,,,left,1,0.4674,,,,,,physical,6,1,6 | 1,5,0.065,0.05,congruent,left,0,41,41,20,1,,,,,,,,,,,,,,,,,,,,,,,,,,,,,,,,,,,,,,,,,,,,,,,,,,,,,,,,,,,,,,,,,,,,,,,,
,957558488938,CAB,05/10/2001,001,2023-04-18_22h59.14.471,OS3_Mult_verification,2022.2.4,Win32,59.82650314,,,,,,,,,,,,,,,,,,,,,,,,,,,,,,,,,,,,,,,,,,,,,,,,,,,,,,,,,,,,,,,,,,,,,,,,,,,,,,,,,left,1,0.4676,,,,,,physical,9,4,9 | 4,5,0.065,0.05,congruent,left,0,42,42,23,1,,,,,,,,,,,,,,,,,,,,,,,,,,,,,,,,,,,,,,,,,,,,,,,,,,,,,,,,,,,,,,,,,,,,,,,,
