windowSize,participant,group,DOB (DD/MM/YEAR),session,date,expName,psychopyVersion,OS,frameRate,typing_instr_resp.keys,typing_instr_resp.rt,typing_response,typing_rt,typing_score,typingSpeed_input_resp.keys,typingSpeed_input_resp.rt,typing_speed_trials.thisRepN,typing_speed_trials.thisTrialN,typing_speed_trials.thisN,typing_speed_trials.thisIndex,typing_speed_trials.ran,typing_speed_stim,typing_report_resp.keys,typing_report_resp.rt,vpt_trial_resp1.keys,vpt_trial_resp1.rt,typedResponse,fluency_rt,fluency_score,fluencyInputResp.keys,fluencyInputResp.rt,fluencyPracLoop.thisRepN,fluencyPracLoop.thisTrialN,fluencyPracLoop.thisN,fluencyPracLoop.thisIndex,fluencyPracLoop.ran,problem,answers,fluencyLoop.thisRepN,fluencyLoop.thisTrialN,fluencyLoop.thisN,fluencyLoop.thisIndex,fluencyLoop.ran,stroopResp.keys,stroopResp.corr,stroopResp.rt,stroopPracLoop.thisRepN,stroopPracLoop.thisTrialN,stroopPracLoop.thisN,stroopPracLoop.thisIndex,stroopPracLoop.ran,stroopCond,leftNo,rightNo,displayProblem,numDistance,leftNo_size,rightNo_size,Dims,keyAnswer,stroopLoop.thisRepN,stroopLoop.thisTrialN,stroopLoop.thisN,stroopLoop.thisIndex,stroopLoop.ran,stroopBlocks.thisRepN,stroopBlocks.thisTrialN,stroopBlocks.thisN,stroopBlocks.thisIndex,stroopBlocks.ran,stroop_condition,stroop_pracFile,ActionInst,instrImage,TASK_A.thisRepN,TASK_A.thisTrialN,TASK_A.thisN,TASK_A.thisIndex,TASK_A.ran,controlTaskOrder.thisRepN,controlTaskOrder.thisTrialN,controlTaskOrder.thisN,controlTaskOrder.thisIndex,controlTaskOrder.ran,nRepsTask1,nRepsTask2,nRepsTask3,vptCorrect,vpt_rt,respMouse.x,respMouse.y,respMouse.leftButton,respMouse.midButton,respMouse.rightButton,vptPracticeLoop.thisRepN,vptPracticeLoop.thisTrialN,vptPracticeLoop.thisN,vptPracticeLoop.thisIndex,vptPracticeLoop.ran,trialType,tiles,rows,cols,vptTrialLoop.thisRepN,vptTrialLoop.thisTrialN,vptTrialLoop.thisN,vptTrialLoop.thisIndex,vptTrialLoop.ran,noOfBlocks,TASK_B.thisRepN,TASK_B.thisTrialN,TASK_B.thisN,TASK_B.thisIndex,TASK_B.ran,sampleAudio_resp.keys,sampleAudio_resp.rt,subjResponse,audio_rt,DS_score,inputResp.keys,inputResp.rt,audioPracticeLoop.thisRepN,audioPracticeLoop.thisTrialN,audioPracticeLoop.thisN,audioPracticeLoop.thisIndex,audioPracticeLoop.ran,digitSpan,digits_audioStim,soundsFile,typeDS,audioTrials_Loop.thisRepN,audioTrials_Loop.thisTrialN,audioTrials_Loop.thisN,audioTrials_Loop.thisIndex,audioTrials_Loop.ran,audioBlocks_loop.thisRepN,audioBlocks_loop.thisTrialN,audioBlocks_loop.thisN,audioBlocks_loop.thisIndex,audioBlocks_loop.ran,ConditionFile,digitSpanTask_loop.thisRepN,digitSpanTask_loop.thisTrialN,digitSpanTask_loop.thisN,digitSpanTask_loop.thisIndex,digitSpanTask_loop.ran,dsFile,TASK_C.thisRepN,TASK_C.thisTrialN,TASK_C.thisN,TASK_C.thisIndex,TASK_C.ran,veriStim_resp.keys,veriStim_resp.corr,veriStim_resp.rt,verificationPracLoop.thisRepN,verificationPracLoop.thisTrialN,verificationPracLoop.thisN,verificationPracLoop.thisIndex,verificationPracLoop.ran,mult_problem,mult_answer,mult_type,error_distance,interferenceScore,problemType,interferenceLevel,problemSize,img_leftButton,img_rightButton,veriLoop.thisRepN,veriLoop.thisTrialN,veriLoop.thisN,veriLoop.thisIndex,veriLoop.ran,veriBlock.thisRepN,veriBlock.thisTrialN,veriBlock.thisN,veriBlock.thisIndex,veriBlock.ran,verificationFiles,end_resp.keys,end_resp.rt
"[1536,707]",8812,ABC,22/07/2004,001,2023-09-26_17h07.49.785,OS3_Mult_verification,2022.2.4,Win32,60.11783095,,,,,,,,,,,,,,,,,,,,,,,,,,,,,,,,,,,,,,,,,,,,,,,,,,,,,,,,,,,,,,,,,,,,,,,,,,,,,,,,,,,,,,,,,,,,,,,,,,,,,,,,,,,,,,,,,,,,,,,,,,,,,,,,,,,,,,,,,,,,,,,,,,,,,,,,,,,,,,,,,,,,,,,,,,,,,,
,8812,ABC,22/07/2004,001,2023-09-26_17h07.49.785,OS3_Mult_verification,2022.2.4,Win32,60.11783095,,,,,,,,,,,,,,,,,,,,,,,,,,,,,,,,,,,,,,,,,,,,,,,,,,,,,,,,,,,,,,,,,,,,,,,,,,,,,,,,,,,,,,,,,,,,,,,,,,,,,,,,,,,,,,,,,,,,,,,,,,,,,,,,,,,,,,,,,,,,,,,,,,,,,,,,,,,,,,,,,,,,,,,,,,,,,,
,8812,ABC,22/07/2004,001,2023-09-26_17h07.49.785,OS3_Mult_verification,2022.2.4,Win32,60.11783095,space,7.5721,,,,,,,,,,,,,,,,,,,,,,,,,,,,,,,,,,,,,,,,,,,,,,,,,,,,,,,,,,,,,,,,,,,,,,,,,,,,,,,,,,,,,,,,,,,,,,,,,,,,,,,,,,,,,,,,,,,,,,,,,,,,,,,,,,,,,,,,,,,,,,,,,,,,,,,,,,,,,,,,,,,,,,,,,,,,
,8812,ABC,22/07/2004,001,2023-09-26_17h07.49.785,OS3_Mult_verification,2022.2.4,Win32,60.11783095,,,4,2.682,1,"[""4"",""return""]","[1.572800000071524,2.6549999999999976]",0,0,0,0,1,4,,,,,,,,,,,,,,,,,,,,,,,,,,,,,,,,,,,,,,,,,,,,,,,,,,,,,,,,,,,,,,,,,,,,,,,,,,,,,,,,,,,,,,,,,,,,,,,,,,,,,,,,,,,,,,,,,,,,,,,,,,,,,,,,,,,,,,,,,,,,,,,,,,,,,,,,,,,,,,,,,
,8812,ABC,22/07/2004,001,2023-09-26_17h07.49.785,OS3_Mult_verification,2022.2.4,Win32,60.11783095,,,56,2.0823,1,"[""5"",""6"",""return""]","[1.3321000000238428,1.655800000071526,2.0470000000000006]",0,1,1,26,1,56,,,,,,,,,,,,,,,,,,,,,,,,,,,,,,,,,,,,,,,,,,,,,,,,,,,,,,,,,,,,,,,,,,,,,,,,,,,,,,,,,,,,,,,,,,,,,,,,,,,,,,,,,,,,,,,,,,,,,,,,,,,,,,,,,,,,,,,,,,,,,,,,,,,,,,,,,,,,,,,,,
,8812,ABC,22/07/2004,001,2023-09-26_17h07.49.785,OS3_Mult_verification,2022.2.4,Win32,60.11783095,,,49,3.8482,1,"[""4"",""9"",""return""]","[2.948799999952321,3.4708999999761616,3.8147999999523208]",0,2,2,24,1,49,,,,,,,,,,,,,,,,,,,,,,,,,,,,,,,,,,,,,,,,,,,,,,,,,,,,,,,,,,,,,,,,,,,,,,,,,,,,,,,,,,,,,,,,,,,,,,,,,,,,,,,,,,,,,,,,,,,,,,,,,,,,,,,,,,,,,,,,,,,,,,,,,,,,,,,,,,,,,,,,,
,8812,ABC,22/07/2004,001,2023-09-26_17h07.49.785,OS3_Mult_verification,2022.2.4,Win32,60.11783095,,,72,12.5941,1,"[""7"",""2"",""return""]","[10.985299999952318,12.003,12.567500000000003]",0,3,3,29,1,72,,,,,,,,,,,,,,,,,,,,,,,,,,,,,,,,,,,,,,,,,,,,,,,,,,,,,,,,,,,,,,,,,,,,,,,,,,,,,,,,,,,,,,,,,,,,,,,,,,,,,,,,,,,,,,,,,,,,,,,,,,,,,,,,,,,,,,,,,,,,,,,,,,,,,,,,,,,,,,,,,
,8812,ABC,22/07/2004,001,2023-09-26_17h07.49.785,OS3_Mult_verification,2022.2.4,Win32,60.11783095,,,28,8.5126,1,"[""2"",""8"",""return""]","[7.028399999976159,8.210999999999999,8.48839999997616]",0,4,4,15,1,28,,,,,,,,,,,,,,,,,,,,,,,,,,,,,,,,,,,,,,,,,,,,,,,,,,,,,,,,,,,,,,,,,,,,,,,,,,,,,,,,,,,,,,,,,,,,,,,,,,,,,,,,,,,,,,,,,,,,,,,,,,,,,,,,,,,,,,,,,,,,,,,,,,,,,,,,,,,,,,,,,
,8812,ABC,22/07/2004,001,2023-09-26_17h07.49.785,OS3_Mult_verification,2022.2.4,Win32,60.11783095,,,35,15.3594,1,"[""3"",""5"",""return""]","[14.858100000023839,15.134200000047684,15.324799999952319]",0,5,5,18,1,35,,,,,,,,,,,,,,,,,,,,,,,,,,,,,,,,,,,,,,,,,,,,,,,,,,,,,,,,,,,,,,,,,,,,,,,,,,,,,,,,,,,,,,,,,,,,,,,,,,,,,,,,,,,,,,,,,,,,,,,,,,,,,,,,,,,,,,,,,,,,,,,,,,,,,,,,,,,,,,,,,
,8812,ABC,22/07/2004,001,2023-09-26_17h07.49.785,OS3_Mult_verification,2022.2.4,Win32,60.11783095,,,24,4.4147,1,"[""2"",""4"",""return""]","[3.799999999999997,4.154700000047683,4.387100000023835]",0,6,6,12,1,24,,,,,,,,,,,,,,,,,,,,,,,,,,,,,,,,,,,,,,,,,,,,,,,,,,,,,,,,,,,,,,,,,,,,,,,,,,,,,,,,,,,,,,,,,,,,,,,,,,,,,,,,,,,,,,,,,,,,,,,,,,,,,,,,,,,,,,,,,,,,,,,,,,,,,,,,,,,,,,,,,
,8812,ABC,22/07/2004,001,2023-09-26_17h07.49.785,OS3_Mult_verification,2022.2.4,Win32,60.11783095,,,30,3.2318,1,"[""3"",""0"",""return""]","[2.5317000000476924,2.9323999999761554,3.2011000000238425]",0,7,7,16,1,30,,,,,,,,,,,,,,,,,,,,,,,,,,,,,,,,,,,,,,,,,,,,,,,,,,,,,,,,,,,,,,,,,,,,,,,,,,,,,,,,,,,,,,,,,,,,,,,,,,,,,,,,,,,,,,,,,,,,,,,,,,,,,,,,,,,,,,,,,,,,,,,,,,,,,,,,,,,,,,,,,
,8812,ABC,22/07/2004,001,2023-09-26_17h07.49.785,OS3_Mult_verification,2022.2.4,Win32,60.11783095,,,25,5.3975,1,"[""2"",""5"",""return""]","[4.670399999976155,5.072599999904625,5.362299999952313]",0,8,8,13,1,25,,,,,,,,,,,,,,,,,,,,,,,,,,,,,,,,,,,,,,,,,,,,,,,,,,,,,,,,,,,,,,,,,,,,,,,,,,,,,,,,,,,,,,,,,,,,,,,,,,,,,,,,,,,,,,,,,,,,,,,,,,,,,,,,,,,,,,,,,,,,,,,,,,,,,,,,,,,,,,,,,
,8812,ABC,22/07/2004,001,2023-09-26_17h07.49.785,OS3_Mult_verification,2022.2.4,Win32,60.11783095,,,45,3.6814,1,"[""4"",""5"",""return""]","[3.2808999999761568,3.4635000000000105,3.6522999999523194]",0,9,9,22,1,45,,,,,,,,,,,,,,,,,,,,,,,,,,,,,,,,,,,,,,,,,,,,,,,,,,,,,,,,,,,,,,,,,,,,,,,,,,,,,,,,,,,,,,,,,,,,,,,,,,,,,,,,,,,,,,,,,,,,,,,,,,,,,,,,,,,,,,,,,,,,,,,,,,,,,,,,,,,,,,,,,
,8812,ABC,22/07/2004,001,2023-09-26_17h07.49.785,OS3_Mult_verification,2022.2.4,Win32,60.11783095,,,16,4.2646,1,"[""1"",""6"",""return""]","[3.5800999999046326,4.037399999976159,4.229699999928485]",0,10,10,8,1,16,,,,,,,,,,,,,,,,,,,,,,,,,,,,,,,,,,,,,,,,,,,,,,,,,,,,,,,,,,,,,,,,,,,,,,,,,,,,,,,,,,,,,,,,,,,,,,,,,,,,,,,,,,,,,,,,,,,,,,,,,,,,,,,,,,,,,,,,,,,,,,,,,,,,,,,,,,,,,,,,,
,8812,ABC,22/07/2004,001,2023-09-26_17h07.49.785,OS3_Mult_verification,2022.2.4,Win32,60.11783095,,,8,9.5121,1,"[""8"",""return""]","[8.936600000023844,9.488399999976153]",0,11,11,2,1,8,,,,,,,,,,,,,,,,,,,,,,,,,,,,,,,,,,,,,,,,,,,,,,,,,,,,,,,,,,,,,,,,,,,,,,,,,,,,,,,,,,,,,,,,,,,,,,,,,,,,,,,,,,,,,,,,,,,,,,,,,,,,,,,,,,,,,,,,,,,,,,,,,,,,,,,,,,,,,,,,,
,8812,ABC,22/07/2004,001,2023-09-26_17h07.49.785,OS3_Mult_verification,2022.2.4,Win32,60.11783095,,,54,14.4436,1,"[""5"",""4"",""return""]","[13.992200000047688,14.169700000047683,14.410400000095365]",0,12,12,25,1,54,,,,,,,,,,,,,,,,,,,,,,,,,,,,,,,,,,,,,,,,,,,,,,,,,,,,,,,,,,,,,,,,,,,,,,,,,,,,,,,,,,,,,,,,,,,,,,,,,,,,,,,,,,,,,,,,,,,,,,,,,,,,,,,,,,,,,,,,,,,,,,,,,,,,,,,,,,,,,,,,,
,8812,ABC,22/07/2004,001,2023-09-26_17h07.49.785,OS3_Mult_verification,2022.2.4,Win32,60.11783095,,,64,6.5635,1,"[""6"",""4"",""return""]","[4.03429999995231,6.153100000023841,6.536399999976155]",0,13,13,28,1,64,,,,,,,,,,,,,,,,,,,,,,,,,,,,,,,,,,,,,,,,,,,,,,,,,,,,,,,,,,,,,,,,,,,,,,,,,,,,,,,,,,,,,,,,,,,,,,,,,,,,,,,,,,,,,,,,,,,,,,,,,,,,,,,,,,,,,,,,,,,,,,,,,,,,,,,,,,,,,,,,,
,8812,ABC,22/07/2004,001,2023-09-26_17h07.49.785,OS3_Mult_verification,2022.2.4,Win32,60.11783095,,,32,7.863,1,"[""3"",""2"",""return""]","[7.464100000023848,7.666600000023834,7.828299999952321]",0,14,14,17,1,32,,,,,,,,,,,,,,,,,,,,,,,,,,,,,,,,,,,,,,,,,,,,,,,,,,,,,,,,,,,,,,,,,,,,,,,,,,,,,,,,,,,,,,,,,,,,,,,,,,,,,,,,,,,,,,,,,,,,,,,,,,,,,,,,,,,,,,,,,,,,,,,,,,,,,,,,,,,,,,,,,
,8812,ABC,22/07/2004,001,2023-09-26_17h07.49.785,OS3_Mult_verification,2022.2.4,Win32,60.11783095,,,42,4.8643,1,"[""4"",""2"",""return""]","[4.384500000000003,4.634100000023835,4.830100000023833]",0,15,15,21,1,42,,,,,,,,,,,,,,,,,,,,,,,,,,,,,,,,,,,,,,,,,,,,,,,,,,,,,,,,,,,,,,,,,,,,,,,,,,,,,,,,,,,,,,,,,,,,,,,,,,,,,,,,,,,,,,,,,,,,,,,,,,,,,,,,,,,,,,,,,,,,,,,,,,,,,,,,,,,,,,,,,
,8812,ABC,22/07/2004,001,2023-09-26_17h07.49.785,OS3_Mult_verification,2022.2.4,Win32,60.11783095,,,15,14.7764,1,"[""1"",""5"",""return""]","[5.428700000047684,5.749600000023861,14.745400000095373]",0,16,16,7,1,15,,,,,,,,,,,,,,,,,,,,,,,,,,,,,,,,,,,,,,,,,,,,,,,,,,,,,,,,,,,,,,,,,,,,,,,,,,,,,,,,,,,,,,,,,,,,,,,,,,,,,,,,,,,,,,,,,,,,,,,,,,,,,,,,,,,,,,,,,,,,,,,,,,,,,,,,,,,,,,,,,
,8812,ABC,22/07/2004,001,2023-09-26_17h07.49.785,OS3_Mult_verification,2022.2.4,Win32,60.11783095,,,20,10.9615,1,"[""2"",""0"",""return""]","[10.186999999999983,10.637,10.92559999990462]",0,17,17,10,1,20,,,,,,,,,,,,,,,,,,,,,,,,,,,,,,,,,,,,,,,,,,,,,,,,,,,,,,,,,,,,,,,,,,,,,,,,,,,,,,,,,,,,,,,,,,,,,,,,,,,,,,,,,,,,,,,,,,,,,,,,,,,,,,,,,,,,,,,,,,,,,,,,,,,,,,,,,,,,,,,,,
,8812,ABC,22/07/2004,001,2023-09-26_17h07.49.785,OS3_Mult_verification,2022.2.4,Win32,60.11783095,,,9,5.614,1,"[""9"",""return""]","[5.4297000000476885,5.58680000007152]",0,18,18,3,1,9,,,,,,,,,,,,,,,,,,,,,,,,,,,,,,,,,,,,,,,,,,,,,,,,,,,,,,,,,,,,,,,,,,,,,,,,,,,,,,,,,,,,,,,,,,,,,,,,,,,,,,,,,,,,,,,,,,,,,,,,,,,,,,,,,,,,,,,,,,,,,,,,,,,,,,,,,,,,,,,,,
,8812,ABC,22/07/2004,001,2023-09-26_17h07.49.785,OS3_Mult_verification,2022.2.4,Win32,60.11783095,,,81,2.199,1,"[""8"",""1"",""return""]","[1.6371000000238496,1.8213000000715454,2.166100000023846]",0,19,19,30,1,81,,,,,,,,,,,,,,,,,,,,,,,,,,,,,,,,,,,,,,,,,,,,,,,,,,,,,,,,,,,,,,,,,,,,,,,,,,,,,,,,,,,,,,,,,,,,,,,,,,,,,,,,,,,,,,,,,,,,,,,,,,,,,,,,,,,,,,,,,,,,,,,,,,,,,,,,,,,,,,,,,
,8812,ABC,22/07/2004,001,2023-09-26_17h07.49.785,OS3_Mult_verification,2022.2.4,Win32,60.11783095,,,48,3.2316,1,"[""4"",""8"",""return""]","[1.6868999999761627,2.4561000000238664,3.1991000000238614]",0,20,20,23,1,48,,,,,,,,,,,,,,,,,,,,,,,,,,,,,,,,,,,,,,,,,,,,,,,,,,,,,,,,,,,,,,,,,,,,,,,,,,,,,,,,,,,,,,,,,,,,,,,,,,,,,,,,,,,,,,,,,,,,,,,,,,,,,,,,,,,,,,,,,,,,,,,,,,,,,,,,,,,,,,,,,
,8812,ABC,22/07/2004,001,2023-09-26_17h07.49.785,OS3_Mult_verification,2022.2.4,Win32,60.11783095,,,10,1.3827,1,"[""1"",""0"",""return""]","[0.6978999999761584,1.102399999976143,1.3499999999999943]",0,21,21,4,1,10,,,,,,,,,,,,,,,,,,,,,,,,,,,,,,,,,,,,,,,,,,,,,,,,,,,,,,,,,,,,,,,,,,,,,,,,,,,,,,,,,,,,,,,,,,,,,,,,,,,,,,,,,,,,,,,,,,,,,,,,,,,,,,,,,,,,,,,,,,,,,,,,,,,,,,,,,,,,,,,,,
,8812,ABC,22/07/2004,001,2023-09-26_17h07.49.785,OS3_Mult_verification,2022.2.4,Win32,60.11783095,,,40,1.4159,1,"[""4"",""0"",""return""]","[0.7888999999761666,1.1393999999761775,1.3821000000238541]",0,22,22,20,1,40,,,,,,,,,,,,,,,,,,,,,,,,,,,,,,,,,,,,,,,,,,,,,,,,,,,,,,,,,,,,,,,,,,,,,,,,,,,,,,,,,,,,,,,,,,,,,,,,,,,,,,,,,,,,,,,,,,,,,,,,,,,,,,,,,,,,,,,,,,,,,,,,,,,,,,,,,,,,,,,,,
,8812,ABC,22/07/2004,001,2023-09-26_17h07.49.785,OS3_Mult_verification,2022.2.4,Win32,60.11783095,,,63,1.5658,1,"[""6"",""3"",""return""]","[0.9647000000476851,1.336500000000001,1.5403999999761595]",0,23,23,27,1,63,,,,,,,,,,,,,,,,,,,,,,,,,,,,,,,,,,,,,,,,,,,,,,,,,,,,,,,,,,,,,,,,,,,,,,,,,,,,,,,,,,,,,,,,,,,,,,,,,,,,,,,,,,,,,,,,,,,,,,,,,,,,,,,,,,,,,,,,,,,,,,,,,,,,,,,,,,,,,,,,,
,8812,ABC,22/07/2004,001,2023-09-26_17h07.49.785,OS3_Mult_verification,2022.2.4,Win32,60.11783095,,,36,1.8989,1,"[""3"",""6"",""return""]","[1.3808999999761795,1.7308999999761738,1.8642999999523227]",0,24,24,19,1,36,,,,,,,,,,,,,,,,,,,,,,,,,,,,,,,,,,,,,,,,,,,,,,,,,,,,,,,,,,,,,,,,,,,,,,,,,,,,,,,,,,,,,,,,,,,,,,,,,,,,,,,,,,,,,,,,,,,,,,,,,,,,,,,,,,,,,,,,,,,,,,,,,,,,,,,,,,,,,,,,,
,8812,ABC,22/07/2004,001,2023-09-26_17h07.49.785,OS3_Mult_verification,2022.2.4,Win32,60.11783095,,,21,1.1993,1,"[""2"",""1"",""return""]","[0.8868999999761513,1.047799999952332,1.16729999995232]",0,25,25,11,1,21,,,,,,,,,,,,,,,,,,,,,,,,,,,,,,,,,,,,,,,,,,,,,,,,,,,,,,,,,,,,,,,,,,,,,,,,,,,,,,,,,,,,,,,,,,,,,,,,,,,,,,,,,,,,,,,,,,,,,,,,,,,,,,,,,,,,,,,,,,,,,,,,,,,,,,,,,,,,,,,,,
,8812,ABC,22/07/2004,001,2023-09-26_17h07.49.785,OS3_Mult_verification,2022.2.4,Win32,60.11783095,,,12,0.9829,1,"[""1"",""2"",""return""]","[0.6994000000953804,0.7982000000477001,0.9511000000238425]",0,26,26,5,1,12,,,,,,,,,,,,,,,,,,,,,,,,,,,,,,,,,,,,,,,,,,,,,,,,,,,,,,,,,,,,,,,,,,,,,,,,,,,,,,,,,,,,,,,,,,,,,,,,,,,,,,,,,,,,,,,,,,,,,,,,,,,,,,,,,,,,,,,,,,,,,,,,,,,,,,,,,,,,,,,,,
,8812,ABC,22/07/2004,001,2023-09-26_17h07.49.785,OS3_Mult_verification,2022.2.4,Win32,60.11783095,,,18,1.5825,1,"[""1"",""8"",""return""]","[0.658799999952322,1.434799999952304,1.5478999999761527]",0,27,27,9,1,18,,,,,,,,,,,,,,,,,,,,,,,,,,,,,,,,,,,,,,,,,,,,,,,,,,,,,,,,,,,,,,,,,,,,,,,,,,,,,,,,,,,,,,,,,,,,,,,,,,,,,,,,,,,,,,,,,,,,,,,,,,,,,,,,,,,,,,,,,,,,,,,,,,,,,,,,,,,,,,,,,
,8812,ABC,22/07/2004,001,2023-09-26_17h07.49.785,OS3_Mult_verification,2022.2.4,Win32,60.11783095,,,27,1.4158,1,"[""2"",""7"",""return""]","[0.6862999999523254,1.2642000000476799,1.3884999999999934]",0,28,28,14,1,27,,,,,,,,,,,,,,,,,,,,,,,,,,,,,,,,,,,,,,,,,,,,,,,,,,,,,,,,,,,,,,,,,,,,,,,,,,,,,,,,,,,,,,,,,,,,,,,,,,,,,,,,,,,,,,,,,,,,,,,,,,,,,,,,,,,,,,,,,,,,,,,,,,,,,,,,,,,,,,,,,
,8812,ABC,22/07/2004,001,2023-09-26_17h07.49.785,OS3_Mult_verification,2022.2.4,Win32,60.11783095,,,14,1.2826,1,"[""1"",""4"",""return""]","[0.7345999999046455,1.0642999999523113,1.2495000000000118]",0,29,29,6,1,14,,,,,,,,,,,,,,,,,,,,,,,,,,,,,,,,,,,,,,,,,,,,,,,,,,,,,,,,,,,,,,,,,,,,,,,,,,,,,,,,,,,,,,,,,,,,,,,,,,,,,,,,,,,,,,,,,,,,,,,,,,,,,,,,,,,,,,,,,,,,,,,,,,,,,,,,,,,,,,,,,
,8812,ABC,22/07/2004,001,2023-09-26_17h07.49.785,OS3_Mult_verification,2022.2.4,Win32,60.11783095,,,6,1.1161,1,"[""6"",""return""]","[0.9012999999523004,1.0813999999761563]",0,30,30,1,1,6,,,,,,,,,,,,,,,,,,,,,,,,,,,,,,,,,,,,,,,,,,,,,,,,,,,,,,,,,,,,,,,,,,,,,,,,,,,,,,,,,,,,,,,,,,,,,,,,,,,,,,,,,,,,,,,,,,,,,,,,,,,,,,,,,,,,,,,,,,,,,,,,,,,,,,,,,,,,,,,,,
,8812,ABC,22/07/2004,001,2023-09-26_17h07.49.785,OS3_Mult_verification,2022.2.4,Win32,60.11783095,,,4,1.499,1,"[""4"",""return""]","[1.3248999999761395,1.4666000000238455]",1,0,31,0,1,4,,,,,,,,,,,,,,,,,,,,,,,,,,,,,,,,,,,,,,,,,,,,,,,,,,,,,,,,,,,,,,,,,,,,,,,,,,,,,,,,,,,,,,,,,,,,,,,,,,,,,,,,,,,,,,,,,,,,,,,,,,,,,,,,,,,,,,,,,,,,,,,,,,,,,,,,,,,,,,,,,
,8812,ABC,22/07/2004,001,2023-09-26_17h07.49.785,OS3_Mult_verification,2022.2.4,Win32,60.11783095,,,18,1.4992,1,"[""1"",""8"",""return""]","[0.6481999999284653,1.3346999999284606,1.464299999952317]",1,1,32,9,1,18,,,,,,,,,,,,,,,,,,,,,,,,,,,,,,,,,,,,,,,,,,,,,,,,,,,,,,,,,,,,,,,,,,,,,,,,,,,,,,,,,,,,,,,,,,,,,,,,,,,,,,,,,,,,,,,,,,,,,,,,,,,,,,,,,,,,,,,,,,,,,,,,,,,,,,,,,,,,,,,,,
,8812,ABC,22/07/2004,001,2023-09-26_17h07.49.785,OS3_Mult_verification,2022.2.4,Win32,60.11783095,,,72,1.6492,1,"[""7"",""2"",""return""]","[1.1510000000000105,1.2827000000476971,1.6160000000000139]",1,2,33,29,1,72,,,,,,,,,,,,,,,,,,,,,,,,,,,,,,,,,,,,,,,,,,,,,,,,,,,,,,,,,,,,,,,,,,,,,,,,,,,,,,,,,,,,,,,,,,,,,,,,,,,,,,,,,,,,,,,,,,,,,,,,,,,,,,,,,,,,,,,,,,,,,,,,,,,,,,,,,,,,,,,,,
,8812,ABC,22/07/2004,001,2023-09-26_17h07.49.785,OS3_Mult_verification,2022.2.4,Win32,60.11783095,,,32,1.0826,1,"[""3"",""2"",""return""]","[0.7878999999761618,0.9233999999761693,1.0480000000000018]",1,3,34,17,1,32,,,,,,,,,,,,,,,,,,,,,,,,,,,,,,,,,,,,,,,,,,,,,,,,,,,,,,,,,,,,,,,,,,,,,,,,,,,,,,,,,,,,,,,,,,,,,,,,,,,,,,,,,,,,,,,,,,,,,,,,,,,,,,,,,,,,,,,,,,,,,,,,,,,,,,,,,,,,,,,,,
,8812,ABC,22/07/2004,001,2023-09-26_17h07.49.785,OS3_Mult_verification,2022.2.4,Win32,60.11783095,,,54,1.2327,1,"[""5"",""4"",""return""]","[0.9668999999761638,1.0873999999761566,1.1978000000715383]",1,4,35,25,1,54,,,,,,,,,,,,,,,,,,,,,,,,,,,,,,,,,,,,,,,,,,,,,,,,,,,,,,,,,,,,,,,,,,,,,,,,,,,,,,,,,,,,,,,,,,,,,,,,,,,,,,,,,,,,,,,,,,,,,,,,,,,,,,,,,,,,,,,,,,,,,,,,,,,,,,,,,,,,,,,,,
,8812,ABC,22/07/2004,001,2023-09-26_17h07.49.785,OS3_Mult_verification,2022.2.4,Win32,60.11783095,,,25,1.266,1,"[""2"",""5"",""return""]","[0.7385000000000161,1.0894000000953667,1.2307000000477046]",1,5,36,13,1,25,,,,,,,,,,,,,,,,,,,,,,,,,,,,,,,,,,,,,,,,,,,,,,,,,,,,,,,,,,,,,,,,,,,,,,,,,,,,,,,,,,,,,,,,,,,,,,,,,,,,,,,,,,,,,,,,,,,,,,,,,,,,,,,,,,,,,,,,,,,,,,,,,,,,,,,,,,,,,,,,,
,8812,ABC,22/07/2004,001,2023-09-26_17h07.49.785,OS3_Mult_verification,2022.2.4,Win32,60.11783095,,,56,1.266,1,"[""5"",""6"",""return""]","[0.9532000000476728,1.0909000000953597,1.2357000000476717]",1,6,37,26,1,56,,,,,,,,,,,,,,,,,,,,,,,,,,,,,,,,,,,,,,,,,,,,,,,,,,,,,,,,,,,,,,,,,,,,,,,,,,,,,,,,,,,,,,,,,,,,,,,,,,,,,,,,,,,,,,,,,,,,,,,,,,,,,,,,,,,,,,,,,,,,,,,,,,,,,,,,,,,,,,,,,
,8812,ABC,22/07/2004,001,2023-09-26_17h07.49.785,OS3_Mult_verification,2022.2.4,Win32,60.11783095,,,40,1.3159,1,"[""4"",""0"",""return""]","[0.8907000000476728,1.1907000000476842,1.2853000000715156]",1,7,38,20,1,40,,,,,,,,,,,,,,,,,,,,,,,,,,,,,,,,,,,,,,,,,,,,,,,,,,,,,,,,,,,,,,,,,,,,,,,,,,,,,,,,,,,,,,,,,,,,,,,,,,,,,,,,,,,,,,,,,,,,,,,,,,,,,,,,,,,,,,,,,,,,,,,,,,,,,,,,,,,,,,,,,
,8812,ABC,22/07/2004,001,2023-09-26_17h07.49.785,OS3_Mult_verification,2022.2.4,Win32,60.11783095,,,12,0.8827,1,"[""1"",""2"",""return""]","[0.6146999999284617,0.6986999999284649,0.849399999976157]",1,8,39,5,1,12,,,,,,,,,,,,,,,,,,,,,,,,,,,,,,,,,,,,,,,,,,,,,,,,,,,,,,,,,,,,,,,,,,,,,,,,,,,,,,,,,,,,,,,,,,,,,,,,,,,,,,,,,,,,,,,,,,,,,,,,,,,,,,,,,,,,,,,,,,,,,,,,,,,,,,,,,,,,,,,,,
,8812,ABC,22/07/2004,001,2023-09-26_17h07.49.785,OS3_Mult_verification,2022.2.4,Win32,60.11783095,,,9,1.2326,1,"[""9"",""return""]","[1.1028999999761595,1.1995000000000005]",1,9,40,3,1,9,,,,,,,,,,,,,,,,,,,,,,,,,,,,,,,,,,,,,,,,,,,,,,,,,,,,,,,,,,,,,,,,,,,,,,,,,,,,,,,,,,,,,,,,,,,,,,,,,,,,,,,,,,,,,,,,,,,,,,,,,,,,,,,,,,,,,,,,,,,,,,,,,,,,,,,,,,,,,,,,,
,8812,ABC,22/07/2004,001,2023-09-26_17h07.49.785,OS3_Mult_verification,2022.2.4,Win32,60.11783095,,,35,1.4326,1,"[""3"",""5"",""return""]","[1.0978999999761356,1.2915999999046335,1.4088999999761427]",1,10,41,18,1,35,,,,,,,,,,,,,,,,,,,,,,,,,,,,,,,,,,,,,,,,,,,,,,,,,,,,,,,,,,,,,,,,,,,,,,,,,,,,,,,,,,,,,,,,,,,,,,,,,,,,,,,,,,,,,,,,,,,,,,,,,,,,,,,,,,,,,,,,,,,,,,,,,,,,,,,,,,,,,,,,,
,8812,ABC,22/07/2004,001,2023-09-26_17h07.49.785,OS3_Mult_verification,2022.2.4,Win32,60.11783095,,,16,1.2826,1,"[""1"",""6"",""return""]","[0.6143000000715233,1.0647000000476794,1.2539999999999907]",1,11,42,8,1,16,,,,,,,,,,,,,,,,,,,,,,,,,,,,,,,,,,,,,,,,,,,,,,,,,,,,,,,,,,,,,,,,,,,,,,,,,,,,,,,,,,,,,,,,,,,,,,,,,,,,,,,,,,,,,,,,,,,,,,,,,,,,,,,,,,,,,,,,,,,,,,,,,,,,,,,,,,,,,,,,,
,8812,ABC,22/07/2004,001,2023-09-26_17h07.49.785,OS3_Mult_verification,2022.2.4,Win32,60.11783095,,,28,1.4493,1,"[""2"",""8"",""return""]","[0.7328000000715065,1.254200000047689,1.4193000000715301]",1,12,43,15,1,28,,,,,,,,,,,,,,,,,,,,,,,,,,,,,,,,,,,,,,,,,,,,,,,,,,,,,,,,,,,,,,,,,,,,,,,,,,,,,,,,,,,,,,,,,,,,,,,,,,,,,,,,,,,,,,,,,,,,,,,,,,,,,,,,,,,,,,,,,,,,,,,,,,,,,,,,,,,,,,,,,
,8812,ABC,22/07/2004,001,2023-09-26_17h07.49.785,OS3_Mult_verification,2022.2.4,Win32,60.11783095,,,81,1.8324,1,"[""8"",""1"",""return""]","[1.1479999999999961,1.554399999976141,1.7981000000238225]",1,13,44,30,1,81,,,,,,,,,,,,,,,,,,,,,,,,,,,,,,,,,,,,,,,,,,,,,,,,,,,,,,,,,,,,,,,,,,,,,,,,,,,,,,,,,,,,,,,,,,,,,,,,,,,,,,,,,,,,,,,,,,,,,,,,,,,,,,,,,,,,,,,,,,,,,,,,,,,,,,,,,,,,,,,,,
,8812,ABC,22/07/2004,001,2023-09-26_17h07.49.785,OS3_Mult_verification,2022.2.4,Win32,60.11783095,,,36,1.2327,1,"[""3"",""6"",""return""]","[0.7157999999523099,1.0312000000476758,1.204600000023845]",1,14,45,19,1,36,,,,,,,,,,,,,,,,,,,,,,,,,,,,,,,,,,,,,,,,,,,,,,,,,,,,,,,,,,,,,,,,,,,,,,,,,,,,,,,,,,,,,,,,,,,,,,,,,,,,,,,,,,,,,,,,,,,,,,,,,,,,,,,,,,,,,,,,,,,,,,,,,,,,,,,,,,,,,,,,,
,8812,ABC,22/07/2004,001,2023-09-26_17h07.49.785,OS3_Mult_verification,2022.2.4,Win32,60.11783095,,,30,1.4992,1,"[""3"",""0"",""return""]","[0.9540999999046278,1.0898999999761543,1.4749999999999943]",1,15,46,16,1,30,,,,,,,,,,,,,,,,,,,,,,,,,,,,,,,,,,,,,,,,,,,,,,,,,,,,,,,,,,,,,,,,,,,,,,,,,,,,,,,,,,,,,,,,,,,,,,,,,,,,,,,,,,,,,,,,,,,,,,,,,,,,,,,,,,,,,,,,,,,,,,,,,,,,,,,,,,,,,,,,,
,8812,ABC,22/07/2004,001,2023-09-26_17h07.49.785,OS3_Mult_verification,2022.2.4,Win32,60.11783095,,,20,1.1827,1,"[""2"",""0"",""return""]","[0.6589999999999918,1.0162000000476894,1.1544999999999845]",1,16,47,10,1,20,,,,,,,,,,,,,,,,,,,,,,,,,,,,,,,,,,,,,,,,,,,,,,,,,,,,,,,,,,,,,,,,,,,,,,,,,,,,,,,,,,,,,,,,,,,,,,,,,,,,,,,,,,,,,,,,,,,,,,,,,,,,,,,,,,,,,,,,,,,,,,,,,,,,,,,,,,,,,,,,,
,8812,ABC,22/07/2004,001,2023-09-26_17h07.49.785,OS3_Mult_verification,2022.2.4,Win32,60.11783095,,,15,1.1661,1,"[""1"",""5"",""return""]","[0.6312999999523186,1.0049999999999955,1.1310000000000002]",1,17,48,7,1,15,,,,,,,,,,,,,,,,,,,,,,,,,,,,,,,,,,,,,,,,,,,,,,,,,,,,,,,,,,,,,,,,,,,,,,,,,,,,,,,,,,,,,,,,,,,,,,,,,,,,,,,,,,,,,,,,,,,,,,,,,,,,,,,,,,,,,,,,,,,,,,,,,,,,,,,,,,,,,,,,,
,8812,ABC,22/07/2004,001,2023-09-26_17h07.49.785,OS3_Mult_verification,2022.2.4,Win32,60.11783095,,,63,1.7991,1,"[""6"",""3"",""return""]","[1.2152000000476733,1.6811000000238323,1.7657999999522929]",1,18,49,27,1,63,,,,,,,,,,,,,,,,,,,,,,,,,,,,,,,,,,,,,,,,,,,,,,,,,,,,,,,,,,,,,,,,,,,,,,,,,,,,,,,,,,,,,,,,,,,,,,,,,,,,,,,,,,,,,,,,,,,,,,,,,,,,,,,,,,,,,,,,,,,,,,,,,,,,,,,,,,,,,,,,,
,8812,ABC,22/07/2004,001,2023-09-26_17h07.49.785,OS3_Mult_verification,2022.2.4,Win32,60.11783095,,,45,1.266,1,"[""4"",""5"",""return""]","[0.9166000000238625,1.0720000000000027,1.231000000000023]",1,19,50,22,1,45,,,,,,,,,,,,,,,,,,,,,,,,,,,,,,,,,,,,,,,,,,,,,,,,,,,,,,,,,,,,,,,,,,,,,,,,,,,,,,,,,,,,,,,,,,,,,,,,,,,,,,,,,,,,,,,,,,,,,,,,,,,,,,,,,,,,,,,,,,,,,,,,,,,,,,,,,,,,,,,,,
,8812,ABC,22/07/2004,001,2023-09-26_17h07.49.785,OS3_Mult_verification,2022.2.4,Win32,60.11783095,,,24,1.1324,1,"[""2"",""4"",""return""]","[0.7312999999523413,0.9331000000238419,1.0981000000238623]",1,20,51,12,1,24,,,,,,,,,,,,,,,,,,,,,,,,,,,,,,,,,,,,,,,,,,,,,,,,,,,,,,,,,,,,,,,,,,,,,,,,,,,,,,,,,,,,,,,,,,,,,,,,,,,,,,,,,,,,,,,,,,,,,,,,,,,,,,,,,,,,,,,,,,,,,,,,,,,,,,,,,,,,,,,,,
,8812,ABC,22/07/2004,001,2023-09-26_17h07.49.785,OS3_Mult_verification,2022.2.4,Win32,60.11783095,,,48,1.266,1,"[""4"",""8"",""return""]","[0.8315000000000055,1.0841000000238523,1.2390000000000043]",1,21,52,23,1,48,,,,,,,,,,,,,,,,,,,,,,,,,,,,,,,,,,,,,,,,,,,,,,,,,,,,,,,,,,,,,,,,,,,,,,,,,,,,,,,,,,,,,,,,,,,,,,,,,,,,,,,,,,,,,,,,,,,,,,,,,,,,,,,,,,,,,,,,,,,,,,,,,,,,,,,,,,,,,,,,,
,8812,ABC,22/07/2004,001,2023-09-26_17h07.49.785,OS3_Mult_verification,2022.2.4,Win32,60.11783095,,,8,1.1326,1,"[""8"",""return""]","[0.9751000000238434,1.097899999976164]",1,22,53,2,1,8,,,,,,,,,,,,,,,,,,,,,,,,,,,,,,,,,,,,,,,,,,,,,,,,,,,,,,,,,,,,,,,,,,,,,,,,,,,,,,,,,,,,,,,,,,,,,,,,,,,,,,,,,,,,,,,,,,,,,,,,,,,,,,,,,,,,,,,,,,,,,,,,,,,,,,,,,,,,,,,,,
,8812,ABC,22/07/2004,001,2023-09-26_17h07.49.785,OS3_Mult_verification,2022.2.4,Win32,60.11783095,,,14,1.3159,1,"[""1"",""4"",""return""]","[0.5976999999284942,0.8308999999761681,1.2918999999761809]",1,23,54,6,1,14,,,,,,,,,,,,,,,,,,,,,,,,,,,,,,,,,,,,,,,,,,,,,,,,,,,,,,,,,,,,,,,,,,,,,,,,,,,,,,,,,,,,,,,,,,,,,,,,,,,,,,,,,,,,,,,,,,,,,,,,,,,,,,,,,,,,,,,,,,,,,,,,,,,,,,,,,,,,,,,,,
,8812,ABC,22/07/2004,001,2023-09-26_17h07.49.785,OS3_Mult_verification,2022.2.4,Win32,60.11783095,,,6,1.1327,1,"[""6"",""return""]","[0.9492999999523022,1.097799999952315]",1,24,55,1,1,6,,,,,,,,,,,,,,,,,,,,,,,,,,,,,,,,,,,,,,,,,,,,,,,,,,,,,,,,,,,,,,,,,,,,,,,,,,,,,,,,,,,,,,,,,,,,,,,,,,,,,,,,,,,,,,,,,,,,,,,,,,,,,,,,,,,,,,,,,,,,,,,,,,,,,,,,,,,,,,,,,
,8812,ABC,22/07/2004,001,2023-09-26_17h07.49.785,OS3_Mult_verification,2022.2.4,Win32,60.11783095,,,21,1.3158,1,"[""2"",""1"",""return""]","[0.7528999999761368,1.0660999999046226,1.2840999999046119]",1,25,56,11,1,21,,,,,,,,,,,,,,,,,,,,,,,,,,,,,,,,,,,,,,,,,,,,,,,,,,,,,,,,,,,,,,,,,,,,,,,,,,,,,,,,,,,,,,,,,,,,,,,,,,,,,,,,,,,,,,,,,,,,,,,,,,,,,,,,,,,,,,,,,,,,,,,,,,,,,,,,,,,,,,,,,
,8812,ABC,22/07/2004,001,2023-09-26_17h07.49.785,OS3_Mult_verification,2022.2.4,Win32,60.11783095,,,49,1.1827,1,"[""4"",""9"",""return""]","[0.7322999999523176,1.0083999999761488,1.1516000000238478]",1,26,57,24,1,49,,,,,,,,,,,,,,,,,,,,,,,,,,,,,,,,,,,,,,,,,,,,,,,,,,,,,,,,,,,,,,,,,,,,,,,,,,,,,,,,,,,,,,,,,,,,,,,,,,,,,,,,,,,,,,,,,,,,,,,,,,,,,,,,,,,,,,,,,,,,,,,,,,,,,,,,,,,,,,,,,
,8812,ABC,22/07/2004,001,2023-09-26_17h07.49.785,OS3_Mult_verification,2022.2.4,Win32,60.11783095,,,42,1.3491,1,"[""4"",""2"",""return""]","[0.8977999999523263,1.1493999999761684,1.3160000000000025]",1,27,58,21,1,42,,,,,,,,,,,,,,,,,,,,,,,,,,,,,,,,,,,,,,,,,,,,,,,,,,,,,,,,,,,,,,,,,,,,,,,,,,,,,,,,,,,,,,,,,,,,,,,,,,,,,,,,,,,,,,,,,,,,,,,,,,,,,,,,,,,,,,,,,,,,,,,,,,,,,,,,,,,,,,,,,
,8812,ABC,22/07/2004,001,2023-09-26_17h07.49.785,OS3_Mult_verification,2022.2.4,Win32,60.11783095,,,27,1.3658,1,"[""2"",""7"",""return""]","[0.7150000000000034,1.167600000023839,1.3414999999999964]",1,28,59,14,1,27,,,,,,,,,,,,,,,,,,,,,,,,,,,,,,,,,,,,,,,,,,,,,,,,,,,,,,,,,,,,,,,,,,,,,,,,,,,,,,,,,,,,,,,,,,,,,,,,,,,,,,,,,,,,,,,,,,,,,,,,,,,,,,,,,,,,,,,,,,,,,,,,,,,,,,,,,,,,,,,,,
,8812,ABC,22/07/2004,001,2023-09-26_17h07.49.785,OS3_Mult_verification,2022.2.4,Win32,60.11783095,,,64,1.7157,1,"[""6"",""4"",""return""]","[1.0510000000000161,1.531100000023855,1.6810000000000116]",1,29,60,28,1,64,,,,,,,,,,,,,,,,,,,,,,,,,,,,,,,,,,,,,,,,,,,,,,,,,,,,,,,,,,,,,,,,,,,,,,,,,,,,,,,,,,,,,,,,,,,,,,,,,,,,,,,,,,,,,,,,,,,,,,,,,,,,,,,,,,,,,,,,,,,,,,,,,,,,,,,,,,,,,,,,,
,8812,ABC,22/07/2004,001,2023-09-26_17h07.49.785,OS3_Mult_verification,2022.2.4,Win32,60.11783095,,,10,1.2991,1,"[""1"",""0"",""return""]","[0.5865000000000009,1.0033000000715333,1.2662000000476894]",1,30,61,4,1,10,,,,,,,,,,,,,,,,,,,,,,,,,,,,,,,,,,,,,,,,,,,,,,,,,,,,,,,,,,,,,,,,,,,,,,,,,,,,,,,,,,,,,,,,,,,,,,,,,,,,,,,,,,,,,,,,,,,,,,,,,,,,,,,,,,,,,,,,,,,,,,,,,,,,,,,,,,,,,,,,,
,8812,ABC,22/07/2004,001,2023-09-26_17h07.49.785,OS3_Mult_verification,2022.2.4,Win32,60.11783095,,,,,,,,,,,,,,space,3.1055,,,,,,,,,,,,,,,,,,,,,,,,,,,,,,,,,,,,,,,,,,,,,,,,,,,,,,,,,,,,,,,,,,,,,,,,,,,,,,,,,,,,,,,,,,,,,,,,,,,,,,,,,,,,,,,,,,,,,,,,,,,,,,,,,,,,,,,,,,,,,,,,,,,,,,,,,,,,,,,
,8812,ABC,22/07/2004,001,2023-09-26_17h07.49.785,OS3_Mult_verification,2022.2.4,Win32,60.11783095,,,,,,,,,,,,,,,,,,,,,,,,,,,,,,,,,,,,,,,,,,,,,,,,,,,,,,,,,,,,,,,,,,,,,,,,,,,,,,,,,,,,,,,,,,,,,,,,,,,,,,,,,,,,,,,,,,,,,,,,,,,,,,,,,,,,,,,,,,,,,,,,,,,,,,,,,,,,,,,,,,,,,,,,,,,,,,
,8812,ABC,22/07/2004,001,2023-09-26_17h07.49.785,OS3_Mult_verification,2022.2.4,Win32,60.11783095,,,,,,,,,,,,,,,,space,2.6367,,,,,,,,,,,,,,,,,,,,,,,,,,,,,,,,,,,,,,,,,,,,,,,,,,,,,,,,,,,,,,,,,,,,,,,,,,,,,,,,,,,,,,,,,,,,,,,,,,,,,,,,,,,,,,,,,,,,,,,,,,,,,,,,,,,,,,,,,,,,,,,,,,,,,,,,,,,,,
,8812,ABC,22/07/2004,001,2023-09-26_17h07.49.785,OS3_Mult_verification,2022.2.4,Win32,60.11783095,,,,,,,,,,,,,,,,,,20,2.3829,1,"[""2"",""0"",""return""]","[1.5700999999046417,1.7203999999761663,2.0865999999046494]",0,0,0,1,1,2 × 10 =,20,,,,,,,,,,,,,,,,,,,,,,,,,,,,,,,,,,,,,,,,,,,,,,,,,,,,,,,,,,,,,,,,,,,,,,,,,,,,,,,,,,,,,,,,,,,,,,,,,,,,,,,,,,,,,,,,,,,,,,,,,,,,,,,,,,,,,,,,,,,,,,,,,
,8812,ABC,22/07/2004,001,2023-09-26_17h07.49.785,OS3_Mult_verification,2022.2.4,Win32,60.11783095,,,,,,,,,,,,,,,,,,7,1.3406,1,"[""7"",""return""]","[0.9480999999046276,1.0552999999523536]",0,1,1,0,1,1 × 7 =,7,,,,,,,,,,,,,,,,,,,,,,,,,,,,,,,,,,,,,,,,,,,,,,,,,,,,,,,,,,,,,,,,,,,,,,,,,,,,,,,,,,,,,,,,,,,,,,,,,,,,,,,,,,,,,,,,,,,,,,,,,,,,,,,,,,,,,,,,,,,,,,,,,
,8812,ABC,22/07/2004,001,2023-09-26_17h07.49.785,OS3_Mult_verification,2022.2.4,Win32,60.11783095,,,,,,,,,,,,,,,,,,22,1.4822,1,"[""2"",""2"",""return""]","[0.9645999999046353,1.069500000000005,1.1830999999046412]",0,2,2,2,1,2 × 11 =,22,,,,,,,,,,,,,,,,,,,,,,,,,,,,,,,,,,,,,,,,,,,,,,,,,,,,,,,,,,,,,,,,,,,,,,,,,,,,,,,,,,,,,,,,,,,,,,,,,,,,,,,,,,,,,,,,,,,,,,,,,,,,,,,,,,,,,,,,,,,,,,,,,
,8812,ABC,22/07/2004,001,2023-09-26_17h07.49.785,OS3_Mult_verification,2022.2.4,Win32,60.11783095,,,,,,,,,,,,,,,,,,,,,,,,,,,,,,,,,,,,,,,,,,,,,,,,,,,,,,,,,,,,,,,,,,,,,,,,,,,,,,,,,,,,,,,,,,,,,,,,,,,,,,,,,,,,,,,,,,,,,,,,,,,,,,,,,,,,,,,,,,,,,,,,,,,,,,,,,,,,,,,,,,,,,,,,,,,,,,
,8812,ABC,22/07/2004,001,2023-09-26_17h07.49.785,OS3_Mult_verification,2022.2.4,Win32,60.11783095,,,,,,,,,,,,,,,,,,,,,,,,,,,,,,,,,,,,,,,,,,,,,,,,,,,,,,,,,,,,,,,,,,,,,,,,,,,,,,,,,,,,,,,,,,,,,,,,,,,,,,,,,,,,,,,,,,,,,,,,,,,,,,,,,,,,,,,,,,,,,,,,,,,,,,,,,,,,,,,,,,,,,,,,,,,,,,
,8812,ABC,22/07/2004,001,2023-09-26_17h07.49.785,OS3_Mult_verification,2022.2.4,Win32,60.11783095,,,,,,,,,,,,,,,,,,6,1.7825,1,"[""6"",""return""]","[1.3825999999046417,1.490699999928495]",,,,,,2 × 3 =,6,0,0,0,0,1,,,,,,,,,,,,,,,,,,,,,,,,,,,,,,,,,,,,,,,,,,,,,,,,,,,,,,,,,,,,,,,,,,,,,,,,,,,,,,,,,,,,,,,,,,,,,,,,,,,,,,,,,,,,,,,,,,,,,,,,,,,,,,,,,,,,,,,,,,,,
,8812,ABC,22/07/2004,001,2023-09-26_17h07.49.785,OS3_Mult_verification,2022.2.4,Win32,60.11783095,,,,,,,,,,,,,,,,,,40,2.0814,1,"[""4"",""0"",""return""]","[1.3825999999046417,1.684500000000014,1.7893999999761832]",,,,,,5 × 8 =,40,0,1,1,1,1,,,,,,,,,,,,,,,,,,,,,,,,,,,,,,,,,,,,,,,,,,,,,,,,,,,,,,,,,,,,,,,,,,,,,,,,,,,,,,,,,,,,,,,,,,,,,,,,,,,,,,,,,,,,,,,,,,,,,,,,,,,,,,,,,,,,,,,,,,,,
,8812,ABC,22/07/2004,001,2023-09-26_17h07.49.785,OS3_Mult_verification,2022.2.4,Win32,60.11783095,,,,,,,,,,,,,,,,,,12,2.8399,1,"[""2"",""backspace"",""1"",""2"",""return""]","[0.9225000000000136,1.680799999952285,1.8563999999761336,1.9642999999522885,2.5471000000238178]",,,,,,3 × 4 =,12,0,2,2,2,1,,,,,,,,,,,,,,,,,,,,,,,,,,,,,,,,,,,,,,,,,,,,,,,,,,,,,,,,,,,,,,,,,,,,,,,,,,,,,,,,,,,,,,,,,,,,,,,,,,,,,,,,,,,,,,,,,,,,,,,,,,,,,,,,,,,,,,,,,,,,
,8812,ABC,22/07/2004,001,2023-09-26_17h07.49.785,OS3_Mult_verification,2022.2.4,Win32,60.11783095,,,,,,,,,,,,,,,,,,15,1.532,1,"[""1"",""5"",""return""]","[0.8524999999999636,1.133199999928479,1.2346999999284662]",,,,,,5 × 3 =,15,0,3,3,3,1,,,,,,,,,,,,,,,,,,,,,,,,,,,,,,,,,,,,,,,,,,,,,,,,,,,,,,,,,,,,,,,,,,,,,,,,,,,,,,,,,,,,,,,,,,,,,,,,,,,,,,,,,,,,,,,,,,,,,,,,,,,,,,,,,,,,,,,,,,,,
,8812,ABC,22/07/2004,001,2023-09-26_17h07.49.785,OS3_Mult_verification,2022.2.4,Win32,60.11783095,,,,,,,,,,,,,,,,,,8,1.5654,1,"[""8"",""return""]","[1.168900000095391,1.267499999999984]",,,,,,2 × 4 =,8,0,4,4,4,1,,,,,,,,,,,,,,,,,,,,,,,,,,,,,,,,,,,,,,,,,,,,,,,,,,,,,,,,,,,,,,,,,,,,,,,,,,,,,,,,,,,,,,,,,,,,,,,,,,,,,,,,,,,,,,,,,,,,,,,,,,,,,,,,,,,,,,,,,,,,
,8812,ABC,22/07/2004,001,2023-09-26_17h07.49.785,OS3_Mult_verification,2022.2.4,Win32,60.11783095,,,,,,,,,,,,,,,,,,4,1.349,1,"[""4"",""return""]","[0.9251999999284521,1.0533999999761363]",,,,,,2 × 2 =,4,0,5,5,5,1,,,,,,,,,,,,,,,,,,,,,,,,,,,,,,,,,,,,,,,,,,,,,,,,,,,,,,,,,,,,,,,,,,,,,,,,,,,,,,,,,,,,,,,,,,,,,,,,,,,,,,,,,,,,,,,,,,,,,,,,,,,,,,,,,,,,,,,,,,,,
,8812,ABC,22/07/2004,001,2023-09-26_17h07.49.785,OS3_Mult_verification,2022.2.4,Win32,60.11783095,,,,,,,,,,,,,,,,,,20,1.7486,1,"[""2"",""0"",""return""]","[0.9478999999761868,1.3236999999284649,1.449299999952359]",,,,,,4 × 5 =,20,0,6,6,6,1,,,,,,,,,,,,,,,,,,,,,,,,,,,,,,,,,,,,,,,,,,,,,,,,,,,,,,,,,,,,,,,,,,,,,,,,,,,,,,,,,,,,,,,,,,,,,,,,,,,,,,,,,,,,,,,,,,,,,,,,,,,,,,,,,,,,,,,,,,,,
,8812,ABC,22/07/2004,001,2023-09-26_17h07.49.785,OS3_Mult_verification,2022.2.4,Win32,60.11783095,,,,,,,,,,,,,,,,,,9,1.6321,1,"[""9"",""return""]","[1.216299999952298,1.3309999999999604]",,,,,,3 × 3 =,9,0,7,7,7,1,,,,,,,,,,,,,,,,,,,,,,,,,,,,,,,,,,,,,,,,,,,,,,,,,,,,,,,,,,,,,,,,,,,,,,,,,,,,,,,,,,,,,,,,,,,,,,,,,,,,,,,,,,,,,,,,,,,,,,,,,,,,,,,,,,,,,,,,,,,,
,8812,ABC,22/07/2004,001,2023-09-26_17h07.49.785,OS3_Mult_verification,2022.2.4,Win32,60.11783095,,,,,,,,,,,,,,,,,,10,1.5655,1,"[""1"",""0"",""return""]","[0.7681000000238782,1.169700000047726,1.2746000000238382]",,,,,,5 × 2 =,10,0,8,8,8,1,,,,,,,,,,,,,,,,,,,,,,,,,,,,,,,,,,,,,,,,,,,,,,,,,,,,,,,,,,,,,,,,,,,,,,,,,,,,,,,,,,,,,,,,,,,,,,,,,,,,,,,,,,,,,,,,,,,,,,,,,,,,,,,,,,,,,,,,,,,,
,8812,ABC,22/07/2004,001,2023-09-26_17h07.49.785,OS3_Mult_verification,2022.2.4,Win32,60.11783095,,,,,,,,,,,,,,,,,,16,1.5655,1,"[""1"",""6"",""return""]","[0.816799999952309,1.173100000023851,1.2708999999761659]",,,,,,4 × 4 =,16,0,9,9,9,1,,,,,,,,,,,,,,,,,,,,,,,,,,,,,,,,,,,,,,,,,,,,,,,,,,,,,,,,,,,,,,,,,,,,,,,,,,,,,,,,,,,,,,,,,,,,,,,,,,,,,,,,,,,,,,,,,,,,,,,,,,,,,,,,,,,,,,,,,,,,
,8812,ABC,22/07/2004,001,2023-09-26_17h07.49.785,OS3_Mult_verification,2022.2.4,Win32,60.11783095,,,,,,,,,,,,,,,,,,24,1.982,1,"[""2"",""4"",""return""]","[1.366099999904634,1.567199999928448,1.6825999999045962]",,,,,,8 × 3 =,24,0,10,10,10,1,,,,,,,,,,,,,,,,,,,,,,,,,,,,,,,,,,,,,,,,,,,,,,,,,,,,,,,,,,,,,,,,,,,,,,,,,,,,,,,,,,,,,,,,,,,,,,,,,,,,,,,,,,,,,,,,,,,,,,,,,,,,,,,,,,,,,,,,,,,,
,8812,ABC,22/07/2004,001,2023-09-26_17h07.49.785,OS3_Mult_verification,2022.2.4,Win32,60.11783095,,,,,,,,,,,,,,,,,,30,1.7487,1,"[""3"",""0"",""return""]","[0.9835999999046408,1.3310000000000173,1.4537999999523663]",,,,,,6 × 5 =,30,0,11,11,11,1,,,,,,,,,,,,,,,,,,,,,,,,,,,,,,,,,,,,,,,,,,,,,,,,,,,,,,,,,,,,,,,,,,,,,,,,,,,,,,,,,,,,,,,,,,,,,,,,,,,,,,,,,,,,,,,,,,,,,,,,,,,,,,,,,,,,,,,,,,,,
,8812,ABC,22/07/2004,001,2023-09-26_17h07.49.785,OS3_Mult_verification,2022.2.4,Win32,60.11783095,,,,,,,,,,,,,,,,,,14,1.9818,1,"[""1"",""4"",""return""]","[1.2537999999523208,1.5642999999523113,1.6807999999523418]",,,,,,7 × 2 =,14,0,12,12,12,1,,,,,,,,,,,,,,,,,,,,,,,,,,,,,,,,,,,,,,,,,,,,,,,,,,,,,,,,,,,,,,,,,,,,,,,,,,,,,,,,,,,,,,,,,,,,,,,,,,,,,,,,,,,,,,,,,,,,,,,,,,,,,,,,,,,,,,,,,,,,
,8812,ABC,22/07/2004,001,2023-09-26_17h07.49.785,OS3_Mult_verification,2022.2.4,Win32,60.11783095,,,,,,,,,,,,,,,,,,27,1.8819,1,"[""2"",""7"",""return""]","[1.132899999976189,1.4346000000238632,1.5808999999761681]",,,,,,3 × 9 =,27,0,13,13,13,1,,,,,,,,,,,,,,,,,,,,,,,,,,,,,,,,,,,,,,,,,,,,,,,,,,,,,,,,,,,,,,,,,,,,,,,,,,,,,,,,,,,,,,,,,,,,,,,,,,,,,,,,,,,,,,,,,,,,,,,,,,,,,,,,,,,,,,,,,,,,
,8812,ABC,22/07/2004,001,2023-09-26_17h07.49.785,OS3_Mult_verification,2022.2.4,Win32,60.11783095,,,,,,,,,,,,,,,,,,16,1.5487,1,"[""1"",""6"",""return""]","[0.8088000000715283,1.156100000023855,1.2528000000715451]",,,,,,2 × 8 =,16,0,14,14,14,1,,,,,,,,,,,,,,,,,,,,,,,,,,,,,,,,,,,,,,,,,,,,,,,,,,,,,,,,,,,,,,,,,,,,,,,,,,,,,,,,,,,,,,,,,,,,,,,,,,,,,,,,,,,,,,,,,,,,,,,,,,,,,,,,,,,,,,,,,,,,
,8812,ABC,22/07/2004,001,2023-09-26_17h07.49.785,OS3_Mult_verification,2022.2.4,Win32,60.11783095,,,,,,,,,,,,,,,,,,24,1.5988,1,"[""2"",""4"",""return""]","[0.964600000023836,1.1642999999522772,1.305799999952285]",,,,,,4 × 6 =,24,0,15,15,15,1,,,,,,,,,,,,,,,,,,,,,,,,,,,,,,,,,,,,,,,,,,,,,,,,,,,,,,,,,,,,,,,,,,,,,,,,,,,,,,,,,,,,,,,,,,,,,,,,,,,,,,,,,,,,,,,,,,,,,,,,,,,,,,,,,,,,,,,,,,,,
,8812,ABC,22/07/2004,001,2023-09-26_17h07.49.785,OS3_Mult_verification,2022.2.4,Win32,60.11783095,,,,,,,,,,,,,,,,,,21,1.4155,1,"[""2"",""1"",""return""]","[0.8397000000476851,0.9811000000238437,1.115000000000009]",,,,,,7 × 3 =,21,0,16,16,16,1,,,,,,,,,,,,,,,,,,,,,,,,,,,,,,,,,,,,,,,,,,,,,,,,,,,,,,,,,,,,,,,,,,,,,,,,,,,,,,,,,,,,,,,,,,,,,,,,,,,,,,,,,,,,,,,,,,,,,,,,,,,,,,,,,,,,,,,,,,,,
,8812,ABC,22/07/2004,001,2023-09-26_17h07.49.785,OS3_Mult_verification,2022.2.4,Win32,60.11783095,,,,,,,,,,,,,,,,,,27,3.1813,1,"[""2"",""7"",""return""]","[2.37470000004771,2.7802999999523195,2.8843999999761536]",,,,,,9 × 3 =,27,0,17,17,17,1,,,,,,,,,,,,,,,,,,,,,,,,,,,,,,,,,,,,,,,,,,,,,,,,,,,,,,,,,,,,,,,,,,,,,,,,,,,,,,,,,,,,,,,,,,,,,,,,,,,,,,,,,,,,,,,,,,,,,,,,,,,,,,,,,,,,,,,,,,,,
,8812,ABC,22/07/2004,001,2023-09-26_17h07.49.785,OS3_Mult_verification,2022.2.4,Win32,60.11783095,,,,,,,,,,,,,,,,,,28,1.8818,1,"[""2"",""8"",""return""]","[0.9666000000238455,1.5065000000000168,1.5832000000476683]",,,,,,4 × 7 =,28,0,18,18,18,1,,,,,,,,,,,,,,,,,,,,,,,,,,,,,,,,,,,,,,,,,,,,,,,,,,,,,,,,,,,,,,,,,,,,,,,,,,,,,,,,,,,,,,,,,,,,,,,,,,,,,,,,,,,,,,,,,,,,,,,,,,,,,,,,,,,,,,,,,,,,
,8812,ABC,22/07/2004,001,2023-09-26_17h07.49.785,OS3_Mult_verification,2022.2.4,Win32,60.11783095,,,,,,,,,,,,,,,,,,18,1.932,1,"[""1"",""8"",""return""]","[0.8501000000238719,1.5642000000477196,1.6328000000715406]",,,,,,2 × 9 =,18,0,19,19,19,1,,,,,,,,,,,,,,,,,,,,,,,,,,,,,,,,,,,,,,,,,,,,,,,,,,,,,,,,,,,,,,,,,,,,,,,,,,,,,,,,,,,,,,,,,,,,,,,,,,,,,,,,,,,,,,,,,,,,,,,,,,,,,,,,,,,,,,,,,,,,
,8812,ABC,22/07/2004,001,2023-09-26_17h07.49.785,OS3_Mult_verification,2022.2.4,Win32,60.11783095,,,,,,,,,,,,,,,,,,72,2.0485,1,"[""7"",""2"",""return""]","[1.2739000000953524,1.5976000000238741,1.7532000000476842]",,,,,,9 × 8 =,72,0,20,20,20,1,,,,,,,,,,,,,,,,,,,,,,,,,,,,,,,,,,,,,,,,,,,,,,,,,,,,,,,,,,,,,,,,,,,,,,,,,,,,,,,,,,,,,,,,,,,,,,,,,,,,,,,,,,,,,,,,,,,,,,,,,,,,,,,,,,,,,,,,,,,,
,8812,ABC,22/07/2004,001,2023-09-26_17h07.49.785,OS3_Mult_verification,2022.2.4,Win32,60.11783095,,,,,,,,,,,,,,,,,,42,2.3984,1,"[""4"",""2"",""return""]","[1.4051999999284703,2.022699999928477,2.106600000023832]",,,,,,7 × 6 =,42,0,21,21,21,1,,,,,,,,,,,,,,,,,,,,,,,,,,,,,,,,,,,,,,,,,,,,,,,,,,,,,,,,,,,,,,,,,,,,,,,,,,,,,,,,,,,,,,,,,,,,,,,,,,,,,,,,,,,,,,,,,,,,,,,,,,,,,,,,,,,,,,,,,,,,
,8812,ABC,22/07/2004,001,2023-09-26_17h07.49.785,OS3_Mult_verification,2022.2.4,Win32,60.11783095,,,,,,,,,,,,,,,,,,54,2.4649,1,"[""5"",""4"",""return""]","[1.8895999999046467,2.065999999999974,2.171599999904629]",,,,,,6 × 9 =,54,0,22,22,22,1,,,,,,,,,,,,,,,,,,,,,,,,,,,,,,,,,,,,,,,,,,,,,,,,,,,,,,,,,,,,,,,,,,,,,,,,,,,,,,,,,,,,,,,,,,,,,,,,,,,,,,,,,,,,,,,,,,,,,,,,,,,,,,,,,,,,,,,,,,,,
,8812,ABC,22/07/2004,001,2023-09-26_17h07.49.785,OS3_Mult_verification,2022.2.4,Win32,60.11783095,,,,,,,,,,,,,,,,,,45,1.8321,1,"[""4"",""5"",""return""]","[1.1745000000000232,1.3473000000715274,1.5326000000238196]",,,,,,9 × 5 =,45,0,23,23,23,1,,,,,,,,,,,,,,,,,,,,,,,,,,,,,,,,,,,,,,,,,,,,,,,,,,,,,,,,,,,,,,,,,,,,,,,,,,,,,,,,,,,,,,,,,,,,,,,,,,,,,,,,,,,,,,,,,,,,,,,,,,,,,,,,,,,,,,,,,,,,
,8812,ABC,22/07/2004,001,2023-09-26_17h07.49.785,OS3_Mult_verification,2022.2.4,Win32,60.11783095,,,,,,,,,,,,,,,,,,56,2.6648,1,"[""5"",""6"",""return""]","[1.5501000000238605,2.1827999999522945,2.3712999999523277]",,,,,,8 × 7 =,56,0,24,24,24,1,,,,,,,,,,,,,,,,,,,,,,,,,,,,,,,,,,,,,,,,,,,,,,,,,,,,,,,,,,,,,,,,,,,,,,,,,,,,,,,,,,,,,,,,,,,,,,,,,,,,,,,,,,,,,,,,,,,,,,,,,,,,,,,,,,,,,,,,,,,,
,8812,ABC,22/07/2004,001,2023-09-26_17h07.49.785,OS3_Mult_verification,2022.2.4,Win32,60.11783095,,,,,,,,,,,,,,,,,,36,1.6743,1,"[""3"",""6"",""return""]","[0.8686999999284808,1.3025999999046007,1.3900999999046348]",,,,,,6 × 6 =,36,0,25,25,25,1,,,,,,,,,,,,,,,,,,,,,,,,,,,,,,,,,,,,,,,,,,,,,,,,,,,,,,,,,,,,,,,,,,,,,,,,,,,,,,,,,,,,,,,,,,,,,,,,,,,,,,,,,,,,,,,,,,,,,,,,,,,,,,,,,,,,,,,,,,,,
,8812,ABC,22/07/2004,001,2023-09-26_17h07.49.785,OS3_Mult_verification,2022.2.4,Win32,60.11783095,,,,,,,,,,,,,,,,,,35,1.6987,1,"[""3"",""5"",""return""]","[0.9041000000238455,1.2008999999761727,1.4006000000238714]",,,,,,5 × 7 =,35,0,26,26,26,1,,,,,,,,,,,,,,,,,,,,,,,,,,,,,,,,,,,,,,,,,,,,,,,,,,,,,,,,,,,,,,,,,,,,,,,,,,,,,,,,,,,,,,,,,,,,,,,,,,,,,,,,,,,,,,,,,,,,,,,,,,,,,,,,,,,,,,,,,,,,
,8812,ABC,22/07/2004,001,2023-09-26_17h07.49.785,OS3_Mult_verification,2022.2.4,Win32,60.11783095,,,,,,,,,,,,,,,,,,36,1.9153,1,"[""3"",""6"",""return""]","[1.184399999976165,1.4811000000238437,1.6146000000238132]",,,,,,4 × 9 =,36,0,27,27,27,1,,,,,,,,,,,,,,,,,,,,,,,,,,,,,,,,,,,,,,,,,,,,,,,,,,,,,,,,,,,,,,,,,,,,,,,,,,,,,,,,,,,,,,,,,,,,,,,,,,,,,,,,,,,,,,,,,,,,,,,,,,,,,,,,,,,,,,,,,,,,
,8812,ABC,22/07/2004,001,2023-09-26_17h07.49.785,OS3_Mult_verification,2022.2.4,Win32,60.11783095,,,,,,,,,,,,,,,,,,48,1.8986,1,"[""4"",""8"",""return""]","[1.1550000000000296,1.4975000000000023,1.6056000000238555]",,,,,,8 × 6 =,48,0,28,28,28,1,,,,,,,,,,,,,,,,,,,,,,,,,,,,,,,,,,,,,,,,,,,,,,,,,,,,,,,,,,,,,,,,,,,,,,,,,,,,,,,,,,,,,,,,,,,,,,,,,,,,,,,,,,,,,,,,,,,,,,,,,,,,,,,,,,,,,,,,,,,,
,8812,ABC,22/07/2004,001,2023-09-26_17h07.49.785,OS3_Mult_verification,2022.2.4,Win32,60.11783095,,,,,,,,,,,,,,,,,,63,3.8642,1,"[""6"",""3"",""return""]","[3.066900000095359,3.4706000000238646,3.5659000000953824]",,,,,,9 × 7 =,63,0,29,29,29,1,,,,,,,,,,,,,,,,,,,,,,,,,,,,,,,,,,,,,,,,,,,,,,,,,,,,,,,,,,,,,,,,,,,,,,,,,,,,,,,,,,,,,,,,,,,,,,,,,,,,,,,,,,,,,,,,,,,,,,,,,,,,,,,,,,,,,,,,,,,,
,8812,ABC,22/07/2004,001,2023-09-26_17h07.49.785,OS3_Mult_verification,2022.2.4,Win32,60.11783095,,,,,,,,,,,,,,,,,,12,1.3227,1,"[""1"",""2"",""return""]","[0.7017000000477083,0.8526000000238128,1.0418000000715324]",,,,,,4 × 3 =,12,0,30,30,30,1,,,,,,,,,,,,,,,,,,,,,,,,,,,,,,,,,,,,,,,,,,,,,,,,,,,,,,,,,,,,,,,,,,,,,,,,,,,,,,,,,,,,,,,,,,,,,,,,,,,,,,,,,,,,,,,,,,,,,,,,,,,,,,,,,,,,,,,,,,,,
,8812,ABC,22/07/2004,001,2023-09-26_17h07.49.785,OS3_Mult_verification,2022.2.4,Win32,60.11783095,,,,,,,,,,,,,,,,,,25,1.6321,1,"[""2"",""5"",""return""]","[0.8475999999046167,1.2083999999761659,1.3410000000000082]",,,,,,5 × 5 =,25,0,31,31,31,1,,,,,,,,,,,,,,,,,,,,,,,,,,,,,,,,,,,,,,,,,,,,,,,,,,,,,,,,,,,,,,,,,,,,,,,,,,,,,,,,,,,,,,,,,,,,,,,,,,,,,,,,,,,,,,,,,,,,,,,,,,,,,,,,,,,,,,,,,,,,
,8812,ABC,22/07/2004,001,2023-09-26_17h07.49.785,OS3_Mult_verification,2022.2.4,Win32,60.11783095,,,,,,,,,,,,,,,,,,6,2.1151,1,"[""6"",""return""]","[1.7168999999761354,1.8153999999761368]",,,,,,3 × 2 =,6,0,32,32,32,1,,,,,,,,,,,,,,,,,,,,,,,,,,,,,,,,,,,,,,,,,,,,,,,,,,,,,,,,,,,,,,,,,,,,,,,,,,,,,,,,,,,,,,,,,,,,,,,,,,,,,,,,,,,,,,,,,,,,,,,,,,,,,,,,,,,,,,,,,,,,
,8812,ABC,22/07/2004,001,2023-09-26_17h07.49.785,OS3_Mult_verification,2022.2.4,Win32,60.11783095,,,,,,,,,,,,,,,,,,20,1.6321,1,"[""2"",""0"",""return""]","[0.7812000000476473,1.2143999999761377,1.3417000000476378]",,,,,,5 × 4 =,20,0,33,33,33,1,,,,,,,,,,,,,,,,,,,,,,,,,,,,,,,,,,,,,,,,,,,,,,,,,,,,,,,,,,,,,,,,,,,,,,,,,,,,,,,,,,,,,,,,,,,,,,,,,,,,,,,,,,,,,,,,,,,,,,,,,,,,,,,,,,,,,,,,,,,,
,8812,ABC,22/07/2004,001,2023-09-26_17h07.49.785,OS3_Mult_verification,2022.2.4,Win32,60.11783095,,,,,,,,,,,,,,,,,,8,1.9484,1,"[""8"",""return""]","[1.538499999999999,1.6557000000476592]",,,,,,4 × 2 =,8,0,34,34,34,1,,,,,,,,,,,,,,,,,,,,,,,,,,,,,,,,,,,,,,,,,,,,,,,,,,,,,,,,,,,,,,,,,,,,,,,,,,,,,,,,,,,,,,,,,,,,,,,,,,,,,,,,,,,,,,,,,,,,,,,,,,,,,,,,,,,,,,,,,,,,
,8812,ABC,22/07/2004,001,2023-09-26_17h07.49.785,OS3_Mult_verification,2022.2.4,Win32,60.11783095,,,,,,,,,,,,,,,,,,12,1.4156,1,"[""1"",""2"",""return""]","[0.8148999999762054,0.982200000047726,1.12470000004771]",,,,,,2 × 6 =,12,0,35,35,35,1,,,,,,,,,,,,,,,,,,,,,,,,,,,,,,,,,,,,,,,,,,,,,,,,,,,,,,,,,,,,,,,,,,,,,,,,,,,,,,,,,,,,,,,,,,,,,,,,,,,,,,,,,,,,,,,,,,,,,,,,,,,,,,,,,,,,,,,,,,,,
,8812,ABC,22/07/2004,001,2023-09-26_17h07.49.785,OS3_Mult_verification,2022.2.4,Win32,60.11783095,,,,,,,,,,,,,,,,,,15,1.4821,1,"[""1"",""5"",""return""]","[0.6981000000238851,1.0981000000238623,1.192299999952354]",,,,,,3 × 5 =,15,0,36,36,36,1,,,,,,,,,,,,,,,,,,,,,,,,,,,,,,,,,,,,,,,,,,,,,,,,,,,,,,,,,,,,,,,,,,,,,,,,,,,,,,,,,,,,,,,,,,,,,,,,,,,,,,,,,,,,,,,,,,,,,,,,,,,,,,,,,,,,,,,,,,,,
,8812,ABC,22/07/2004,001,2023-09-26_17h07.49.785,OS3_Mult_verification,2022.2.4,Win32,60.11783095,,,,,,,,,,,,,,,,,,18,1.782,1,"[""1"",""8"",""return""]","[0.8036999999284831,1.3592999999523272,1.4811999999284922]",,,,,,6 × 3 =,18,0,37,37,37,1,,,,,,,,,,,,,,,,,,,,,,,,,,,,,,,,,,,,,,,,,,,,,,,,,,,,,,,,,,,,,,,,,,,,,,,,,,,,,,,,,,,,,,,,,,,,,,,,,,,,,,,,,,,,,,,,,,,,,,,,,,,,,,,,,,,,,,,,,,,,
,8812,ABC,22/07/2004,001,2023-09-26_17h07.49.785,OS3_Mult_verification,2022.2.4,Win32,60.11783095,,,,,,,,,,,,,,,,,,10,2.2984,1,"[""1"",""0"",""return""]","[1.5063000000715192,1.899000000000001,2.0020000000000095]",,,,,,2 × 5 =,10,0,38,38,38,1,,,,,,,,,,,,,,,,,,,,,,,,,,,,,,,,,,,,,,,,,,,,,,,,,,,,,,,,,,,,,,,,,,,,,,,,,,,,,,,,,,,,,,,,,,,,,,,,,,,,,,,,,,,,,,,,,,,,,,,,,,,,,,,,,,,,,,,,,,,,
,8812,ABC,22/07/2004,001,2023-09-26_17h07.49.785,OS3_Mult_verification,2022.2.4,Win32,60.11783095,,,,,,,,,,,,,,,,,,32,1.882,1,"[""3"",""2"",""return""]","[1.281499999999994,1.4088999999761427,1.5910000000000082]",,,,,,4 × 8 =,32,0,39,39,39,1,,,,,,,,,,,,,,,,,,,,,,,,,,,,,,,,,,,,,,,,,,,,,,,,,,,,,,,,,,,,,,,,,,,,,,,,,,,,,,,,,,,,,,,,,,,,,,,,,,,,,,,,,,,,,,,,,,,,,,,,,,,,,,,,,,,,,,,,,,,,
,8812,ABC,22/07/2004,001,2023-09-26_17h07.49.785,OS3_Mult_verification,2022.2.4,Win32,60.11783095,,,,,,,,,,,,,,,,,,24,1.9485,1,"[""2"",""4"",""return""]","[1.3313999999761563,1.5162999999523095,1.6496000000238382]",,,,,,3 × 8 =,24,0,40,40,40,1,,,,,,,,,,,,,,,,,,,,,,,,,,,,,,,,,,,,,,,,,,,,,,,,,,,,,,,,,,,,,,,,,,,,,,,,,,,,,,,,,,,,,,,,,,,,,,,,,,,,,,,,,,,,,,,,,,,,,,,,,,,,,,,,,,,,,,,,,,,,
,8812,ABC,22/07/2004,001,2023-09-26_17h07.49.785,OS3_Mult_verification,2022.2.4,Win32,60.11783095,,,,,,,,,,,,,,,,,,35,3.5476,0,"[""3"",""5"",""return""]","[2.28810000002386,3.079899999976192,3.2486000000238278]",,,,,,5 × 6 =,30,0,41,41,41,1,,,,,,,,,,,,,,,,,,,,,,,,,,,,,,,,,,,,,,,,,,,,,,,,,,,,,,,,,,,,,,,,,,,,,,,,,,,,,,,,,,,,,,,,,,,,,,,,,,,,,,,,,,,,,,,,,,,,,,,,,,,,,,,,,,,,,,,,,,,,
,8812,ABC,22/07/2004,001,2023-09-26_17h07.49.785,OS3_Mult_verification,2022.2.4,Win32,60.11783095,,,,,,,,,,,,,,,,,,14,2.6394,1,"[""1"",""4"",""return""]","[1.857500000000016,2.2162000000477065,2.3486000000238505]",,,,,,2 × 7 =,14,0,42,42,42,1,,,,,,,,,,,,,,,,,,,,,,,,,,,,,,,,,,,,,,,,,,,,,,,,,,,,,,,,,,,,,,,,,,,,,,,,,,,,,,,,,,,,,,,,,,,,,,,,,,,,,,,,,,,,,,,,,,,,,,,,,,,,,,,,,,,,,,,,,,,,
,8812,ABC,22/07/2004,001,2023-09-26_17h07.49.785,OS3_Mult_verification,2022.2.4,Win32,60.11783095,,,,,,,,,,,,,,,,,,24,1.9653,1,"[""2"",""4"",""return""]","[1.3495000000000346,1.5500000000000114,1.6689999999999827]",,,,,,6 × 4 =,24,0,43,43,43,1,,,,,,,,,,,,,,,,,,,,,,,,,,,,,,,,,,,,,,,,,,,,,,,,,,,,,,,,,,,,,,,,,,,,,,,,,,,,,,,,,,,,,,,,,,,,,,,,,,,,,,,,,,,,,,,,,,,,,,,,,,,,,,,,,,,,,,,,,,,,
,8812,ABC,22/07/2004,001,2023-09-26_17h07.49.785,OS3_Mult_verification,2022.2.4,Win32,60.11783095,,,,,,,,,,,,,,,,,,21,1.6822,1,"[""2"",""1"",""return""]","[1.13120000004767,1.2703999999761777,1.3807999999523304]",,,,,,3 × 7 =,21,0,44,44,44,1,,,,,,,,,,,,,,,,,,,,,,,,,,,,,,,,,,,,,,,,,,,,,,,,,,,,,,,,,,,,,,,,,,,,,,,,,,,,,,,,,,,,,,,,,,,,,,,,,,,,,,,,,,,,,,,,,,,,,,,,,,,,,,,,,,,,,,,,,,,,
,8812,ABC,22/07/2004,001,2023-09-26_17h07.49.785,OS3_Mult_verification,2022.2.4,Win32,60.11783095,,,,,,,,,,,,,,,,,,,1.3822,0,,,,,,,,9 × 9 =,81,0,45,45,45,1,,,,,,,,,,,,,,,,,,,,,,,,,,,,,,,,,,,,,,,,,,,,,,,,,,,,,,,,,,,,,,,,,,,,,,,,,,,,,,,,,,,,,,,,,,,,,,,,,,,,,,,,,,,,,,,,,,,,,,,,,,,,,,,,,,,,,,,,,,,,
,8812,ABC,22/07/2004,001,2023-09-26_17h07.49.785,OS3_Mult_verification,2022.2.4,Win32,60.11783095,,,,,,,,,,,,,,,,space,2.1892,,,,,,,,,,,,,,,,,,right,1,0.9313,0,0,0,0,1,practice,1,2,1 | 2,1,0.05,0.065,congruent,right,,,,,,,,,,,,,,,,,,,,,,,,,,,,,,,,,,,,,,,,,,,,,,,,,,,,,,,,,,,,,,,,,,,,,,,,,,,,,,,,,,,,,,,,,,,,,,,,,,,,,,,,,,,,,,,,,,,,,,,,,,,
,8812,ABC,22/07/2004,001,2023-09-26_17h07.49.785,OS3_Mult_verification,2022.2.4,Win32,60.11783095,,,,,,,,,,,,,,,,,,,,,,,,,,,,,,,,,,,right,1,0.7073,0,1,1,2,1,practice,4,9,4 | 9,5,0.06,0.06,neutral,right,,,,,,,,,,,,,,,,,,,,,,,,,,,,,,,,,,,,,,,,,,,,,,,,,,,,,,,,,,,,,,,,,,,,,,,,,,,,,,,,,,,,,,,,,,,,,,,,,,,,,,,,,,,,,,,,,,,,,,,,,,,
,8812,ABC,22/07/2004,001,2023-09-26_17h07.49.785,OS3_Mult_verification,2022.2.4,Win32,60.11783095,,,,,,,,,,,,,,,,,,,,,,,,,,,,,,,,,,,right,1,0.8516,0,2,2,1,1,practice,7,8,7 | 8,1,0.065,0.05,incongruent,right,,,,,,,,,,,,,,,,,,,,,,,,,,,,,,,,,,,,,,,,,,,,,,,,,,,,,,,,,,,,,,,,,,,,,,,,,,,,,,,,,,,,,,,,,,,,,,,,,,,,,,,,,,,,,,,,,,,,,,,,,,,
,8812,ABC,22/07/2004,001,2023-09-26_17h07.49.785,OS3_Mult_verification,2022.2.4,Win32,60.11783095,,,,,,,,,,,,,,,,,,,,,,,,,,,,,,,,,,,left,1,0.8478,,,,,,magnitude,4,3,4 | 3,1,0.06,0.06,neutral,left,0,0,0,53,1,,,,,,,,,,,,,,,,,,,,,,,,,,,,,,,,,,,,,,,,,,,,,,,,,,,,,,,,,,,,,,,,,,,,,,,,,,,,,,,,,,,,,,,,,,,,,,,,,,,,,,,,,,,,,,,,,,,,,,
,8812,ABC,22/07/2004,001,2023-09-26_17h07.49.785,OS3_Mult_verification,2022.2.4,Win32,60.11783095,,,,,,,,,,,,,,,,,,,,,,,,,,,,,,,,,,,left,1,0.6618,,,,,,magnitude,2,1,2 | 1,1,0.065,0.05,congruent,left,0,1,1,4,1,,,,,,,,,,,,,,,,,,,,,,,,,,,,,,,,,,,,,,,,,,,,,,,,,,,,,,,,,,,,,,,,,,,,,,,,,,,,,,,,,,,,,,,,,,,,,,,,,,,,,,,,,,,,,,,,,,,,,,
,8812,ABC,22/07/2004,001,2023-09-26_17h07.49.785,OS3_Mult_verification,2022.2.4,Win32,60.11783095,,,,,,,,,,,,,,,,,,,,,,,,,,,,,,,,,,,left,1,0.6178,,,,,,magnitude,2,1,2 | 1,1,0.06,0.06,neutral,left,0,2,2,52,1,,,,,,,,,,,,,,,,,,,,,,,,,,,,,,,,,,,,,,,,,,,,,,,,,,,,,,,,,,,,,,,,,,,,,,,,,,,,,,,,,,,,,,,,,,,,,,,,,,,,,,,,,,,,,,,,,,,,,,
,8812,ABC,22/07/2004,001,2023-09-26_17h07.49.785,OS3_Mult_verification,2022.2.4,Win32,60.11783095,,,,,,,,,,,,,,,,,,,,,,,,,,,,,,,,,,,left,1,0.656,,,,,,magnitude,8,3,8 | 3,5,0.05,0.065,incongruent,left,0,3,3,46,1,,,,,,,,,,,,,,,,,,,,,,,,,,,,,,,,,,,,,,,,,,,,,,,,,,,,,,,,,,,,,,,,,,,,,,,,,,,,,,,,,,,,,,,,,,,,,,,,,,,,,,,,,,,,,,,,,,,,,,
,8812,ABC,22/07/2004,001,2023-09-26_17h07.49.785,OS3_Mult_verification,2022.2.4,Win32,60.11783095,,,,,,,,,,,,,,,,,,,,,,,,,,,,,,,,,,,right,1,1.1624,,,,,,magnitude,3,4,3 | 4,1,0.065,0.05,incongruent,right,0,4,4,25,1,,,,,,,,,,,,,,,,,,,,,,,,,,,,,,,,,,,,,,,,,,,,,,,,,,,,,,,,,,,,,,,,,,,,,,,,,,,,,,,,,,,,,,,,,,,,,,,,,,,,,,,,,,,,,,,,,,,,,,
,8812,ABC,22/07/2004,001,2023-09-26_17h07.49.785,OS3_Mult_verification,2022.2.4,Win32,60.11783095,,,,,,,,,,,,,,,,,,,,,,,,,,,,,,,,,,,right,1,0.8334,,,,,,magnitude,2,4,2 | 4,2,0.065,0.05,incongruent,right,0,5,5,33,1,,,,,,,,,,,,,,,,,,,,,,,,,,,,,,,,,,,,,,,,,,,,,,,,,,,,,,,,,,,,,,,,,,,,,,,,,,,,,,,,,,,,,,,,,,,,,,,,,,,,,,,,,,,,,,,,,,,,,,
,8812,ABC,22/07/2004,001,2023-09-26_17h07.49.785,OS3_Mult_verification,2022.2.4,Win32,60.11783095,,,,,,,,,,,,,,,,,,,,,,,,,,,,,,,,,,,right,1,0.8362,,,,,,magnitude,7,9,7 | 9,2,0.065,0.05,incongruent,right,0,6,6,35,1,,,,,,,,,,,,,,,,,,,,,,,,,,,,,,,,,,,,,,,,,,,,,,,,,,,,,,,,,,,,,,,,,,,,,,,,,,,,,,,,,,,,,,,,,,,,,,,,,,,,,,,,,,,,,,,,,,,,,,
,8812,ABC,22/07/2004,001,2023-09-26_17h07.49.785,OS3_Mult_verification,2022.2.4,Win32,60.11783095,,,,,,,,,,,,,,,,,,,,,,,,,,,,,,,,,,,left,1,0.6465,,,,,,magnitude,8,3,8 | 3,5,0.06,0.06,neutral,left,0,7,7,70,1,,,,,,,,,,,,,,,,,,,,,,,,,,,,,,,,,,,,,,,,,,,,,,,,,,,,,,,,,,,,,,,,,,,,,,,,,,,,,,,,,,,,,,,,,,,,,,,,,,,,,,,,,,,,,,,,,,,,,,
,8812,ABC,22/07/2004,001,2023-09-26_17h07.49.785,OS3_Mult_verification,2022.2.4,Win32,60.11783095,,,,,,,,,,,,,,,,,,,,,,,,,,,,,,,,,,,left,1,0.6494,,,,,,magnitude,3,1,3 | 1,2,0.065,0.05,congruent,left,0,8,8,12,1,,,,,,,,,,,,,,,,,,,,,,,,,,,,,,,,,,,,,,,,,,,,,,,,,,,,,,,,,,,,,,,,,,,,,,,,,,,,,,,,,,,,,,,,,,,,,,,,,,,,,,,,,,,,,,,,,,,,,,
,8812,ABC,22/07/2004,001,2023-09-26_17h07.49.785,OS3_Mult_verification,2022.2.4,Win32,60.11783095,,,,,,,,,,,,,,,,,,,,,,,,,,,,,,,,,,,right,1,0.703,,,,,,magnitude,4,9,4 | 9,5,0.06,0.06,neutral,right,0,9,9,67,1,,,,,,,,,,,,,,,,,,,,,,,,,,,,,,,,,,,,,,,,,,,,,,,,,,,,,,,,,,,,,,,,,,,,,,,,,,,,,,,,,,,,,,,,,,,,,,,,,,,,,,,,,,,,,,,,,,,,,,
,8812,ABC,22/07/2004,001,2023-09-26_17h07.49.785,OS3_Mult_verification,2022.2.4,Win32,60.11783095,,,,,,,,,,,,,,,,,,,,,,,,,,,,,,,,,,,left,1,0.7468,,,,,,magnitude,3,1,3 | 1,2,0.05,0.065,incongruent,left,0,10,10,36,1,,,,,,,,,,,,,,,,,,,,,,,,,,,,,,,,,,,,,,,,,,,,,,,,,,,,,,,,,,,,,,,,,,,,,,,,,,,,,,,,,,,,,,,,,,,,,,,,,,,,,,,,,,,,,,,,,,,,,,
,8812,ABC,22/07/2004,001,2023-09-26_17h07.49.785,OS3_Mult_verification,2022.2.4,Win32,60.11783095,,,,,,,,,,,,,,,,,,,,,,,,,,,,,,,,,,,left,1,0.781,,,,,,magnitude,7,6,7 | 6,1,0.05,0.065,incongruent,left,0,11,11,30,1,,,,,,,,,,,,,,,,,,,,,,,,,,,,,,,,,,,,,,,,,,,,,,,,,,,,,,,,,,,,,,,,,,,,,,,,,,,,,,,,,,,,,,,,,,,,,,,,,,,,,,,,,,,,,,,,,,,,,,
,8812,ABC,22/07/2004,001,2023-09-26_17h07.49.785,OS3_Mult_verification,2022.2.4,Win32,60.11783095,,,,,,,,,,,,,,,,,,,,,,,,,,,,,,,,,,,right,1,0.6359,,,,,,magnitude,6,7,6 | 7,1,0.065,0.05,incongruent,right,0,12,12,26,1,,,,,,,,,,,,,,,,,,,,,,,,,,,,,,,,,,,,,,,,,,,,,,,,,,,,,,,,,,,,,,,,,,,,,,,,,,,,,,,,,,,,,,,,,,,,,,,,,,,,,,,,,,,,,,,,,,,,,,
,8812,ABC,22/07/2004,001,2023-09-26_17h07.49.785,OS3_Mult_verification,2022.2.4,Win32,60.11783095,,,,,,,,,,,,,,,,,,,,,,,,,,,,,,,,,,,right,1,0.615,,,,,,magnitude,1,6,1 | 6,5,0.05,0.065,congruent,right,0,13,13,16,1,,,,,,,,,,,,,,,,,,,,,,,,,,,,,,,,,,,,,,,,,,,,,,,,,,,,,,,,,,,,,,,,,,,,,,,,,,,,,,,,,,,,,,,,,,,,,,,,,,,,,,,,,,,,,,,,,,,,,,
,8812,ABC,22/07/2004,001,2023-09-26_17h07.49.785,OS3_Mult_verification,2022.2.4,Win32,60.11783095,,,,,,,,,,,,,,,,,,,,,,,,,,,,,,,,,,,right,1,0.5876,,,,,,magnitude,2,4,2 | 4,2,0.05,0.065,congruent,right,0,14,14,9,1,,,,,,,,,,,,,,,,,,,,,,,,,,,,,,,,,,,,,,,,,,,,,,,,,,,,,,,,,,,,,,,,,,,,,,,,,,,,,,,,,,,,,,,,,,,,,,,,,,,,,,,,,,,,,,,,,,,,,,
,8812,ABC,22/07/2004,001,2023-09-26_17h07.49.785,OS3_Mult_verification,2022.2.4,Win32,60.11783095,,,,,,,,,,,,,,,,,,,,,,,,,,,,,,,,,,,left,1,0.6692,,,,,,magnitude,9,4,9 | 4,5,0.05,0.065,incongruent,left,0,15,15,47,1,,,,,,,,,,,,,,,,,,,,,,,,,,,,,,,,,,,,,,,,,,,,,,,,,,,,,,,,,,,,,,,,,,,,,,,,,,,,,,,,,,,,,,,,,,,,,,,,,,,,,,,,,,,,,,,,,,,,,,
,8812,ABC,22/07/2004,001,2023-09-26_17h07.49.785,OS3_Mult_verification,2022.2.4,Win32,60.11783095,,,,,,,,,,,,,,,,,,,,,,,,,,,,,,,,,,,left,0,0.8462,,,,,,magnitude,8,9,8 | 9,1,0.065,0.05,incongruent,right,0,16,16,27,1,,,,,,,,,,,,,,,,,,,,,,,,,,,,,,,,,,,,,,,,,,,,,,,,,,,,,,,,,,,,,,,,,,,,,,,,,,,,,,,,,,,,,,,,,,,,,,,,,,,,,,,,,,,,,,,,,,,,,,
,8812,ABC,22/07/2004,001,2023-09-26_17h07.49.785,OS3_Mult_verification,2022.2.4,Win32,60.11783095,,,,,,,,,,,,,,,,,,,,,,,,,,,,,,,,,,,right,1,2.1148,,,,,,magnitude,6,7,6 | 7,1,0.06,0.06,neutral,right,0,17,17,50,1,,,,,,,,,,,,,,,,,,,,,,,,,,,,,,,,,,,,,,,,,,,,,,,,,,,,,,,,,,,,,,,,,,,,,,,,,,,,,,,,,,,,,,,,,,,,,,,,,,,,,,,,,,,,,,,,,,,,,,
,8812,ABC,22/07/2004,001,2023-09-26_17h07.49.785,OS3_Mult_verification,2022.2.4,Win32,60.11783095,,,,,,,,,,,,,,,,,,,,,,,,,,,,,,,,,,,left,1,0.9799,,,,,,magnitude,8,3,8 | 3,5,0.065,0.05,congruent,left,0,18,18,22,1,,,,,,,,,,,,,,,,,,,,,,,,,,,,,,,,,,,,,,,,,,,,,,,,,,,,,,,,,,,,,,,,,,,,,,,,,,,,,,,,,,,,,,,,,,,,,,,,,,,,,,,,,,,,,,,,,,,,,,
,8812,ABC,22/07/2004,001,2023-09-26_17h07.49.785,OS3_Mult_verification,2022.2.4,Win32,60.11783095,,,,,,,,,,,,,,,,,,,,,,,,,,,,,,,,,,,left,1,0.834,,,,,,magnitude,8,6,8 | 6,2,0.065,0.05,congruent,left,0,19,19,14,1,,,,,,,,,,,,,,,,,,,,,,,,,,,,,,,,,,,,,,,,,,,,,,,,,,,,,,,,,,,,,,,,,,,,,,,,,,,,,,,,,,,,,,,,,,,,,,,,,,,,,,,,,,,,,,,,,,,,,,
,8812,ABC,22/07/2004,001,2023-09-26_17h07.49.785,OS3_Mult_verification,2022.2.4,Win32,60.11783095,,,,,,,,,,,,,,,,,,,,,,,,,,,,,,,,,,,left,1,0.7131,,,,,,magnitude,4,2,4 | 2,2,0.065,0.05,congruent,left,0,20,20,13,1,,,,,,,,,,,,,,,,,,,,,,,,,,,,,,,,,,,,,,,,,,,,,,,,,,,,,,,,,,,,,,,,,,,,,,,,,,,,,,,,,,,,,,,,,,,,,,,,,,,,,,,,,,,,,,,,,,,,,,
,8812,ABC,22/07/2004,001,2023-09-26_17h07.49.785,OS3_Mult_verification,2022.2.4,Win32,60.11783095,,,,,,,,,,,,,,,,,,,,,,,,,,,,,,,,,,,left,1,0.8162,,,,,,magnitude,7,6,7 | 6,1,0.06,0.06,neutral,left,0,21,21,54,1,,,,,,,,,,,,,,,,,,,,,,,,,,,,,,,,,,,,,,,,,,,,,,,,,,,,,,,,,,,,,,,,,,,,,,,,,,,,,,,,,,,,,,,,,,,,,,,,,,,,,,,,,,,,,,,,,,,,,,
,8812,ABC,22/07/2004,001,2023-09-26_17h07.49.785,OS3_Mult_verification,2022.2.4,Win32,60.11783095,,,,,,,,,,,,,,,,,,,,,,,,,,,,,,,,,,,left,1,0.6965,,,,,,magnitude,9,4,9 | 4,5,0.06,0.06,neutral,left,0,22,22,71,1,,,,,,,,,,,,,,,,,,,,,,,,,,,,,,,,,,,,,,,,,,,,,,,,,,,,,,,,,,,,,,,,,,,,,,,,,,,,,,,,,,,,,,,,,,,,,,,,,,,,,,,,,,,,,,,,,,,,,,
,8812,ABC,22/07/2004,001,2023-09-26_17h07.49.785,OS3_Mult_verification,2022.2.4,Win32,60.11783095,,,,,,,,,,,,,,,,,,,,,,,,,,,,,,,,,,,right,1,0.7471,,,,,,magnitude,3,8,3 | 8,5,0.065,0.05,incongruent,right,0,23,23,42,1,,,,,,,,,,,,,,,,,,,,,,,,,,,,,,,,,,,,,,,,,,,,,,,,,,,,,,,,,,,,,,,,,,,,,,,,,,,,,,,,,,,,,,,,,,,,,,,,,,,,,,,,,,,,,,,,,,,,,,
,8812,ABC,22/07/2004,001,2023-09-26_17h07.49.785,OS3_Mult_verification,2022.2.4,Win32,60.11783095,,,,,,,,,,,,,,,,,,,,,,,,,,,,,,,,,,,left,1,0.7487,,,,,,magnitude,7,2,7 | 2,5,0.06,0.06,neutral,left,0,24,24,69,1,,,,,,,,,,,,,,,,,,,,,,,,,,,,,,,,,,,,,,,,,,,,,,,,,,,,,,,,,,,,,,,,,,,,,,,,,,,,,,,,,,,,,,,,,,,,,,,,,,,,,,,,,,,,,,,,,,,,,,
,8812,ABC,22/07/2004,001,2023-09-26_17h07.49.785,OS3_Mult_verification,2022.2.4,Win32,60.11783095,,,,,,,,,,,,,,,,,,,,,,,,,,,,,,,,,,,left,1,0.7985,,,,,,magnitude,4,2,4 | 2,2,0.05,0.065,incongruent,left,0,25,25,37,1,,,,,,,,,,,,,,,,,,,,,,,,,,,,,,,,,,,,,,,,,,,,,,,,,,,,,,,,,,,,,,,,,,,,,,,,,,,,,,,,,,,,,,,,,,,,,,,,,,,,,,,,,,,,,,,,,,,,,,
,8812,ABC,22/07/2004,001,2023-09-26_17h07.49.785,OS3_Mult_verification,2022.2.4,Win32,60.11783095,,,,,,,,,,,,,,,,,,,,,,,,,,,,,,,,,,,right,1,0.7079,,,,,,magnitude,6,8,6 | 8,2,0.05,0.065,congruent,right,0,26,26,10,1,,,,,,,,,,,,,,,,,,,,,,,,,,,,,,,,,,,,,,,,,,,,,,,,,,,,,,,,,,,,,,,,,,,,,,,,,,,,,,,,,,,,,,,,,,,,,,,,,,,,,,,,,,,,,,,,,,,,,,
,8812,ABC,22/07/2004,001,2023-09-26_17h07.49.785,OS3_Mult_verification,2022.2.4,Win32,60.11783095,,,,,,,,,,,,,,,,,,,,,,,,,,,,,,,,,,,left,0,0.6795,,,,,,magnitude,1,2,1 | 2,1,0.06,0.06,neutral,right,0,27,27,48,1,,,,,,,,,,,,,,,,,,,,,,,,,,,,,,,,,,,,,,,,,,,,,,,,,,,,,,,,,,,,,,,,,,,,,,,,,,,,,,,,,,,,,,,,,,,,,,,,,,,,,,,,,,,,,,,,,,,,,,
,8812,ABC,22/07/2004,001,2023-09-26_17h07.49.785,OS3_Mult_verification,2022.2.4,Win32,60.11783095,,,,,,,,,,,,,,,,,,,,,,,,,,,,,,,,,,,left,1,0.7815,,,,,,magnitude,9,4,9 | 4,5,0.065,0.05,congruent,left,0,28,28,23,1,,,,,,,,,,,,,,,,,,,,,,,,,,,,,,,,,,,,,,,,,,,,,,,,,,,,,,,,,,,,,,,,,,,,,,,,,,,,,,,,,,,,,,,,,,,,,,,,,,,,,,,,,,,,,,,,,,,,,,
,8812,ABC,22/07/2004,001,2023-09-26_17h07.49.785,OS3_Mult_verification,2022.2.4,Win32,60.11783095,,,,,,,,,,,,,,,,,,,,,,,,,,,,,,,,,,,right,1,0.8467,,,,,,magnitude,4,9,4 | 9,5,0.05,0.065,congruent,right,0,29,29,19,1,,,,,,,,,,,,,,,,,,,,,,,,,,,,,,,,,,,,,,,,,,,,,,,,,,,,,,,,,,,,,,,,,,,,,,,,,,,,,,,,,,,,,,,,,,,,,,,,,,,,,,,,,,,,,,,,,,,,,,
,8812,ABC,22/07/2004,001,2023-09-26_17h07.49.785,OS3_Mult_verification,2022.2.4,Win32,60.11783095,,,,,,,,,,,,,,,,,,,,,,,,,,,,,,,,,,,left,1,0.7556,,,,,,magnitude,9,8,9 | 8,1,0.05,0.065,incongruent,left,0,30,30,31,1,,,,,,,,,,,,,,,,,,,,,,,,,,,,,,,,,,,,,,,,,,,,,,,,,,,,,,,,,,,,,,,,,,,,,,,,,,,,,,,,,,,,,,,,,,,,,,,,,,,,,,,,,,,,,,,,,,,,,,
,8812,ABC,22/07/2004,001,2023-09-26_17h07.49.785,OS3_Mult_verification,2022.2.4,Win32,60.11783095,,,,,,,,,,,,,,,,,,,,,,,,,,,,,,,,,,,right,1,0.7152,,,,,,magnitude,3,4,3 | 4,1,0.05,0.065,congruent,right,0,31,31,1,1,,,,,,,,,,,,,,,,,,,,,,,,,,,,,,,,,,,,,,,,,,,,,,,,,,,,,,,,,,,,,,,,,,,,,,,,,,,,,,,,,,,,,,,,,,,,,,,,,,,,,,,,,,,,,,,,,,,,,,
,8812,ABC,22/07/2004,001,2023-09-26_17h07.49.785,OS3_Mult_verification,2022.2.4,Win32,60.11783095,,,,,,,,,,,,,,,,,,,,,,,,,,,,,,,,,,,right,1,1.1364,,,,,,magnitude,7,9,7 | 9,2,0.06,0.06,neutral,right,0,32,32,59,1,,,,,,,,,,,,,,,,,,,,,,,,,,,,,,,,,,,,,,,,,,,,,,,,,,,,,,,,,,,,,,,,,,,,,,,,,,,,,,,,,,,,,,,,,,,,,,,,,,,,,,,,,,,,,,,,,,,,,,
,8812,ABC,22/07/2004,001,2023-09-26_17h07.49.785,OS3_Mult_verification,2022.2.4,Win32,60.11783095,,,,,,,,,,,,,,,,,,,,,,,,,,,,,,,,,,,left,1,0.6322,,,,,,magnitude,6,1,6 | 1,5,0.065,0.05,congruent,left,0,33,33,20,1,,,,,,,,,,,,,,,,,,,,,,,,,,,,,,,,,,,,,,,,,,,,,,,,,,,,,,,,,,,,,,,,,,,,,,,,,,,,,,,,,,,,,,,,,,,,,,,,,,,,,,,,,,,,,,,,,,,,,,
,8812,ABC,22/07/2004,001,2023-09-26_17h07.49.785,OS3_Mult_verification,2022.2.4,Win32,60.11783095,,,,,,,,,,,,,,,,,,,,,,,,,,,,,,,,,,,right,1,0.7212,,,,,,magnitude,1,3,1 | 3,2,0.06,0.06,neutral,right,0,34,34,56,1,,,,,,,,,,,,,,,,,,,,,,,,,,,,,,,,,,,,,,,,,,,,,,,,,,,,,,,,,,,,,,,,,,,,,,,,,,,,,,,,,,,,,,,,,,,,,,,,,,,,,,,,,,,,,,,,,,,,,,
,8812,ABC,22/07/2004,001,2023-09-26_17h07.49.785,OS3_Mult_verification,2022.2.4,Win32,60.11783095,,,,,,,,,,,,,,,,,,,,,,,,,,,,,,,,,,,right,1,0.8,,,,,,magnitude,6,8,6 | 8,2,0.065,0.05,incongruent,right,0,35,35,34,1,,,,,,,,,,,,,,,,,,,,,,,,,,,,,,,,,,,,,,,,,,,,,,,,,,,,,,,,,,,,,,,,,,,,,,,,,,,,,,,,,,,,,,,,,,,,,,,,,,,,,,,,,,,,,,,,,,,,,,
,8812,ABC,22/07/2004,001,2023-09-26_17h07.49.785,OS3_Mult_verification,2022.2.4,Win32,60.11783095,,,,,,,,,,,,,,,,,,,,,,,,,,,,,,,,,,,right,1,0.7991,,,,,,magnitude,1,2,1 | 2,1,0.065,0.05,incongruent,right,0,36,36,24,1,,,,,,,,,,,,,,,,,,,,,,,,,,,,,,,,,,,,,,,,,,,,,,,,,,,,,,,,,,,,,,,,,,,,,,,,,,,,,,,,,,,,,,,,,,,,,,,,,,,,,,,,,,,,,,,,,,,,,,
,8812,ABC,22/07/2004,001,2023-09-26_17h07.49.785,OS3_Mult_verification,2022.2.4,Win32,60.11783095,,,,,,,,,,,,,,,,,,,,,,,,,,,,,,,,,,,right,1,0.781,,,,,,magnitude,7,9,7 | 9,2,0.05,0.065,congruent,right,0,37,37,11,1,,,,,,,,,,,,,,,,,,,,,,,,,,,,,,,,,,,,,,,,,,,,,,,,,,,,,,,,,,,,,,,,,,,,,,,,,,,,,,,,,,,,,,,,,,,,,,,,,,,,,,,,,,,,,,,,,,,,,,
,8812,ABC,22/07/2004,001,2023-09-26_17h07.49.785,OS3_Mult_verification,2022.2.4,Win32,60.11783095,,,,,,,,,,,,,,,,,,,,,,,,,,,,,,,,,,,right,1,0.7379,,,,,,magnitude,8,9,8 | 9,1,0.06,0.06,neutral,right,0,38,38,51,1,,,,,,,,,,,,,,,,,,,,,,,,,,,,,,,,,,,,,,,,,,,,,,,,,,,,,,,,,,,,,,,,,,,,,,,,,,,,,,,,,,,,,,,,,,,,,,,,,,,,,,,,,,,,,,,,,,,,,,
,8812,ABC,22/07/2004,001,2023-09-26_17h07.49.785,OS3_Mult_verification,2022.2.4,Win32,60.11783095,,,,,,,,,,,,,,,,,,,,,,,,,,,,,,,,,,,right,1,0.6912,,,,,,magnitude,1,6,1 | 6,5,0.06,0.06,neutral,right,0,39,39,64,1,,,,,,,,,,,,,,,,,,,,,,,,,,,,,,,,,,,,,,,,,,,,,,,,,,,,,,,,,,,,,,,,,,,,,,,,,,,,,,,,,,,,,,,,,,,,,,,,,,,,,,,,,,,,,,,,,,,,,,
,8812,ABC,22/07/2004,001,2023-09-26_17h07.49.785,OS3_Mult_verification,2022.2.4,Win32,60.11783095,,,,,,,,,,,,,,,,,,,,,,,,,,,,,,,,,,,left,1,0.7797,,,,,,magnitude,2,1,2 | 1,1,0.05,0.065,incongruent,left,0,40,40,28,1,,,,,,,,,,,,,,,,,,,,,,,,,,,,,,,,,,,,,,,,,,,,,,,,,,,,,,,,,,,,,,,,,,,,,,,,,,,,,,,,,,,,,,,,,,,,,,,,,,,,,,,,,,,,,,,,,,,,,,
,8812,ABC,22/07/2004,001,2023-09-26_17h07.49.785,OS3_Mult_verification,2022.2.4,Win32,60.11783095,,,,,,,,,,,,,,,,,,,,,,,,,,,,,,,,,,,right,1,0.7469,,,,,,magnitude,3,8,3 | 8,5,0.05,0.065,congruent,right,0,41,41,18,1,,,,,,,,,,,,,,,,,,,,,,,,,,,,,,,,,,,,,,,,,,,,,,,,,,,,,,,,,,,,,,,,,,,,,,,,,,,,,,,,,,,,,,,,,,,,,,,,,,,,,,,,,,,,,,,,,,,,,,
,8812,ABC,22/07/2004,001,2023-09-26_17h07.49.785,OS3_Mult_verification,2022.2.4,Win32,60.11783095,,,,,,,,,,,,,,,,,,,,,,,,,,,,,,,,,,,right,1,0.7257,,,,,,magnitude,3,8,3 | 8,5,0.06,0.06,neutral,right,0,42,42,66,1,,,,,,,,,,,,,,,,,,,,,,,,,,,,,,,,,,,,,,,,,,,,,,,,,,,,,,,,,,,,,,,,,,,,,,,,,,,,,,,,,,,,,,,,,,,,,,,,,,,,,,,,,,,,,,,,,,,,,,
,8812,ABC,22/07/2004,001,2023-09-26_17h07.49.785,OS3_Mult_verification,2022.2.4,Win32,60.11783095,,,,,,,,,,,,,,,,,,,,,,,,,,,,,,,,,,,left,1,1.3571,,,,,,magnitude,7,6,7 | 6,1,0.065,0.05,congruent,left,0,43,43,6,1,,,,,,,,,,,,,,,,,,,,,,,,,,,,,,,,,,,,,,,,,,,,,,,,,,,,,,,,,,,,,,,,,,,,,,,,,,,,,,,,,,,,,,,,,,,,,,,,,,,,,,,,,,,,,,,,,,,,,,
,8812,ABC,22/07/2004,001,2023-09-26_17h07.49.785,OS3_Mult_verification,2022.2.4,Win32,60.11783095,,,,,,,,,,,,,,,,,,,,,,,,,,,,,,,,,,,right,1,0.9503,,,,,,magnitude,3,4,3 | 4,1,0.06,0.06,neutral,right,0,44,44,49,1,,,,,,,,,,,,,,,,,,,,,,,,,,,,,,,,,,,,,,,,,,,,,,,,,,,,,,,,,,,,,,,,,,,,,,,,,,,,,,,,,,,,,,,,,,,,,,,,,,,,,,,,,,,,,,,,,,,,,,
,8812,ABC,22/07/2004,001,2023-09-26_17h07.49.785,OS3_Mult_verification,2022.2.4,Win32,60.11783095,,,,,,,,,,,,,,,,,,,,,,,,,,,,,,,,,,,left,1,0.5642,,,,,,magnitude,9,8,9 | 8,1,0.06,0.06,neutral,left,0,45,45,55,1,,,,,,,,,,,,,,,,,,,,,,,,,,,,,,,,,,,,,,,,,,,,,,,,,,,,,,,,,,,,,,,,,,,,,,,,,,,,,,,,,,,,,,,,,,,,,,,,,,,,,,,,,,,,,,,,,,,,,,
,8812,ABC,22/07/2004,001,2023-09-26_17h07.49.785,OS3_Mult_verification,2022.2.4,Win32,60.11783095,,,,,,,,,,,,,,,,,,,,,,,,,,,,,,,,,,,left,1,0.7726,,,,,,magnitude,8,6,8 | 6,2,0.06,0.06,neutral,left,0,46,46,62,1,,,,,,,,,,,,,,,,,,,,,,,,,,,,,,,,,,,,,,,,,,,,,,,,,,,,,,,,,,,,,,,,,,,,,,,,,,,,,,,,,,,,,,,,,,,,,,,,,,,,,,,,,,,,,,,,,,,,,,
,8812,ABC,22/07/2004,001,2023-09-26_17h07.49.785,OS3_Mult_verification,2022.2.4,Win32,60.11783095,,,,,,,,,,,,,,,,,,,,,,,,,,,,,,,,,,,left,1,0.5824,,,,,,magnitude,9,8,9 | 8,1,0.065,0.05,congruent,left,0,47,47,7,1,,,,,,,,,,,,,,,,,,,,,,,,,,,,,,,,,,,,,,,,,,,,,,,,,,,,,,,,,,,,,,,,,,,,,,,,,,,,,,,,,,,,,,,,,,,,,,,,,,,,,,,,,,,,,,,,,,,,,,
,8812,ABC,22/07/2004,001,2023-09-26_17h07.49.785,OS3_Mult_verification,2022.2.4,Win32,60.11783095,,,,,,,,,,,,,,,,,,,,,,,,,,,,,,,,,,,left,1,0.6669,,,,,,magnitude,6,1,6 | 1,5,0.06,0.06,neutral,left,0,48,48,68,1,,,,,,,,,,,,,,,,,,,,,,,,,,,,,,,,,,,,,,,,,,,,,,,,,,,,,,,,,,,,,,,,,,,,,,,,,,,,,,,,,,,,,,,,,,,,,,,,,,,,,,,,,,,,,,,,,,,,,,
,8812,ABC,22/07/2004,001,2023-09-26_17h07.49.785,OS3_Mult_verification,2022.2.4,Win32,60.11783095,,,,,,,,,,,,,,,,,,,,,,,,,,,,,,,,,,,right,1,0.6199,,,,,,magnitude,1,6,1 | 6,5,0.065,0.05,incongruent,right,0,49,49,40,1,,,,,,,,,,,,,,,,,,,,,,,,,,,,,,,,,,,,,,,,,,,,,,,,,,,,,,,,,,,,,,,,,,,,,,,,,,,,,,,,,,,,,,,,,,,,,,,,,,,,,,,,,,,,,,,,,,,,,,
,8812,ABC,22/07/2004,001,2023-09-26_17h07.49.785,OS3_Mult_verification,2022.2.4,Win32,60.11783095,,,,,,,,,,,,,,,,,,,,,,,,,,,,,,,,,,,right,1,0.841,,,,,,magnitude,2,7,2 | 7,5,0.065,0.05,incongruent,right,0,50,50,41,1,,,,,,,,,,,,,,,,,,,,,,,,,,,,,,,,,,,,,,,,,,,,,,,,,,,,,,,,,,,,,,,,,,,,,,,,,,,,,,,,,,,,,,,,,,,,,,,,,,,,,,,,,,,,,,,,,,,,,,
,8812,ABC,22/07/2004,001,2023-09-26_17h07.49.785,OS3_Mult_verification,2022.2.4,Win32,60.11783095,,,,,,,,,,,,,,,,,,,,,,,,,,,,,,,,,,,left,1,0.6702,,,,,,magnitude,9,7,9 | 7,2,0.05,0.065,incongruent,left,0,51,51,39,1,,,,,,,,,,,,,,,,,,,,,,,,,,,,,,,,,,,,,,,,,,,,,,,,,,,,,,,,,,,,,,,,,,,,,,,,,,,,,,,,,,,,,,,,,,,,,,,,,,,,,,,,,,,,,,,,,,,,,,
,8812,ABC,22/07/2004,001,2023-09-26_17h07.49.785,OS3_Mult_verification,2022.2.4,Win32,60.11783095,,,,,,,,,,,,,,,,,,,,,,,,,,,,,,,,,,,left,1,0.6201,,,,,,magnitude,6,1,6 | 1,5,0.05,0.065,incongruent,left,0,52,52,44,1,,,,,,,,,,,,,,,,,,,,,,,,,,,,,,,,,,,,,,,,,,,,,,,,,,,,,,,,,,,,,,,,,,,,,,,,,,,,,,,,,,,,,,,,,,,,,,,,,,,,,,,,,,,,,,,,,,,,,,
,8812,ABC,22/07/2004,001,2023-09-26_17h07.49.785,OS3_Mult_verification,2022.2.4,Win32,60.11783095,,,,,,,,,,,,,,,,,,,,,,,,,,,,,,,,,,,left,1,1.0531,,,,,,magnitude,8,6,8 | 6,2,0.05,0.065,incongruent,left,0,53,53,38,1,,,,,,,,,,,,,,,,,,,,,,,,,,,,,,,,,,,,,,,,,,,,,,,,,,,,,,,,,,,,,,,,,,,,,,,,,,,,,,,,,,,,,,,,,,,,,,,,,,,,,,,,,,,,,,,,,,,,,,
,8812,ABC,22/07/2004,001,2023-09-26_17h07.49.785,OS3_Mult_verification,2022.2.4,Win32,60.11783095,,,,,,,,,,,,,,,,,,,,,,,,,,,,,,,,,,,right,1,0.9459,,,,,,magnitude,4,9,4 | 9,5,0.065,0.05,incongruent,right,0,54,54,43,1,,,,,,,,,,,,,,,,,,,,,,,,,,,,,,,,,,,,,,,,,,,,,,,,,,,,,,,,,,,,,,,,,,,,,,,,,,,,,,,,,,,,,,,,,,,,,,,,,,,,,,,,,,,,,,,,,,,,,,
,8812,ABC,22/07/2004,001,2023-09-26_17h07.49.785,OS3_Mult_verification,2022.2.4,Win32,60.11783095,,,,,,,,,,,,,,,,,,,,,,,,,,,,,,,,,,,right,1,0.712,,,,,,magnitude,2,7,2 | 7,5,0.06,0.06,neutral,right,0,55,55,65,1,,,,,,,,,,,,,,,,,,,,,,,,,,,,,,,,,,,,,,,,,,,,,,,,,,,,,,,,,,,,,,,,,,,,,,,,,,,,,,,,,,,,,,,,,,,,,,,,,,,,,,,,,,,,,,,,,,,,,,
,8812,ABC,22/07/2004,001,2023-09-26_17h07.49.785,OS3_Mult_verification,2022.2.4,Win32,60.11783095,,,,,,,,,,,,,,,,,,,,,,,,,,,,,,,,,,,left,1,0.6318,,,,,,magnitude,7,2,7 | 2,5,0.065,0.05,congruent,left,0,56,56,21,1,,,,,,,,,,,,,,,,,,,,,,,,,,,,,,,,,,,,,,,,,,,,,,,,,,,,,,,,,,,,,,,,,,,,,,,,,,,,,,,,,,,,,,,,,,,,,,,,,,,,,,,,,,,,,,,,,,,,,,
,8812,ABC,22/07/2004,001,2023-09-26_17h07.49.785,OS3_Mult_verification,2022.2.4,Win32,60.11783095,,,,,,,,,,,,,,,,,,,,,,,,,,,,,,,,,,,right,1,0.6492,,,,,,magnitude,8,9,8 | 9,1,0.05,0.065,congruent,right,0,57,57,3,1,,,,,,,,,,,,,,,,,,,,,,,,,,,,,,,,,,,,,,,,,,,,,,,,,,,,,,,,,,,,,,,,,,,,,,,,,,,,,,,,,,,,,,,,,,,,,,,,,,,,,,,,,,,,,,,,,,,,,,
,8812,ABC,22/07/2004,001,2023-09-26_17h07.49.785,OS3_Mult_verification,2022.2.4,Win32,60.11783095,,,,,,,,,,,,,,,,,,,,,,,,,,,,,,,,,,,left,1,0.7047,,,,,,magnitude,4,2,4 | 2,2,0.06,0.06,neutral,left,0,58,58,61,1,,,,,,,,,,,,,,,,,,,,,,,,,,,,,,,,,,,,,,,,,,,,,,,,,,,,,,,,,,,,,,,,,,,,,,,,,,,,,,,,,,,,,,,,,,,,,,,,,,,,,,,,,,,,,,,,,,,,,,
,8812,ABC,22/07/2004,001,2023-09-26_17h07.49.785,OS3_Mult_verification,2022.2.4,Win32,60.11783095,,,,,,,,,,,,,,,,,,,,,,,,,,,,,,,,,,,right,1,0.6549,,,,,,magnitude,1,3,1 | 3,2,0.065,0.05,incongruent,right,0,59,59,32,1,,,,,,,,,,,,,,,,,,,,,,,,,,,,,,,,,,,,,,,,,,,,,,,,,,,,,,,,,,,,,,,,,,,,,,,,,,,,,,,,,,,,,,,,,,,,,,,,,,,,,,,,,,,,,,,,,,,,,,
,8812,ABC,22/07/2004,001,2023-09-26_17h07.49.785,OS3_Mult_verification,2022.2.4,Win32,60.11783095,,,,,,,,,,,,,,,,,,,,,,,,,,,,,,,,,,,left,1,0.5814,,,,,,magnitude,4,3,4 | 3,1,0.065,0.05,congruent,left,0,60,60,5,1,,,,,,,,,,,,,,,,,,,,,,,,,,,,,,,,,,,,,,,,,,,,,,,,,,,,,,,,,,,,,,,,,,,,,,,,,,,,,,,,,,,,,,,,,,,,,,,,,,,,,,,,,,,,,,,,,,,,,,
,8812,ABC,22/07/2004,001,2023-09-26_17h07.49.785,OS3_Mult_verification,2022.2.4,Win32,60.11783095,,,,,,,,,,,,,,,,,,,,,,,,,,,,,,,,,,,left,1,0.6839,,,,,,magnitude,7,2,7 | 2,5,0.05,0.065,incongruent,left,0,61,61,45,1,,,,,,,,,,,,,,,,,,,,,,,,,,,,,,,,,,,,,,,,,,,,,,,,,,,,,,,,,,,,,,,,,,,,,,,,,,,,,,,,,,,,,,,,,,,,,,,,,,,,,,,,,,,,,,,,,,,,,,
,8812,ABC,22/07/2004,001,2023-09-26_17h07.49.785,OS3_Mult_verification,2022.2.4,Win32,60.11783095,,,,,,,,,,,,,,,,,,,,,,,,,,,,,,,,,,,right,1,0.6054,,,,,,magnitude,1,3,1 | 3,2,0.05,0.065,congruent,right,0,62,62,8,1,,,,,,,,,,,,,,,,,,,,,,,,,,,,,,,,,,,,,,,,,,,,,,,,,,,,,,,,,,,,,,,,,,,,,,,,,,,,,,,,,,,,,,,,,,,,,,,,,,,,,,,,,,,,,,,,,,,,,,
,8812,ABC,22/07/2004,001,2023-09-26_17h07.49.785,OS3_Mult_verification,2022.2.4,Win32,60.11783095,,,,,,,,,,,,,,,,,,,,,,,,,,,,,,,,,,,left,1,0.6468,,,,,,magnitude,9,7,9 | 7,2,0.06,0.06,neutral,left,0,63,63,63,1,,,,,,,,,,,,,,,,,,,,,,,,,,,,,,,,,,,,,,,,,,,,,,,,,,,,,,,,,,,,,,,,,,,,,,,,,,,,,,,,,,,,,,,,,,,,,,,,,,,,,,,,,,,,,,,,,,,,,,
,8812,ABC,22/07/2004,001,2023-09-26_17h07.49.785,OS3_Mult_verification,2022.2.4,Win32,60.11783095,,,,,,,,,,,,,,,,,,,,,,,,,,,,,,,,,,,left,1,0.6801,,,,,,magnitude,4,3,4 | 3,1,0.05,0.065,incongruent,left,0,64,64,29,1,,,,,,,,,,,,,,,,,,,,,,,,,,,,,,,,,,,,,,,,,,,,,,,,,,,,,,,,,,,,,,,,,,,,,,,,,,,,,,,,,,,,,,,,,,,,,,,,,,,,,,,,,,,,,,,,,,,,,,
,8812,ABC,22/07/2004,001,2023-09-26_17h07.49.785,OS3_Mult_verification,2022.2.4,Win32,60.11783095,,,,,,,,,,,,,,,,,,,,,,,,,,,,,,,,,,,right,1,0.6309,,,,,,magnitude,2,7,2 | 7,5,0.05,0.065,congruent,right,0,65,65,17,1,,,,,,,,,,,,,,,,,,,,,,,,,,,,,,,,,,,,,,,,,,,,,,,,,,,,,,,,,,,,,,,,,,,,,,,,,,,,,,,,,,,,,,,,,,,,,,,,,,,,,,,,,,,,,,,,,,,,,,
,8812,ABC,22/07/2004,001,2023-09-26_17h07.49.785,OS3_Mult_verification,2022.2.4,Win32,60.11783095,,,,,,,,,,,,,,,,,,,,,,,,,,,,,,,,,,,left,1,0.6462,,,,,,magnitude,3,1,3 | 1,2,0.06,0.06,neutral,left,0,66,66,60,1,,,,,,,,,,,,,,,,,,,,,,,,,,,,,,,,,,,,,,,,,,,,,,,,,,,,,,,,,,,,,,,,,,,,,,,,,,,,,,,,,,,,,,,,,,,,,,,,,,,,,,,,,,,,,,,,,,,,,,
,8812,ABC,22/07/2004,001,2023-09-26_17h07.49.785,OS3_Mult_verification,2022.2.4,Win32,60.11783095,,,,,,,,,,,,,,,,,,,,,,,,,,,,,,,,,,,right,1,0.599,,,,,,magnitude,2,4,2 | 4,2,0.06,0.06,neutral,right,0,67,67,57,1,,,,,,,,,,,,,,,,,,,,,,,,,,,,,,,,,,,,,,,,,,,,,,,,,,,,,,,,,,,,,,,,,,,,,,,,,,,,,,,,,,,,,,,,,,,,,,,,,,,,,,,,,,,,,,,,,,,,,,
,8812,ABC,22/07/2004,001,2023-09-26_17h07.49.785,OS3_Mult_verification,2022.2.4,Win32,60.11783095,,,,,,,,,,,,,,,,,,,,,,,,,,,,,,,,,,,right,1,0.6045,,,,,,magnitude,1,2,1 | 2,1,0.05,0.065,congruent,right,0,68,68,0,1,,,,,,,,,,,,,,,,,,,,,,,,,,,,,,,,,,,,,,,,,,,,,,,,,,,,,,,,,,,,,,,,,,,,,,,,,,,,,,,,,,,,,,,,,,,,,,,,,,,,,,,,,,,,,,,,,,,,,,
,8812,ABC,22/07/2004,001,2023-09-26_17h07.49.785,OS3_Mult_verification,2022.2.4,Win32,60.11783095,,,,,,,,,,,,,,,,,,,,,,,,,,,,,,,,,,,right,1,0.6522,,,,,,magnitude,6,8,6 | 8,2,0.06,0.06,neutral,right,0,69,69,58,1,,,,,,,,,,,,,,,,,,,,,,,,,,,,,,,,,,,,,,,,,,,,,,,,,,,,,,,,,,,,,,,,,,,,,,,,,,,,,,,,,,,,,,,,,,,,,,,,,,,,,,,,,,,,,,,,,,,,,,
,8812,ABC,22/07/2004,001,2023-09-26_17h07.49.785,OS3_Mult_verification,2022.2.4,Win32,60.11783095,,,,,,,,,,,,,,,,,,,,,,,,,,,,,,,,,,,left,1,0.5908,,,,,,magnitude,9,7,9 | 7,2,0.065,0.05,congruent,left,0,70,70,15,1,,,,,,,,,,,,,,,,,,,,,,,,,,,,,,,,,,,,,,,,,,,,,,,,,,,,,,,,,,,,,,,,,,,,,,,,,,,,,,,,,,,,,,,,,,,,,,,,,,,,,,,,,,,,,,,,,,,,,,
,8812,ABC,22/07/2004,001,2023-09-26_17h07.49.785,OS3_Mult_verification,2022.2.4,Win32,60.11783095,,,,,,,,,,,,,,,,,,,,,,,,,,,,,,,,,,,right,1,0.5644,,,,,,magnitude,6,7,6 | 7,1,0.05,0.065,congruent,right,0,71,71,2,1,,,,,,,,,,,,,,,,,,,,,,,,,,,,,,,,,,,,,,,,,,,,,,,,,,,,,,,,,,,,,,,,,,,,,,,,,,,,,,,,,,,,,,,,,,,,,,,,,,,,,,,,,,,,,,,,,,,,,,
,8812,ABC,22/07/2004,001,2023-09-26_17h07.49.785,OS3_Mult_verification,2022.2.4,Win32,60.11783095,,,,,,,,,,,,,,,,,,,,,,,,,,,,,,,,,,,,,,,,,,,,,,,,,,,,,,,,,0,0,0,0,1,stroop_stim/magnitude.xlsx,stroop_stim/prac_magnitude.xlsx,NUMERICALLY larger (larger coefficient).,images/numericallyLarger.png,,,,,,,,,,,,,,,,,,,,,,,,,,,,,,,,,,,,,,,,,,,,,,,,,,,,,,,,,,,,,,,,,,,,,,,,,,,,,,,,,,,,,,,,,,,,,,,,,,,,,,,,,,,,,
,8812,ABC,22/07/2004,001,2023-09-26_17h07.49.785,OS3_Mult_verification,2022.2.4,Win32,60.11783095,,,,,,,,,,,,,,,,space,0.6867,,,,,,,,,,,,,,,,,,right,1,1.2888,0,0,0,2,1,practice,9,9,9 | 9,0,0.05,0.065,neutral,right,,,,,,,,,,,,,,,,,,,,,,,,,,,,,,,,,,,,,,,,,,,,,,,,,,,,,,,,,,,,,,,,,,,,,,,,,,,,,,,,,,,,,,,,,,,,,,,,,,,,,,,,,,,,,,,,,,,,,,,,,,,
,8812,ABC,22/07/2004,001,2023-09-26_17h07.49.785,OS3_Mult_verification,2022.2.4,Win32,60.11783095,,,,,,,,,,,,,,,,,,,,,,,,,,,,,,,,,,,left,0,1.196,0,1,1,1,1,practice,4,3,4 | 3,1,0.05,0.065,incongruent,right,,,,,,,,,,,,,,,,,,,,,,,,,,,,,,,,,,,,,,,,,,,,,,,,,,,,,,,,,,,,,,,,,,,,,,,,,,,,,,,,,,,,,,,,,,,,,,,,,,,,,,,,,,,,,,,,,,,,,,,,,,,
,8812,ABC,22/07/2004,001,2023-09-26_17h07.49.785,OS3_Mult_verification,2022.2.4,Win32,60.11783095,,,,,,,,,,,,,,,,,,,,,,,,,,,,,,,,,,,left,1,0.8361,0,2,2,0,1,practice,9,8,9 | 8,1,0.065,0.05,congruent,left,,,,,,,,,,,,,,,,,,,,,,,,,,,,,,,,,,,,,,,,,,,,,,,,,,,,,,,,,,,,,,,,,,,,,,,,,,,,,,,,,,,,,,,,,,,,,,,,,,,,,,,,,,,,,,,,,,,,,,,,,,,
,8812,ABC,22/07/2004,001,2023-09-26_17h07.49.785,OS3_Mult_verification,2022.2.4,Win32,60.11783095,,,,,,,,,,,,,,,,,,,,,,,,,,,,,,,,,,,left,1,0.8346,,,,,,physical,8,8,8 | 8,0,0.065,0.05,neutral,left,0,0,0,70,1,,,,,,,,,,,,,,,,,,,,,,,,,,,,,,,,,,,,,,,,,,,,,,,,,,,,,,,,,,,,,,,,,,,,,,,,,,,,,,,,,,,,,,,,,,,,,,,,,,,,,,,,,,,,,,,,,,,,,,
,8812,ABC,22/07/2004,001,2023-09-26_17h07.49.785,OS3_Mult_verification,2022.2.4,Win32,60.11783095,,,,,,,,,,,,,,,,,,,,,,,,,,,,,,,,,,,left,1,0.833,,,,,,physical,3,8,3 | 8,5,0.065,0.05,incongruent,left,0,1,1,42,1,,,,,,,,,,,,,,,,,,,,,,,,,,,,,,,,,,,,,,,,,,,,,,,,,,,,,,,,,,,,,,,,,,,,,,,,,,,,,,,,,,,,,,,,,,,,,,,,,,,,,,,,,,,,,,,,,,,,,,
,8812,ABC,22/07/2004,001,2023-09-26_17h07.49.785,OS3_Mult_verification,2022.2.4,Win32,60.11783095,,,,,,,,,,,,,,,,,,,,,,,,,,,,,,,,,,,right,1,0.5796,,,,,,physical,8,8,8 | 8,0,0.05,0.065,neutral,right,0,2,2,62,1,,,,,,,,,,,,,,,,,,,,,,,,,,,,,,,,,,,,,,,,,,,,,,,,,,,,,,,,,,,,,,,,,,,,,,,,,,,,,,,,,,,,,,,,,,,,,,,,,,,,,,,,,,,,,,,,,,,,,,
,8812,ABC,22/07/2004,001,2023-09-26_17h07.49.785,OS3_Mult_verification,2022.2.4,Win32,60.11783095,,,,,,,,,,,,,,,,,,,,,,,,,,,,,,,,,,,left,1,0.837,,,,,,physical,6,7,6 | 7,1,0.065,0.05,incongruent,left,0,3,3,26,1,,,,,,,,,,,,,,,,,,,,,,,,,,,,,,,,,,,,,,,,,,,,,,,,,,,,,,,,,,,,,,,,,,,,,,,,,,,,,,,,,,,,,,,,,,,,,,,,,,,,,,,,,,,,,,,,,,,,,,
,8812,ABC,22/07/2004,001,2023-09-26_17h07.49.785,OS3_Mult_verification,2022.2.4,Win32,60.11783095,,,,,,,,,,,,,,,,,,,,,,,,,,,,,,,,,,,right,1,0.5561,,,,,,physical,9,9,9 | 9,0,0.05,0.065,neutral,right,0,4,4,71,1,,,,,,,,,,,,,,,,,,,,,,,,,,,,,,,,,,,,,,,,,,,,,,,,,,,,,,,,,,,,,,,,,,,,,,,,,,,,,,,,,,,,,,,,,,,,,,,,,,,,,,,,,,,,,,,,,,,,,,
,8812,ABC,22/07/2004,001,2023-09-26_17h07.49.785,OS3_Mult_verification,2022.2.4,Win32,60.11783095,,,,,,,,,,,,,,,,,,,,,,,,,,,,,,,,,,,right,1,0.5809,,,,,,physical,1,1,1 | 1,0,0.05,0.065,neutral,right,0,5,5,56,1,,,,,,,,,,,,,,,,,,,,,,,,,,,,,,,,,,,,,,,,,,,,,,,,,,,,,,,,,,,,,,,,,,,,,,,,,,,,,,,,,,,,,,,,,,,,,,,,,,,,,,,,,,,,,,,,,,,,,,
,8812,ABC,22/07/2004,001,2023-09-26_17h07.49.785,OS3_Mult_verification,2022.2.4,Win32,60.11783095,,,,,,,,,,,,,,,,,,,,,,,,,,,,,,,,,,,left,1,0.5655,,,,,,physical,3,1,3 | 1,2,0.065,0.05,congruent,left,0,6,6,12,1,,,,,,,,,,,,,,,,,,,,,,,,,,,,,,,,,,,,,,,,,,,,,,,,,,,,,,,,,,,,,,,,,,,,,,,,,,,,,,,,,,,,,,,,,,,,,,,,,,,,,,,,,,,,,,,,,,,,,,
,8812,ABC,22/07/2004,001,2023-09-26_17h07.49.785,OS3_Mult_verification,2022.2.4,Win32,60.11783095,,,,,,,,,,,,,,,,,,,,,,,,,,,,,,,,,,,right,1,0.5169,,,,,,physical,9,7,9 | 7,2,0.05,0.065,incongruent,right,0,7,7,39,1,,,,,,,,,,,,,,,,,,,,,,,,,,,,,,,,,,,,,,,,,,,,,,,,,,,,,,,,,,,,,,,,,,,,,,,,,,,,,,,,,,,,,,,,,,,,,,,,,,,,,,,,,,,,,,,,,,,,,,
,8812,ABC,22/07/2004,001,2023-09-26_17h07.49.785,OS3_Mult_verification,2022.2.4,Win32,60.11783095,,,,,,,,,,,,,,,,,,,,,,,,,,,,,,,,,,,right,1,0.5483,,,,,,physical,3,4,3 | 4,1,0.05,0.065,congruent,right,0,8,8,1,1,,,,,,,,,,,,,,,,,,,,,,,,,,,,,,,,,,,,,,,,,,,,,,,,,,,,,,,,,,,,,,,,,,,,,,,,,,,,,,,,,,,,,,,,,,,,,,,,,,,,,,,,,,,,,,,,,,,,,,
,8812,ABC,22/07/2004,001,2023-09-26_17h07.49.785,OS3_Mult_verification,2022.2.4,Win32,60.11783095,,,,,,,,,,,,,,,,,,,,,,,,,,,,,,,,,,,left,1,0.5234,,,,,,physical,1,3,1 | 3,2,0.065,0.05,incongruent,left,0,9,9,32,1,,,,,,,,,,,,,,,,,,,,,,,,,,,,,,,,,,,,,,,,,,,,,,,,,,,,,,,,,,,,,,,,,,,,,,,,,,,,,,,,,,,,,,,,,,,,,,,,,,,,,,,,,,,,,,,,,,,,,,
,8812,ABC,22/07/2004,001,2023-09-26_17h07.49.785,OS3_Mult_verification,2022.2.4,Win32,60.11783095,,,,,,,,,,,,,,,,,,,,,,,,,,,,,,,,,,,right,1,0.504,,,,,,physical,1,3,1 | 3,2,0.05,0.065,congruent,right,0,10,10,8,1,,,,,,,,,,,,,,,,,,,,,,,,,,,,,,,,,,,,,,,,,,,,,,,,,,,,,,,,,,,,,,,,,,,,,,,,,,,,,,,,,,,,,,,,,,,,,,,,,,,,,,,,,,,,,,,,,,,,,,
,8812,ABC,22/07/2004,001,2023-09-26_17h07.49.785,OS3_Mult_verification,2022.2.4,Win32,60.11783095,,,,,,,,,,,,,,,,,,,,,,,,,,,,,,,,,,,right,1,0.4915,,,,,,physical,2,7,2 | 7,5,0.05,0.065,congruent,right,0,11,11,17,1,,,,,,,,,,,,,,,,,,,,,,,,,,,,,,,,,,,,,,,,,,,,,,,,,,,,,,,,,,,,,,,,,,,,,,,,,,,,,,,,,,,,,,,,,,,,,,,,,,,,,,,,,,,,,,,,,,,,,,
,8812,ABC,22/07/2004,001,2023-09-26_17h07.49.785,OS3_Mult_verification,2022.2.4,Win32,60.11783095,,,,,,,,,,,,,,,,,,,,,,,,,,,,,,,,,,,left,1,0.5171,,,,,,physical,9,8,9 | 8,1,0.065,0.05,congruent,left,0,12,12,7,1,,,,,,,,,,,,,,,,,,,,,,,,,,,,,,,,,,,,,,,,,,,,,,,,,,,,,,,,,,,,,,,,,,,,,,,,,,,,,,,,,,,,,,,,,,,,,,,,,,,,,,,,,,,,,,,,,,,,,,
,8812,ABC,22/07/2004,001,2023-09-26_17h07.49.785,OS3_Mult_verification,2022.2.4,Win32,60.11783095,,,,,,,,,,,,,,,,,,,,,,,,,,,,,,,,,,,right,1,0.4827,,,,,,physical,2,1,2 | 1,1,0.05,0.065,incongruent,right,0,13,13,28,1,,,,,,,,,,,,,,,,,,,,,,,,,,,,,,,,,,,,,,,,,,,,,,,,,,,,,,,,,,,,,,,,,,,,,,,,,,,,,,,,,,,,,,,,,,,,,,,,,,,,,,,,,,,,,,,,,,,,,,
,8812,ABC,22/07/2004,001,2023-09-26_17h07.49.785,OS3_Mult_verification,2022.2.4,Win32,60.11783095,,,,,,,,,,,,,,,,,,,,,,,,,,,,,,,,,,,right,1,0.5165,,,,,,physical,9,9,9 | 9,0,0.05,0.065,neutral,right,0,14,14,63,1,,,,,,,,,,,,,,,,,,,,,,,,,,,,,,,,,,,,,,,,,,,,,,,,,,,,,,,,,,,,,,,,,,,,,,,,,,,,,,,,,,,,,,,,,,,,,,,,,,,,,,,,,,,,,,,,,,,,,,
,8812,ABC,22/07/2004,001,2023-09-26_17h07.49.785,OS3_Mult_verification,2022.2.4,Win32,60.11783095,,,,,,,,,,,,,,,,,,,,,,,,,,,,,,,,,,,right,1,0.521,,,,,,physical,8,6,8 | 6,2,0.05,0.065,incongruent,right,0,15,15,38,1,,,,,,,,,,,,,,,,,,,,,,,,,,,,,,,,,,,,,,,,,,,,,,,,,,,,,,,,,,,,,,,,,,,,,,,,,,,,,,,,,,,,,,,,,,,,,,,,,,,,,,,,,,,,,,,,,,,,,,
,8812,ABC,22/07/2004,001,2023-09-26_17h07.49.785,OS3_Mult_verification,2022.2.4,Win32,60.11783095,,,,,,,,,,,,,,,,,,,,,,,,,,,,,,,,,,,right,1,0.5531,,,,,,physical,6,1,6 | 1,5,0.05,0.065,incongruent,right,0,16,16,44,1,,,,,,,,,,,,,,,,,,,,,,,,,,,,,,,,,,,,,,,,,,,,,,,,,,,,,,,,,,,,,,,,,,,,,,,,,,,,,,,,,,,,,,,,,,,,,,,,,,,,,,,,,,,,,,,,,,,,,,
,8812,ABC,22/07/2004,001,2023-09-26_17h07.49.785,OS3_Mult_verification,2022.2.4,Win32,60.11783095,,,,,,,,,,,,,,,,,,,,,,,,,,,,,,,,,,,left,1,0.4646,,,,,,physical,3,3,3 | 3,0,0.065,0.05,neutral,left,0,17,17,49,1,,,,,,,,,,,,,,,,,,,,,,,,,,,,,,,,,,,,,,,,,,,,,,,,,,,,,,,,,,,,,,,,,,,,,,,,,,,,,,,,,,,,,,,,,,,,,,,,,,,,,,,,,,,,,,,,,,,,,,
,8812,ABC,22/07/2004,001,2023-09-26_17h07.49.785,OS3_Mult_verification,2022.2.4,Win32,60.11783095,,,,,,,,,,,,,,,,,,,,,,,,,,,,,,,,,,,right,1,0.4734,,,,,,physical,6,7,6 | 7,1,0.05,0.065,congruent,right,0,18,18,2,1,,,,,,,,,,,,,,,,,,,,,,,,,,,,,,,,,,,,,,,,,,,,,,,,,,,,,,,,,,,,,,,,,,,,,,,,,,,,,,,,,,,,,,,,,,,,,,,,,,,,,,,,,,,,,,,,,,,,,,
,8812,ABC,22/07/2004,001,2023-09-26_17h07.49.785,OS3_Mult_verification,2022.2.4,Win32,60.11783095,,,,,,,,,,,,,,,,,,,,,,,,,,,,,,,,,,,left,1,0.4809,,,,,,physical,9,9,9 | 9,0,0.065,0.05,neutral,left,0,19,19,55,1,,,,,,,,,,,,,,,,,,,,,,,,,,,,,,,,,,,,,,,,,,,,,,,,,,,,,,,,,,,,,,,,,,,,,,,,,,,,,,,,,,,,,,,,,,,,,,,,,,,,,,,,,,,,,,,,,,,,,,
,8812,ABC,22/07/2004,001,2023-09-26_17h07.49.785,OS3_Mult_verification,2022.2.4,Win32,60.11783095,,,,,,,,,,,,,,,,,,,,,,,,,,,,,,,,,,,right,1,0.4467,,,,,,physical,1,6,1 | 6,5,0.05,0.065,congruent,right,0,20,20,16,1,,,,,,,,,,,,,,,,,,,,,,,,,,,,,,,,,,,,,,,,,,,,,,,,,,,,,,,,,,,,,,,,,,,,,,,,,,,,,,,,,,,,,,,,,,,,,,,,,,,,,,,,,,,,,,,,,,,,,,
,8812,ABC,22/07/2004,001,2023-09-26_17h07.49.785,OS3_Mult_verification,2022.2.4,Win32,60.11783095,,,,,,,,,,,,,,,,,,,,,,,,,,,,,,,,,,,left,1,0.423,,,,,,physical,8,3,8 | 3,5,0.065,0.05,congruent,left,0,21,21,22,1,,,,,,,,,,,,,,,,,,,,,,,,,,,,,,,,,,,,,,,,,,,,,,,,,,,,,,,,,,,,,,,,,,,,,,,,,,,,,,,,,,,,,,,,,,,,,,,,,,,,,,,,,,,,,,,,,,,,,,
,8812,ABC,22/07/2004,001,2023-09-26_17h07.49.785,OS3_Mult_verification,2022.2.4,Win32,60.11783095,,,,,,,,,,,,,,,,,,,,,,,,,,,,,,,,,,,right,1,0.4303,,,,,,physical,6,8,6 | 8,2,0.05,0.065,congruent,right,0,22,22,10,1,,,,,,,,,,,,,,,,,,,,,,,,,,,,,,,,,,,,,,,,,,,,,,,,,,,,,,,,,,,,,,,,,,,,,,,,,,,,,,,,,,,,,,,,,,,,,,,,,,,,,,,,,,,,,,,,,,,,,,
,8812,ABC,22/07/2004,001,2023-09-26_17h07.49.785,OS3_Mult_verification,2022.2.4,Win32,60.11783095,,,,,,,,,,,,,,,,,,,,,,,,,,,,,,,,,,,left,1,0.4142,,,,,,physical,3,3,3 | 3,0,0.065,0.05,neutral,left,0,23,23,66,1,,,,,,,,,,,,,,,,,,,,,,,,,,,,,,,,,,,,,,,,,,,,,,,,,,,,,,,,,,,,,,,,,,,,,,,,,,,,,,,,,,,,,,,,,,,,,,,,,,,,,,,,,,,,,,,,,,,,,,
,8812,ABC,22/07/2004,001,2023-09-26_17h07.49.785,OS3_Mult_verification,2022.2.4,Win32,60.11783095,,,,,,,,,,,,,,,,,,,,,,,,,,,,,,,,,,,left,1,0.482,,,,,,physical,1,1,1 | 1,0,0.065,0.05,neutral,left,0,24,24,64,1,,,,,,,,,,,,,,,,,,,,,,,,,,,,,,,,,,,,,,,,,,,,,,,,,,,,,,,,,,,,,,,,,,,,,,,,,,,,,,,,,,,,,,,,,,,,,,,,,,,,,,,,,,,,,,,,,,,,,,
,8812,ABC,22/07/2004,001,2023-09-26_17h07.49.785,OS3_Mult_verification,2022.2.4,Win32,60.11783095,,,,,,,,,,,,,,,,,,,,,,,,,,,,,,,,,,,right,1,0.4637,,,,,,physical,8,9,8 | 9,1,0.05,0.065,congruent,right,0,25,25,3,1,,,,,,,,,,,,,,,,,,,,,,,,,,,,,,,,,,,,,,,,,,,,,,,,,,,,,,,,,,,,,,,,,,,,,,,,,,,,,,,,,,,,,,,,,,,,,,,,,,,,,,,,,,,,,,,,,,,,,,
,8812,ABC,22/07/2004,001,2023-09-26_17h07.49.785,OS3_Mult_verification,2022.2.4,Win32,60.11783095,,,,,,,,,,,,,,,,,,,,,,,,,,,,,,,,,,,left,1,0.4317,,,,,,physical,6,6,6 | 6,0,0.065,0.05,neutral,left,0,26,26,68,1,,,,,,,,,,,,,,,,,,,,,,,,,,,,,,,,,,,,,,,,,,,,,,,,,,,,,,,,,,,,,,,,,,,,,,,,,,,,,,,,,,,,,,,,,,,,,,,,,,,,,,,,,,,,,,,,,,,,,,
,8812,ABC,22/07/2004,001,2023-09-26_17h07.49.785,OS3_Mult_verification,2022.2.4,Win32,60.11783095,,,,,,,,,,,,,,,,,,,,,,,,,,,,,,,,,,,left,1,0.4697,,,,,,physical,9,4,9 | 4,5,0.065,0.05,congruent,left,0,27,27,23,1,,,,,,,,,,,,,,,,,,,,,,,,,,,,,,,,,,,,,,,,,,,,,,,,,,,,,,,,,,,,,,,,,,,,,,,,,,,,,,,,,,,,,,,,,,,,,,,,,,,,,,,,,,,,,,,,,,,,,,
,8812,ABC,22/07/2004,001,2023-09-26_17h07.49.785,OS3_Mult_verification,2022.2.4,Win32,60.11783095,,,,,,,,,,,,,,,,,,,,,,,,,,,,,,,,,,,left,1,0.4188,,,,,,physical,6,6,6 | 6,0,0.065,0.05,neutral,left,0,28,28,50,1,,,,,,,,,,,,,,,,,,,,,,,,,,,,,,,,,,,,,,,,,,,,,,,,,,,,,,,,,,,,,,,,,,,,,,,,,,,,,,,,,,,,,,,,,,,,,,,,,,,,,,,,,,,,,,,,,,,,,,
,8812,ABC,22/07/2004,001,2023-09-26_17h07.49.785,OS3_Mult_verification,2022.2.4,Win32,60.11783095,,,,,,,,,,,,,,,,,,,,,,,,,,,,,,,,,,,left,1,0.4541,,,,,,physical,6,1,6 | 1,5,0.065,0.05,congruent,left,0,29,29,20,1,,,,,,,,,,,,,,,,,,,,,,,,,,,,,,,,,,,,,,,,,,,,,,,,,,,,,,,,,,,,,,,,,,,,,,,,,,,,,,,,,,,,,,,,,,,,,,,,,,,,,,,,,,,,,,,,,,,,,,
,8812,ABC,22/07/2004,001,2023-09-26_17h07.49.785,OS3_Mult_verification,2022.2.4,Win32,60.11783095,,,,,,,,,,,,,,,,,,,,,,,,,,,,,,,,,,,right,1,0.4486,,,,,,physical,3,8,3 | 8,5,0.05,0.065,congruent,right,0,30,30,18,1,,,,,,,,,,,,,,,,,,,,,,,,,,,,,,,,,,,,,,,,,,,,,,,,,,,,,,,,,,,,,,,,,,,,,,,,,,,,,,,,,,,,,,,,,,,,,,,,,,,,,,,,,,,,,,,,,,,,,,
,8812,ABC,22/07/2004,001,2023-09-26_17h07.49.785,OS3_Mult_verification,2022.2.4,Win32,60.11783095,,,,,,,,,,,,,,,,,,,,,,,,,,,,,,,,,,,right,1,0.4674,,,,,,physical,2,2,2 | 2,0,0.05,0.065,neutral,right,0,31,31,57,1,,,,,,,,,,,,,,,,,,,,,,,,,,,,,,,,,,,,,,,,,,,,,,,,,,,,,,,,,,,,,,,,,,,,,,,,,,,,,,,,,,,,,,,,,,,,,,,,,,,,,,,,,,,,,,,,,,,,,,
,8812,ABC,22/07/2004,001,2023-09-26_17h07.49.785,OS3_Mult_verification,2022.2.4,Win32,60.11783095,,,,,,,,,,,,,,,,,,,,,,,,,,,,,,,,,,,left,1,0.4489,,,,,,physical,7,6,7 | 6,1,0.065,0.05,congruent,left,0,32,32,6,1,,,,,,,,,,,,,,,,,,,,,,,,,,,,,,,,,,,,,,,,,,,,,,,,,,,,,,,,,,,,,,,,,,,,,,,,,,,,,,,,,,,,,,,,,,,,,,,,,,,,,,,,,,,,,,,,,,,,,,
,8812,ABC,22/07/2004,001,2023-09-26_17h07.49.785,OS3_Mult_verification,2022.2.4,Win32,60.11783095,,,,,,,,,,,,,,,,,,,,,,,,,,,,,,,,,,,left,1,0.4676,,,,,,physical,6,8,6 | 8,2,0.065,0.05,incongruent,left,0,33,33,34,1,,,,,,,,,,,,,,,,,,,,,,,,,,,,,,,,,,,,,,,,,,,,,,,,,,,,,,,,,,,,,,,,,,,,,,,,,,,,,,,,,,,,,,,,,,,,,,,,,,,,,,,,,,,,,,,,,,,,,,
,8812,ABC,22/07/2004,001,2023-09-26_17h07.49.785,OS3_Mult_verification,2022.2.4,Win32,60.11783095,,,,,,,,,,,,,,,,,,,,,,,,,,,,,,,,,,,right,1,0.4488,,,,,,physical,6,6,6 | 6,0,0.05,0.065,neutral,right,0,34,34,58,1,,,,,,,,,,,,,,,,,,,,,,,,,,,,,,,,,,,,,,,,,,,,,,,,,,,,,,,,,,,,,,,,,,,,,,,,,,,,,,,,,,,,,,,,,,,,,,,,,,,,,,,,,,,,,,,,,,,,,,
,8812,ABC,22/07/2004,001,2023-09-26_17h07.49.785,OS3_Mult_verification,2022.2.4,Win32,60.11783095,,,,,,,,,,,,,,,,,,,,,,,,,,,,,,,,,,,right,1,0.4999,,,,,,physical,4,9,4 | 9,5,0.05,0.065,congruent,right,0,35,35,19,1,,,,,,,,,,,,,,,,,,,,,,,,,,,,,,,,,,,,,,,,,,,,,,,,,,,,,,,,,,,,,,,,,,,,,,,,,,,,,,,,,,,,,,,,,,,,,,,,,,,,,,,,,,,,,,,,,,,,,,
,8812,ABC,22/07/2004,001,2023-09-26_17h07.49.785,OS3_Mult_verification,2022.2.4,Win32,60.11783095,,,,,,,,,,,,,,,,,,,,,,,,,,,,,,,,,,,left,1,0.4341,,,,,,physical,4,4,4 | 4,0,0.065,0.05,neutral,left,0,36,36,53,1,,,,,,,,,,,,,,,,,,,,,,,,,,,,,,,,,,,,,,,,,,,,,,,,,,,,,,,,,,,,,,,,,,,,,,,,,,,,,,,,,,,,,,,,,,,,,,,,,,,,,,,,,,,,,,,,,,,,,,
,8812,ABC,22/07/2004,001,2023-09-26_17h07.49.785,OS3_Mult_verification,2022.2.4,Win32,60.11783095,,,,,,,,,,,,,,,,,,,,,,,,,,,,,,,,,,,left,1,0.4549,,,,,,physical,8,8,8 | 8,0,0.065,0.05,neutral,left,0,37,37,51,1,,,,,,,,,,,,,,,,,,,,,,,,,,,,,,,,,,,,,,,,,,,,,,,,,,,,,,,,,,,,,,,,,,,,,,,,,,,,,,,,,,,,,,,,,,,,,,,,,,,,,,,,,,,,,,,,,,,,,,
,8812,ABC,22/07/2004,001,2023-09-26_17h07.49.785,OS3_Mult_verification,2022.2.4,Win32,60.11783095,,,,,,,,,,,,,,,,,,,,,,,,,,,,,,,,,,,right,1,0.4328,,,,,,physical,8,3,8 | 3,5,0.05,0.065,incongruent,right,0,38,38,46,1,,,,,,,,,,,,,,,,,,,,,,,,,,,,,,,,,,,,,,,,,,,,,,,,,,,,,,,,,,,,,,,,,,,,,,,,,,,,,,,,,,,,,,,,,,,,,,,,,,,,,,,,,,,,,,,,,,,,,,
,8812,ABC,22/07/2004,001,2023-09-26_17h07.49.785,OS3_Mult_verification,2022.2.4,Win32,60.11783095,,,,,,,,,,,,,,,,,,,,,,,,,,,,,,,,,,,left,1,0.3976,,,,,,physical,1,6,1 | 6,5,0.065,0.05,incongruent,left,0,39,39,40,1,,,,,,,,,,,,,,,,,,,,,,,,,,,,,,,,,,,,,,,,,,,,,,,,,,,,,,,,,,,,,,,,,,,,,,,,,,,,,,,,,,,,,,,,,,,,,,,,,,,,,,,,,,,,,,,,,,,,,,
,8812,ABC,22/07/2004,001,2023-09-26_17h07.49.785,OS3_Mult_verification,2022.2.4,Win32,60.11783095,,,,,,,,,,,,,,,,,,,,,,,,,,,,,,,,,,,right,1,0.4134,,,,,,physical,4,4,4 | 4,0,0.05,0.065,neutral,right,0,40,40,61,1,,,,,,,,,,,,,,,,,,,,,,,,,,,,,,,,,,,,,,,,,,,,,,,,,,,,,,,,,,,,,,,,,,,,,,,,,,,,,,,,,,,,,,,,,,,,,,,,,,,,,,,,,,,,,,,,,,,,,,
,8812,ABC,22/07/2004,001,2023-09-26_17h07.49.785,OS3_Mult_verification,2022.2.4,Win32,60.11783095,,,,,,,,,,,,,,,,,,,,,,,,,,,,,,,,,,,right,1,0.603,,,,,,physical,7,2,7 | 2,5,0.05,0.065,incongruent,right,0,41,41,45,1,,,,,,,,,,,,,,,,,,,,,,,,,,,,,,,,,,,,,,,,,,,,,,,,,,,,,,,,,,,,,,,,,,,,,,,,,,,,,,,,,,,,,,,,,,,,,,,,,,,,,,,,,,,,,,,,,,,,,,
,8812,ABC,22/07/2004,001,2023-09-26_17h07.49.785,OS3_Mult_verification,2022.2.4,Win32,60.11783095,,,,,,,,,,,,,,,,,,,,,,,,,,,,,,,,,,,left,1,0.4481,,,,,,physical,4,2,4 | 2,2,0.065,0.05,congruent,left,0,42,42,13,1,,,,,,,,,,,,,,,,,,,,,,,,,,,,,,,,,,,,,,,,,,,,,,,,,,,,,,,,,,,,,,,,,,,,,,,,,,,,,,,,,,,,,,,,,,,,,,,,,,,,,,,,,,,,,,,,,,,,,,
,8812,ABC,22/07/2004,001,2023-09-26_17h07.49.785,OS3_Mult_verification,2022.2.4,Win32,60.11783095,,,,,,,,,,,,,,,,,,,,,,,,,,,,,,,,,,,right,1,0.4473,,,,,,physical,3,3,3 | 3,0,0.05,0.065,neutral,right,0,43,43,60,1,,,,,,,,,,,,,,,,,,,,,,,,,,,,,,,,,,,,,,,,,,,,,,,,,,,,,,,,,,,,,,,,,,,,,,,,,,,,,,,,,,,,,,,,,,,,,,,,,,,,,,,,,,,,,,,,,,,,,,
,8812,ABC,22/07/2004,001,2023-09-26_17h07.49.785,OS3_Mult_verification,2022.2.4,Win32,60.11783095,,,,,,,,,,,,,,,,,,,,,,,,,,,,,,,,,,,right,1,0.5165,,,,,,physical,9,8,9 | 8,1,0.05,0.065,incongruent,right,0,44,44,31,1,,,,,,,,,,,,,,,,,,,,,,,,,,,,,,,,,,,,,,,,,,,,,,,,,,,,,,,,,,,,,,,,,,,,,,,,,,,,,,,,,,,,,,,,,,,,,,,,,,,,,,,,,,,,,,,,,,,,,,
,8812,ABC,22/07/2004,001,2023-09-26_17h07.49.785,OS3_Mult_verification,2022.2.4,Win32,60.11783095,,,,,,,,,,,,,,,,,,,,,,,,,,,,,,,,,,,right,1,0.507,,,,,,physical,7,7,7 | 7,0,0.05,0.065,neutral,right,0,45,45,59,1,,,,,,,,,,,,,,,,,,,,,,,,,,,,,,,,,,,,,,,,,,,,,,,,,,,,,,,,,,,,,,,,,,,,,,,,,,,,,,,,,,,,,,,,,,,,,,,,,,,,,,,,,,,,,,,,,,,,,,
,8812,ABC,22/07/2004,001,2023-09-26_17h07.49.785,OS3_Mult_verification,2022.2.4,Win32,60.11783095,,,,,,,,,,,,,,,,,,,,,,,,,,,,,,,,,,,left,1,0.4972,,,,,,physical,3,4,3 | 4,1,0.065,0.05,incongruent,left,0,46,46,25,1,,,,,,,,,,,,,,,,,,,,,,,,,,,,,,,,,,,,,,,,,,,,,,,,,,,,,,,,,,,,,,,,,,,,,,,,,,,,,,,,,,,,,,,,,,,,,,,,,,,,,,,,,,,,,,,,,,,,,,
,8812,ABC,22/07/2004,001,2023-09-26_17h07.49.785,OS3_Mult_verification,2022.2.4,Win32,60.11783095,,,,,,,,,,,,,,,,,,,,,,,,,,,,,,,,,,,right,1,0.4964,,,,,,physical,3,1,3 | 1,2,0.05,0.065,incongruent,right,0,47,47,36,1,,,,,,,,,,,,,,,,,,,,,,,,,,,,,,,,,,,,,,,,,,,,,,,,,,,,,,,,,,,,,,,,,,,,,,,,,,,,,,,,,,,,,,,,,,,,,,,,,,,,,,,,,,,,,,,,,,,,,,
,8812,ABC,22/07/2004,001,2023-09-26_17h07.49.785,OS3_Mult_verification,2022.2.4,Win32,60.11783095,,,,,,,,,,,,,,,,,,,,,,,,,,,,,,,,,,,right,1,0.5067,,,,,,physical,7,7,7 | 7,0,0.05,0.065,neutral,right,0,48,48,69,1,,,,,,,,,,,,,,,,,,,,,,,,,,,,,,,,,,,,,,,,,,,,,,,,,,,,,,,,,,,,,,,,,,,,,,,,,,,,,,,,,,,,,,,,,,,,,,,,,,,,,,,,,,,,,,,,,,,,,,
,8812,ABC,22/07/2004,001,2023-09-26_17h07.49.785,OS3_Mult_verification,2022.2.4,Win32,60.11783095,,,,,,,,,,,,,,,,,,,,,,,,,,,,,,,,,,,left,1,0.4747,,,,,,physical,2,4,2 | 4,2,0.065,0.05,incongruent,left,0,49,49,33,1,,,,,,,,,,,,,,,,,,,,,,,,,,,,,,,,,,,,,,,,,,,,,,,,,,,,,,,,,,,,,,,,,,,,,,,,,,,,,,,,,,,,,,,,,,,,,,,,,,,,,,,,,,,,,,,,,,,,,,
,8812,ABC,22/07/2004,001,2023-09-26_17h07.49.785,OS3_Mult_verification,2022.2.4,Win32,60.11783095,,,,,,,,,,,,,,,,,,,,,,,,,,,,,,,,,,,left,1,0.541,,,,,,physical,7,2,7 | 2,5,0.065,0.05,congruent,left,0,50,50,21,1,,,,,,,,,,,,,,,,,,,,,,,,,,,,,,,,,,,,,,,,,,,,,,,,,,,,,,,,,,,,,,,,,,,,,,,,,,,,,,,,,,,,,,,,,,,,,,,,,,,,,,,,,,,,,,,,,,,,,,
,8812,ABC,22/07/2004,001,2023-09-26_17h07.49.785,OS3_Mult_verification,2022.2.4,Win32,60.11783095,,,,,,,,,,,,,,,,,,,,,,,,,,,,,,,,,,,right,1,0.4705,,,,,,physical,2,2,2 | 2,0,0.05,0.065,neutral,right,0,51,51,65,1,,,,,,,,,,,,,,,,,,,,,,,,,,,,,,,,,,,,,,,,,,,,,,,,,,,,,,,,,,,,,,,,,,,,,,,,,,,,,,,,,,,,,,,,,,,,,,,,,,,,,,,,,,,,,,,,,,,,,,
,8812,ABC,22/07/2004,001,2023-09-26_17h07.49.785,OS3_Mult_verification,2022.2.4,Win32,60.11783095,,,,,,,,,,,,,,,,,,,,,,,,,,,,,,,,,,,left,1,0.4642,,,,,,physical,2,2,2 | 2,0,0.065,0.05,neutral,left,0,52,52,52,1,,,,,,,,,,,,,,,,,,,,,,,,,,,,,,,,,,,,,,,,,,,,,,,,,,,,,,,,,,,,,,,,,,,,,,,,,,,,,,,,,,,,,,,,,,,,,,,,,,,,,,,,,,,,,,,,,,,,,,
,8812,ABC,22/07/2004,001,2023-09-26_17h07.49.785,OS3_Mult_verification,2022.2.4,Win32,60.11783095,,,,,,,,,,,,,,,,,,,,,,,,,,,,,,,,,,,left,1,0.5581,,,,,,physical,4,9,4 | 9,5,0.065,0.05,incongruent,left,0,53,53,43,1,,,,,,,,,,,,,,,,,,,,,,,,,,,,,,,,,,,,,,,,,,,,,,,,,,,,,,,,,,,,,,,,,,,,,,,,,,,,,,,,,,,,,,,,,,,,,,,,,,,,,,,,,,,,,,,,,,,,,,
,8812,ABC,22/07/2004,001,2023-09-26_17h07.49.785,OS3_Mult_verification,2022.2.4,Win32,60.11783095,,,,,,,,,,,,,,,,,,,,,,,,,,,,,,,,,,,right,1,0.4981,,,,,,physical,7,9,7 | 9,2,0.05,0.065,congruent,right,0,54,54,11,1,,,,,,,,,,,,,,,,,,,,,,,,,,,,,,,,,,,,,,,,,,,,,,,,,,,,,,,,,,,,,,,,,,,,,,,,,,,,,,,,,,,,,,,,,,,,,,,,,,,,,,,,,,,,,,,,,,,,,,
,8812,ABC,22/07/2004,001,2023-09-26_17h07.49.785,OS3_Mult_verification,2022.2.4,Win32,60.11783095,,,,,,,,,,,,,,,,,,,,,,,,,,,,,,,,,,,right,1,0.5061,,,,,,physical,7,6,7 | 6,1,0.05,0.065,incongruent,right,0,55,55,30,1,,,,,,,,,,,,,,,,,,,,,,,,,,,,,,,,,,,,,,,,,,,,,,,,,,,,,,,,,,,,,,,,,,,,,,,,,,,,,,,,,,,,,,,,,,,,,,,,,,,,,,,,,,,,,,,,,,,,,,
,8812,ABC,22/07/2004,001,2023-09-26_17h07.49.785,OS3_Mult_verification,2022.2.4,Win32,60.11783095,,,,,,,,,,,,,,,,,,,,,,,,,,,,,,,,,,,right,1,0.6807,,,,,,physical,1,2,1 | 2,1,0.05,0.065,congruent,right,0,56,56,0,1,,,,,,,,,,,,,,,,,,,,,,,,,,,,,,,,,,,,,,,,,,,,,,,,,,,,,,,,,,,,,,,,,,,,,,,,,,,,,,,,,,,,,,,,,,,,,,,,,,,,,,,,,,,,,,,,,,,,,,
,8812,ABC,22/07/2004,001,2023-09-26_17h07.49.785,OS3_Mult_verification,2022.2.4,Win32,60.11783095,,,,,,,,,,,,,,,,,,,,,,,,,,,,,,,,,,,right,1,0.533,,,,,,physical,4,3,4 | 3,1,0.05,0.065,incongruent,right,0,57,57,29,1,,,,,,,,,,,,,,,,,,,,,,,,,,,,,,,,,,,,,,,,,,,,,,,,,,,,,,,,,,,,,,,,,,,,,,,,,,,,,,,,,,,,,,,,,,,,,,,,,,,,,,,,,,,,,,,,,,,,,,
,8812,ABC,22/07/2004,001,2023-09-26_17h07.49.785,OS3_Mult_verification,2022.2.4,Win32,60.11783095,,,,,,,,,,,,,,,,,,,,,,,,,,,,,,,,,,,left,1,0.4797,,,,,,physical,4,3,4 | 3,1,0.065,0.05,congruent,left,0,58,58,5,1,,,,,,,,,,,,,,,,,,,,,,,,,,,,,,,,,,,,,,,,,,,,,,,,,,,,,,,,,,,,,,,,,,,,,,,,,,,,,,,,,,,,,,,,,,,,,,,,,,,,,,,,,,,,,,,,,,,,,,
,8812,ABC,22/07/2004,001,2023-09-26_17h07.49.785,OS3_Mult_verification,2022.2.4,Win32,60.11783095,,,,,,,,,,,,,,,,,,,,,,,,,,,,,,,,,,,left,1,0.5287,,,,,,physical,8,6,8 | 6,2,0.065,0.05,congruent,left,0,59,59,14,1,,,,,,,,,,,,,,,,,,,,,,,,,,,,,,,,,,,,,,,,,,,,,,,,,,,,,,,,,,,,,,,,,,,,,,,,,,,,,,,,,,,,,,,,,,,,,,,,,,,,,,,,,,,,,,,,,,,,,,
,8812,ABC,22/07/2004,001,2023-09-26_17h07.49.785,OS3_Mult_verification,2022.2.4,Win32,60.11783095,,,,,,,,,,,,,,,,,,,,,,,,,,,,,,,,,,,left,1,0.4875,,,,,,physical,8,9,8 | 9,1,0.065,0.05,incongruent,left,0,60,60,27,1,,,,,,,,,,,,,,,,,,,,,,,,,,,,,,,,,,,,,,,,,,,,,,,,,,,,,,,,,,,,,,,,,,,,,,,,,,,,,,,,,,,,,,,,,,,,,,,,,,,,,,,,,,,,,,,,,,,,,,
,8812,ABC,22/07/2004,001,2023-09-26_17h07.49.785,OS3_Mult_verification,2022.2.4,Win32,60.11783095,,,,,,,,,,,,,,,,,,,,,,,,,,,,,,,,,,,right,1,0.4845,,,,,,physical,9,4,9 | 4,5,0.05,0.065,incongruent,right,0,61,61,47,1,,,,,,,,,,,,,,,,,,,,,,,,,,,,,,,,,,,,,,,,,,,,,,,,,,,,,,,,,,,,,,,,,,,,,,,,,,,,,,,,,,,,,,,,,,,,,,,,,,,,,,,,,,,,,,,,,,,,,,
,8812,ABC,22/07/2004,001,2023-09-26_17h07.49.785,OS3_Mult_verification,2022.2.4,Win32,60.11783095,,,,,,,,,,,,,,,,,,,,,,,,,,,,,,,,,,,left,1,0.4034,,,,,,physical,2,1,2 | 1,1,0.065,0.05,congruent,left,0,62,62,4,1,,,,,,,,,,,,,,,,,,,,,,,,,,,,,,,,,,,,,,,,,,,,,,,,,,,,,,,,,,,,,,,,,,,,,,,,,,,,,,,,,,,,,,,,,,,,,,,,,,,,,,,,,,,,,,,,,,,,,,
,8812,ABC,22/07/2004,001,2023-09-26_17h07.49.785,OS3_Mult_verification,2022.2.4,Win32,60.11783095,,,,,,,,,,,,,,,,,,,,,,,,,,,,,,,,,,,left,1,0.6545,,,,,,physical,7,9,7 | 9,2,0.065,0.05,incongruent,left,0,63,63,35,1,,,,,,,,,,,,,,,,,,,,,,,,,,,,,,,,,,,,,,,,,,,,,,,,,,,,,,,,,,,,,,,,,,,,,,,,,,,,,,,,,,,,,,,,,,,,,,,,,,,,,,,,,,,,,,,,,,,,,,
,8812,ABC,22/07/2004,001,2023-09-26_17h07.49.785,OS3_Mult_verification,2022.2.4,Win32,60.11783095,,,,,,,,,,,,,,,,,,,,,,,,,,,,,,,,,,,right,1,0.6315,,,,,,physical,4,2,4 | 2,2,0.05,0.065,incongruent,right,0,64,64,37,1,,,,,,,,,,,,,,,,,,,,,,,,,,,,,,,,,,,,,,,,,,,,,,,,,,,,,,,,,,,,,,,,,,,,,,,,,,,,,,,,,,,,,,,,,,,,,,,,,,,,,,,,,,,,,,,,,,,,,,
,8812,ABC,22/07/2004,001,2023-09-26_17h07.49.785,OS3_Mult_verification,2022.2.4,Win32,60.11783095,,,,,,,,,,,,,,,,,,,,,,,,,,,,,,,,,,,left,1,0.4791,,,,,,physical,1,2,1 | 2,1,0.065,0.05,incongruent,left,0,65,65,24,1,,,,,,,,,,,,,,,,,,,,,,,,,,,,,,,,,,,,,,,,,,,,,,,,,,,,,,,,,,,,,,,,,,,,,,,,,,,,,,,,,,,,,,,,,,,,,,,,,,,,,,,,,,,,,,,,,,,,,,
,8812,ABC,22/07/2004,001,2023-09-26_17h07.49.785,OS3_Mult_verification,2022.2.4,Win32,60.11783095,,,,,,,,,,,,,,,,,,,,,,,,,,,,,,,,,,,right,1,0.5051,,,,,,physical,4,4,4 | 4,0,0.05,0.065,neutral,right,0,66,66,67,1,,,,,,,,,,,,,,,,,,,,,,,,,,,,,,,,,,,,,,,,,,,,,,,,,,,,,,,,,,,,,,,,,,,,,,,,,,,,,,,,,,,,,,,,,,,,,,,,,,,,,,,,,,,,,,,,,,,,,,
,8812,ABC,22/07/2004,001,2023-09-26_17h07.49.785,OS3_Mult_verification,2022.2.4,Win32,60.11783095,,,,,,,,,,,,,,,,,,,,,,,,,,,,,,,,,,,right,1,0.5319,,,,,,physical,2,4,2 | 4,2,0.05,0.065,congruent,right,0,67,67,9,1,,,,,,,,,,,,,,,,,,,,,,,,,,,,,,,,,,,,,,,,,,,,,,,,,,,,,,,,,,,,,,,,,,,,,,,,,,,,,,,,,,,,,,,,,,,,,,,,,,,,,,,,,,,,,,,,,,,,,,
,8812,ABC,22/07/2004,001,2023-09-26_17h07.49.785,OS3_Mult_verification,2022.2.4,Win32,60.11783095,,,,,,,,,,,,,,,,,,,,,,,,,,,,,,,,,,,left,1,0.47,,,,,,physical,2,7,2 | 7,5,0.065,0.05,incongruent,left,0,68,68,41,1,,,,,,,,,,,,,,,,,,,,,,,,,,,,,,,,,,,,,,,,,,,,,,,,,,,,,,,,,,,,,,,,,,,,,,,,,,,,,,,,,,,,,,,,,,,,,,,,,,,,,,,,,,,,,,,,,,,,,,
,8812,ABC,22/07/2004,001,2023-09-26_17h07.49.785,OS3_Mult_verification,2022.2.4,Win32,60.11783095,,,,,,,,,,,,,,,,,,,,,,,,,,,,,,,,,,,left,1,0.5147,,,,,,physical,7,7,7 | 7,0,0.065,0.05,neutral,left,0,69,69,54,1,,,,,,,,,,,,,,,,,,,,,,,,,,,,,,,,,,,,,,,,,,,,,,,,,,,,,,,,,,,,,,,,,,,,,,,,,,,,,,,,,,,,,,,,,,,,,,,,,,,,,,,,,,,,,,,,,,,,,,
,8812,ABC,22/07/2004,001,2023-09-26_17h07.49.785,OS3_Mult_verification,2022.2.4,Win32,60.11783095,,,,,,,,,,,,,,,,,,,,,,,,,,,,,,,,,,,left,1,0.4671,,,,,,physical,9,7,9 | 7,2,0.065,0.05,congruent,left,0,70,70,15,1,,,,,,,,,,,,,,,,,,,,,,,,,,,,,,,,,,,,,,,,,,,,,,,,,,,,,,,,,,,,,,,,,,,,,,,,,,,,,,,,,,,,,,,,,,,,,,,,,,,,,,,,,,,,,,,,,,,,,,
,8812,ABC,22/07/2004,001,2023-09-26_17h07.49.785,OS3_Mult_verification,2022.2.4,Win32,60.11783095,,,,,,,,,,,,,,,,,,,,,,,,,,,,,,,,,,,left,1,0.484,,,,,,physical,1,1,1 | 1,0,0.065,0.05,neutral,left,0,71,71,48,1,,,,,,,,,,,,,,,,,,,,,,,,,,,,,,,,,,,,,,,,,,,,,,,,,,,,,,,,,,,,,,,,,,,,,,,,,,,,,,,,,,,,,,,,,,,,,,,,,,,,,,,,,,,,,,,,,,,,,,
,8812,ABC,22/07/2004,001,2023-09-26_17h07.49.785,OS3_Mult_verification,2022.2.4,Win32,60.11783095,,,,,,,,,,,,,,,,,,,,,,,,,,,,,,,,,,,,,,,,,,,,,,,,,,,,,,,,,0,1,1,1,1,stroop_stim/physical.xlsx,stroop_stim/prac_physical.xlsx,PHYSICALLY larger (larger font size).,images/physicallyLarger.png,,,,,,,,,,,,,,,,,,,,,,,,,,,,,,,,,,,,,,,,,,,,,,,,,,,,,,,,,,,,,,,,,,,,,,,,,,,,,,,,,,,,,,,,,,,,,,,,,,,,,,,,,,,,,
,8812,ABC,22/07/2004,001,2023-09-26_17h07.49.785,OS3_Mult_verification,2022.2.4,Win32,60.11783095,,,,,,,,,,,,,,,,,,,,,,,,,,,,,,,,,,,,,,,,,,,,,,,,,,,,,,,,,,,,,,,,,,0,0,0,0,1,,,,,,,,,,,,,,,,,,,,,,,,,,,,,,,,,,,,,,,,,,,,,,,,,,,,,,,,,,,,,,,,,,,,,,,,,,,,,,,,,,,,,,,,,,,,,,,,,,,,,,,,
,8812,ABC,22/07/2004,001,2023-09-26_17h07.49.785,OS3_Mult_verification,2022.2.4,Win32,60.11783095,,,,,,,,,,,,,,,,,,,,,,,,,,,,,,,,,,,,,,,,,,,,,,,,,,,,,,,,,,,,,,,,,,,,,,,0,0,0,0,1,1,0,0,,,,,,,,,,,,,,,,,,,,,,,,,,,,,,,,,,,,,,,,,,,,,,,,,,,,,,,,,,,,,,,,,,,,,,,,,,,,,,,,,,,,,,,,,,,,,,,,
,8812,ABC,22/07/2004,001,2023-09-26_17h07.49.785,OS3_Mult_verification,2022.2.4,Win32,60.11783095,,,,,,,,,,,,,,,,space,1.0311,,,,,,,,,,,,,,,,,,,,,,,,,,,,,,,,,,,,,,,,,,,,,,,,,,,,,,,,,,,,,,FALSE,13.2434,0.040735485,-0.340452634,1,0,0,0,0,0,2,1,practice trial,,3,3,,,,,,,,,,,,,,,,,,,,,,,,,,,,,,,,,,,,,,,,,,,,,,,,,,,,,,,,,,,,,,,,,,,,,,,,,,,,,,,,
,8812,ABC,22/07/2004,001,2023-09-26_17h07.49.785,OS3_Mult_verification,2022.2.4,Win32,60.11783095,,,,,,,,,,,,,,,,,,,,,,,,,,,,,,,,,,,,,,,,,,,,,,,,,,,,,,,,,,,,,,,,,,,,,,,,,,,,,,,TRUE,2.4818,0.030551678,-0.334794925,1,0,0,0,1,1,1,1,practice trial,,3,3,,,,,,,,,,,,,,,,,,,,,,,,,,,,,,,,,,,,,,,,,,,,,,,,,,,,,,,,,,,,,,,,,,,,,,,,,,,,,,,,
,8812,ABC,22/07/2004,001,2023-09-26_17h07.49.785,OS3_Mult_verification,2022.2.4,Win32,60.11783095,,,,,,,,,,,,,,,,,,,,,,,,,,,,,,,,,,,,,,,,,,,,,,,,,,,,,,,,,,,,,,,,,,,,,,,,,,,,,,,TRUE,4.9809,-0.035077776,-0.326874168,1,0,0,0,2,2,0,1,practice trial,,3,3,,,,,,,,,,,,,,,,,,,,,,,,,,,,,,,,,,,,,,,,,,,,,,,,,,,,,,,,,,,,,,,,,,,,,,,,,,,,,,,,
,8812,ABC,22/07/2004,001,2023-09-26_17h07.49.785,OS3_Mult_verification,2022.2.4,Win32,60.11783095,,,,,,,,,,,,,,,,,,,,,,,,,,,,,,,,,,,,,,,,,,,,,,,,,,,,,,,,,,,,,,,,,,,,,,,,,,,,,,,TRUE,1.5991,-0.029420068,-0.332531876,1,0,0,,,,,,Trial #1,,2,2,0,0,0,0,1,2,,,,,,,,,,,,,,,,,,,,,,,,,,,,,,,,,,,,,,,,,,,,,,,,,,,,,,,,,,,,,,,,,,,,,,,,,,
,8812,ABC,22/07/2004,001,2023-09-26_17h07.49.785,OS3_Mult_verification,2022.2.4,Win32,60.11783095,,,,,,,,,,,,,,,,,,,,,,,,,,,,,,,,,,,,,,,,,,,,,,,,,,,,,,,,,,,,,,,,,,,,,,,,,,,,,,,TRUE,1.599,-0.015841601,-0.334794925,1,0,0,,,,,,Trial #1,,2,2,0,1,1,1,1,2,,,,,,,,,,,,,,,,,,,,,,,,,,,,,,,,,,,,,,,,,,,,,,,,,,,,,,,,,,,,,,,,,,,,,,,,,,
,8812,ABC,22/07/2004,001,2023-09-26_17h07.49.785,OS3_Mult_verification,2022.2.4,Win32,60.11783095,,,,,,,,,,,,,,,,,,,,,,,,,,,,,,,,,,,,,,,,,,,,,,,,,,,,,,,,,,,,,,,,,,,,,,,,,,,,,,,TRUE,2.0322,0.002263135,-0.318953324,1,0,0,,,,,,Trial #1,,2,2,0,2,2,2,1,2,,,,,,,,,,,,,,,,,,,,,,,,,,,,,,,,,,,,,,,,,,,,,,,,,,,,,,,,,,,,,,,,,,,,,,,,,,
