windowSize,participant,group,DOB (DD/MM/YEAR),session,date,expName,psychopyVersion,OS,frameRate,typing_instr_resp.keys,typing_instr_resp.rt,typing_response,typing_rt,typing_score,typingSpeed_input_resp.keys,typingSpeed_input_resp.rt,typing_speed_trials.thisRepN,typing_speed_trials.thisTrialN,typing_speed_trials.thisN,typing_speed_trials.thisIndex,typing_speed_trials.ran,typing_speed_stim,typing_report_resp.keys,typing_report_resp.rt,vpt_trial_resp1.keys,vpt_trial_resp1.rt,typedResponse,fluency_rt,fluency_score,fluencyInputResp.keys,fluencyInputResp.rt,fluencyPracLoop.thisRepN,fluencyPracLoop.thisTrialN,fluencyPracLoop.thisN,fluencyPracLoop.thisIndex,fluencyPracLoop.ran,problem,answers,fluencyLoop.thisRepN,fluencyLoop.thisTrialN,fluencyLoop.thisN,fluencyLoop.thisIndex,fluencyLoop.ran,sampleAudio_resp.keys,sampleAudio_resp.rt,subjResponse,audio_rt,DS_score,inputResp.keys,inputResp.rt,audioPracticeLoop.thisRepN,audioPracticeLoop.thisTrialN,audioPracticeLoop.thisN,audioPracticeLoop.thisIndex,audioPracticeLoop.ran,digitSpan,digits_audioStim,soundsFile,typeDS,audioTrials_Loop.thisRepN,audioTrials_Loop.thisTrialN,audioTrials_Loop.thisN,audioTrials_Loop.thisIndex,audioTrials_Loop.ran,audioBlocks_loop.thisRepN,audioBlocks_loop.thisTrialN,audioBlocks_loop.thisN,audioBlocks_loop.thisIndex,audioBlocks_loop.ran,ConditionFile,digitSpanTask_loop.thisRepN,digitSpanTask_loop.thisTrialN,digitSpanTask_loop.thisN,digitSpanTask_loop.thisIndex,digitSpanTask_loop.ran,dsFile,TASK_C.thisRepN,TASK_C.thisTrialN,TASK_C.thisN,TASK_C.thisIndex,TASK_C.ran,controlTaskOrder.thisRepN,controlTaskOrder.thisTrialN,controlTaskOrder.thisN,controlTaskOrder.thisIndex,controlTaskOrder.ran,nRepsTask1,nRepsTask2,nRepsTask3,vptCorrect,vpt_rt,respMouse.x,respMouse.y,respMouse.leftButton,respMouse.midButton,respMouse.rightButton,vptPracticeLoop.thisRepN,vptPracticeLoop.thisTrialN,vptPracticeLoop.thisN,vptPracticeLoop.thisIndex,vptPracticeLoop.ran,trialType,tiles,rows,cols,vptTrialLoop.thisRepN,vptTrialLoop.thisTrialN,vptTrialLoop.thisN,vptTrialLoop.thisIndex,vptTrialLoop.ran,noOfBlocks,TASK_B.thisRepN,TASK_B.thisTrialN,TASK_B.thisN,TASK_B.thisIndex,TASK_B.ran,stroopResp.keys,stroopResp.corr,stroopResp.rt,stroopPracLoop.thisRepN,stroopPracLoop.thisTrialN,stroopPracLoop.thisN,stroopPracLoop.thisIndex,stroopPracLoop.ran,stroopCond,leftNo,rightNo,displayProblem,numDistance,leftNo_size,rightNo_size,Dims,keyAnswer,stroopLoop.thisRepN,stroopLoop.thisTrialN,stroopLoop.thisN,stroopLoop.thisIndex,stroopLoop.ran,stroopBlocks.thisRepN,stroopBlocks.thisTrialN,stroopBlocks.thisN,stroopBlocks.thisIndex,stroopBlocks.ran,stroop_condition,stroop_pracFile,ActionInst,instrImage,TASK_A.thisRepN,TASK_A.thisTrialN,TASK_A.thisN,TASK_A.thisIndex,TASK_A.ran,veriStim_resp.keys,veriStim_resp.corr,veriStim_resp.rt,verificationPracLoop.thisRepN,verificationPracLoop.thisTrialN,verificationPracLoop.thisN,verificationPracLoop.thisIndex,verificationPracLoop.ran,mult_problem,mult_answer,mult_type,error_distance,interferenceScore,problemType,interferenceLevel,problemSize,img_leftButton,img_rightButton,veriLoop.thisRepN,veriLoop.thisTrialN,veriLoop.thisN,veriLoop.thisIndex,veriLoop.ran,veriBlock.thisRepN,veriBlock.thisTrialN,veriBlock.thisN,veriBlock.thisIndex,veriBlock.ran,verificationFiles,end_resp.keys,end_resp.rt
"[1536,707]",8875,CBA,22/01/2005,001,2023-09-24_18h12.34.874,OS3_Mult_verification,2022.2.4,Win32,59.32957579,,,,,,,,,,,,,,,,,,,,,,,,,,,,,,,,,,,,,,,,,,,,,,,,,,,,,,,,,,,,,,,,,,,,,,,,,,,,,,,,,,,,,,,,,,,,,,,,,,,,,,,,,,,,,,,,,,,,,,,,,,,,,,,,,,,,,,,,,,,,,,,,,,,,,,,,,,,,,,,,,,,,,,,,,,,,,,
,8875,CBA,22/01/2005,001,2023-09-24_18h12.34.874,OS3_Mult_verification,2022.2.4,Win32,59.32957579,,,,,,,,,,,,,,,,,,,,,,,,,,,,,,,,,,,,,,,,,,,,,,,,,,,,,,,,,,,,,,,,,,,,,,,,,,,,,,,,,,,,,,,,,,,,,,,,,,,,,,,,,,,,,,,,,,,,,,,,,,,,,,,,,,,,,,,,,,,,,,,,,,,,,,,,,,,,,,,,,,,,,,,,,,,,,,
,8875,CBA,22/01/2005,001,2023-09-24_18h12.34.874,OS3_Mult_verification,2022.2.4,Win32,59.32957579,space,29.6081,,,,,,,,,,,,,,,,,,,,,,,,,,,,,,,,,,,,,,,,,,,,,,,,,,,,,,,,,,,,,,,,,,,,,,,,,,,,,,,,,,,,,,,,,,,,,,,,,,,,,,,,,,,,,,,,,,,,,,,,,,,,,,,,,,,,,,,,,,,,,,,,,,,,,,,,,,,,,,,,,,,,,,,,,,,,
,8875,CBA,22/01/2005,001,2023-09-24_18h12.34.874,OS3_Mult_verification,2022.2.4,Win32,59.32957579,,,14,2.9848,1,"[""1"",""4"",""return""]","[1.5023000000007443,1.7047000000029868,2.9505000000000052]",0,0,0,6,1,14,,,,,,,,,,,,,,,,,,,,,,,,,,,,,,,,,,,,,,,,,,,,,,,,,,,,,,,,,,,,,,,,,,,,,,,,,,,,,,,,,,,,,,,,,,,,,,,,,,,,,,,,,,,,,,,,,,,,,,,,,,,,,,,,,,,,,,,,,,,,,,,,,,,,,,,,,,,,,,,,,
,8875,CBA,22/01/2005,001,2023-09-24_18h12.34.874,OS3_Mult_verification,2022.2.4,Win32,59.32957579,,,48,2.1499,1,"[""4"",""8"",""return""]","[1.1447999999970193,1.654199999999264,2.099899999998513]",0,1,1,23,1,48,,,,,,,,,,,,,,,,,,,,,,,,,,,,,,,,,,,,,,,,,,,,,,,,,,,,,,,,,,,,,,,,,,,,,,,,,,,,,,,,,,,,,,,,,,,,,,,,,,,,,,,,,,,,,,,,,,,,,,,,,,,,,,,,,,,,,,,,,,,,,,,,,,,,,,,,,,,,,,,,,
,8875,CBA,22/01/2005,001,2023-09-24_18h12.34.874,OS3_Mult_verification,2022.2.4,Win32,59.32957579,,,6,1.0656,1,"[""6"",""return""]","[0.7890000000000015,1.023300000000745]",0,2,2,1,1,6,,,,,,,,,,,,,,,,,,,,,,,,,,,,,,,,,,,,,,,,,,,,,,,,,,,,,,,,,,,,,,,,,,,,,,,,,,,,,,,,,,,,,,,,,,,,,,,,,,,,,,,,,,,,,,,,,,,,,,,,,,,,,,,,,,,,,,,,,,,,,,,,,,,,,,,,,,,,,,,,,
,8875,CBA,22/01/2005,001,2023-09-24_18h12.34.874,OS3_Mult_verification,2022.2.4,Win32,59.32957579,,,49,1.8828,1,"[""4"",""9"",""return""]","[1.172600000001495,1.5914999999999964,1.8458999999985082]",0,3,3,24,1,49,,,,,,,,,,,,,,,,,,,,,,,,,,,,,,,,,,,,,,,,,,,,,,,,,,,,,,,,,,,,,,,,,,,,,,,,,,,,,,,,,,,,,,,,,,,,,,,,,,,,,,,,,,,,,,,,,,,,,,,,,,,,,,,,,,,,,,,,,,,,,,,,,,,,,,,,,,,,,,,,,
,8875,CBA,22/01/2005,001,2023-09-24_18h12.34.874,OS3_Mult_verification,2022.2.4,Win32,59.32957579,,,16,1.5163,1,"[""1"",""6"",""return""]","[0.816199999999256,1.25,1.4735999999977594]",0,4,4,8,1,16,,,,,,,,,,,,,,,,,,,,,,,,,,,,,,,,,,,,,,,,,,,,,,,,,,,,,,,,,,,,,,,,,,,,,,,,,,,,,,,,,,,,,,,,,,,,,,,,,,,,,,,,,,,,,,,,,,,,,,,,,,,,,,,,,,,,,,,,,,,,,,,,,,,,,,,,,,,,,,,,,
,8875,CBA,22/01/2005,001,2023-09-24_18h12.34.874,OS3_Mult_verification,2022.2.4,Win32,59.32957579,,,9,1.1002,1,"[""9"",""return""]","[0.8347000000029823,1.0571000000014976]",0,5,5,3,1,9,,,,,,,,,,,,,,,,,,,,,,,,,,,,,,,,,,,,,,,,,,,,,,,,,,,,,,,,,,,,,,,,,,,,,,,,,,,,,,,,,,,,,,,,,,,,,,,,,,,,,,,,,,,,,,,,,,,,,,,,,,,,,,,,,,,,,,,,,,,,,,,,,,,,,,,,,,,,,,,,,
,8875,CBA,22/01/2005,001,2023-09-24_18h12.34.874,OS3_Mult_verification,2022.2.4,Win32,59.32957579,,,45,1.4493,1,"[""4"",""5"",""return""]","[1.042500000000004,1.215900000002236,1.4072000000029874]",0,6,6,22,1,45,,,,,,,,,,,,,,,,,,,,,,,,,,,,,,,,,,,,,,,,,,,,,,,,,,,,,,,,,,,,,,,,,,,,,,,,,,,,,,,,,,,,,,,,,,,,,,,,,,,,,,,,,,,,,,,,,,,,,,,,,,,,,,,,,,,,,,,,,,,,,,,,,,,,,,,,,,,,,,,,,
,8875,CBA,22/01/2005,001,2023-09-24_18h12.34.874,OS3_Mult_verification,2022.2.4,Win32,59.32957579,,,32,1.9693,1,"[""3"",""2"",""return""]","[1.367900000002237,1.5438000000007435,1.9216000000014901]",0,7,7,17,1,32,,,,,,,,,,,,,,,,,,,,,,,,,,,,,,,,,,,,,,,,,,,,,,,,,,,,,,,,,,,,,,,,,,,,,,,,,,,,,,,,,,,,,,,,,,,,,,,,,,,,,,,,,,,,,,,,,,,,,,,,,,,,,,,,,,,,,,,,,,,,,,,,,,,,,,,,,,,,,,,,,
,8875,CBA,22/01/2005,001,2023-09-24_18h12.34.874,OS3_Mult_verification,2022.2.4,Win32,59.32957579,,,28,1.6201,1,"[""2"",""8"",""return""]","[0.9676000000014966,1.3930000000000007,1.5814000000022332]",0,8,8,15,1,28,,,,,,,,,,,,,,,,,,,,,,,,,,,,,,,,,,,,,,,,,,,,,,,,,,,,,,,,,,,,,,,,,,,,,,,,,,,,,,,,,,,,,,,,,,,,,,,,,,,,,,,,,,,,,,,,,,,,,,,,,,,,,,,,,,,,,,,,,,,,,,,,,,,,,,,,,,,,,,,,,
,8875,CBA,22/01/2005,001,2023-09-24_18h12.34.874,OS3_Mult_verification,2022.2.4,Win32,59.32957579,,,40,2.5332,1,"[""3"",""backspace"",""4"",""0"",""return""]","[0.8229000000022353,1.8314000000022332,2.017200000002987,2.347900000002241,2.490300000000744]",0,9,9,20,1,40,,,,,,,,,,,,,,,,,,,,,,,,,,,,,,,,,,,,,,,,,,,,,,,,,,,,,,,,,,,,,,,,,,,,,,,,,,,,,,,,,,,,,,,,,,,,,,,,,,,,,,,,,,,,,,,,,,,,,,,,,,,,,,,,,,,,,,,,,,,,,,,,,,,,,,,,,,,,,,,,,
,8875,CBA,22/01/2005,001,2023-09-24_18h12.34.874,OS3_Mult_verification,2022.2.4,Win32,59.32957579,,,4,0.9998,1,"[""4"",""return""]","[0.8164999999999907,0.9609000000022263]",0,10,10,0,1,4,,,,,,,,,,,,,,,,,,,,,,,,,,,,,,,,,,,,,,,,,,,,,,,,,,,,,,,,,,,,,,,,,,,,,,,,,,,,,,,,,,,,,,,,,,,,,,,,,,,,,,,,,,,,,,,,,,,,,,,,,,,,,,,,,,,,,,,,,,,,,,,,,,,,,,,,,,,,,,,,,
,8875,CBA,22/01/2005,001,2023-09-24_18h12.34.874,OS3_Mult_verification,2022.2.4,Win32,59.32957579,,,21,1.2669,1,"[""2"",""1"",""return""]","[0.9414999999999907,1.0511000000014832,1.2221000000014897]",0,11,11,11,1,21,,,,,,,,,,,,,,,,,,,,,,,,,,,,,,,,,,,,,,,,,,,,,,,,,,,,,,,,,,,,,,,,,,,,,,,,,,,,,,,,,,,,,,,,,,,,,,,,,,,,,,,,,,,,,,,,,,,,,,,,,,,,,,,,,,,,,,,,,,,,,,,,,,,,,,,,,,,,,,,,,
,8875,CBA,22/01/2005,001,2023-09-24_18h12.34.874,OS3_Mult_verification,2022.2.4,Win32,59.32957579,,,63,1.5833,1,"[""6"",""3"",""return""]","[1.0193999999984982,1.2996999999992482,1.5409999999999968]",0,12,12,27,1,63,,,,,,,,,,,,,,,,,,,,,,,,,,,,,,,,,,,,,,,,,,,,,,,,,,,,,,,,,,,,,,,,,,,,,,,,,,,,,,,,,,,,,,,,,,,,,,,,,,,,,,,,,,,,,,,,,,,,,,,,,,,,,,,,,,,,,,,,,,,,,,,,,,,,,,,,,,,,,,,,,
,8875,CBA,22/01/2005,001,2023-09-24_18h12.34.874,OS3_Mult_verification,2022.2.4,Win32,59.32957579,,,24,1.3999,1,"[""2"",""4"",""return""]","[0.9965999999977555,1.1595999999977664,1.3537999999970225]",0,13,13,12,1,24,,,,,,,,,,,,,,,,,,,,,,,,,,,,,,,,,,,,,,,,,,,,,,,,,,,,,,,,,,,,,,,,,,,,,,,,,,,,,,,,,,,,,,,,,,,,,,,,,,,,,,,,,,,,,,,,,,,,,,,,,,,,,,,,,,,,,,,,,,,,,,,,,,,,,,,,,,,,,,,,,
,8875,CBA,22/01/2005,001,2023-09-24_18h12.34.874,OS3_Mult_verification,2022.2.4,Win32,59.32957579,,,36,1.3693,1,"[""3"",""6"",""return""]","[0.9193000000007316,1.1211000000014906,1.325499999999991]",0,14,14,19,1,36,,,,,,,,,,,,,,,,,,,,,,,,,,,,,,,,,,,,,,,,,,,,,,,,,,,,,,,,,,,,,,,,,,,,,,,,,,,,,,,,,,,,,,,,,,,,,,,,,,,,,,,,,,,,,,,,,,,,,,,,,,,,,,,,,,,,,,,,,,,,,,,,,,,,,,,,,,,,,,,,,
,8875,CBA,22/01/2005,001,2023-09-24_18h12.34.874,OS3_Mult_verification,2022.2.4,Win32,59.32957579,,,20,1.4667,1,"[""2"",""0"",""return""]","[0.8273999999985193,1.2516999999992606,1.4225999999977716]",0,15,15,10,1,20,,,,,,,,,,,,,,,,,,,,,,,,,,,,,,,,,,,,,,,,,,,,,,,,,,,,,,,,,,,,,,,,,,,,,,,,,,,,,,,,,,,,,,,,,,,,,,,,,,,,,,,,,,,,,,,,,,,,,,,,,,,,,,,,,,,,,,,,,,,,,,,,,,,,,,,,,,,,,,,,,
,8875,CBA,22/01/2005,001,2023-09-24_18h12.34.874,OS3_Mult_verification,2022.2.4,Win32,59.32957579,,,42,2.0831,1,"[""3"",""backspace"",""4"",""2"",""return""]","[0.833900000002231,1.5074000000022352,1.6913000000007372,1.8329000000022404,2.044700000002976]",0,16,16,21,1,42,,,,,,,,,,,,,,,,,,,,,,,,,,,,,,,,,,,,,,,,,,,,,,,,,,,,,,,,,,,,,,,,,,,,,,,,,,,,,,,,,,,,,,,,,,,,,,,,,,,,,,,,,,,,,,,,,,,,,,,,,,,,,,,,,,,,,,,,,,,,,,,,,,,,,,,,,,,,,,,,,
,8875,CBA,22/01/2005,001,2023-09-24_18h12.34.874,OS3_Mult_verification,2022.2.4,Win32,59.32957579,,,35,1.285,1,"[""3"",""5"",""return""]","[0.8309999999999889,1.083900000002231,1.2344000000022248]",0,17,17,18,1,35,,,,,,,,,,,,,,,,,,,,,,,,,,,,,,,,,,,,,,,,,,,,,,,,,,,,,,,,,,,,,,,,,,,,,,,,,,,,,,,,,,,,,,,,,,,,,,,,,,,,,,,,,,,,,,,,,,,,,,,,,,,,,,,,,,,,,,,,,,,,,,,,,,,,,,,,,,,,,,,,,
,8875,CBA,22/01/2005,001,2023-09-24_18h12.34.874,OS3_Mult_verification,2022.2.4,Win32,59.32957579,,,25,1.2196,1,"[""2"",""5"",""return""]","[0.7565000000000026,1.0326999999992523,1.1844999999999999]",0,18,18,13,1,25,,,,,,,,,,,,,,,,,,,,,,,,,,,,,,,,,,,,,,,,,,,,,,,,,,,,,,,,,,,,,,,,,,,,,,,,,,,,,,,,,,,,,,,,,,,,,,,,,,,,,,,,,,,,,,,,,,,,,,,,,,,,,,,,,,,,,,,,,,,,,,,,,,,,,,,,,,,,,,,,,
,8875,CBA,22/01/2005,001,2023-09-24_18h12.34.874,OS3_Mult_verification,2022.2.4,Win32,59.32957579,,,12,1.0166,1,"[""1"",""2"",""return""]","[0.6228000000007512,0.7595000000000027,0.9699999999999989]",0,19,19,5,1,12,,,,,,,,,,,,,,,,,,,,,,,,,,,,,,,,,,,,,,,,,,,,,,,,,,,,,,,,,,,,,,,,,,,,,,,,,,,,,,,,,,,,,,,,,,,,,,,,,,,,,,,,,,,,,,,,,,,,,,,,,,,,,,,,,,,,,,,,,,,,,,,,,,,,,,,,,,,,,,,,,
,8875,CBA,22/01/2005,001,2023-09-24_18h12.34.874,OS3_Mult_verification,2022.2.4,Win32,59.32957579,,,18,1.433,1,"[""1"",""8"",""return""]","[0.6634999999999991,1.128699999999256,1.3838000000007469]",0,20,20,9,1,18,,,,,,,,,,,,,,,,,,,,,,,,,,,,,,,,,,,,,,,,,,,,,,,,,,,,,,,,,,,,,,,,,,,,,,,,,,,,,,,,,,,,,,,,,,,,,,,,,,,,,,,,,,,,,,,,,,,,,,,,,,,,,,,,,,,,,,,,,,,,,,,,,,,,,,,,,,,,,,,,,
,8875,CBA,22/01/2005,001,2023-09-24_18h12.34.874,OS3_Mult_verification,2022.2.4,Win32,59.32957579,,,72,1.766,1,"[""7"",""2"",""return""]","[1.1060999999977668,1.5618999999985164,1.7180999999977615]",0,21,21,29,1,72,,,,,,,,,,,,,,,,,,,,,,,,,,,,,,,,,,,,,,,,,,,,,,,,,,,,,,,,,,,,,,,,,,,,,,,,,,,,,,,,,,,,,,,,,,,,,,,,,,,,,,,,,,,,,,,,,,,,,,,,,,,,,,,,,,,,,,,,,,,,,,,,,,,,,,,,,,,,,,,,,
,8875,CBA,22/01/2005,001,2023-09-24_18h12.34.874,OS3_Mult_verification,2022.2.4,Win32,59.32957579,,,15,1.1023,1,"[""1"",""5"",""return""]","[0.5930000000000035,0.9498000000007494,1.066199999999256]",0,22,22,7,1,15,,,,,,,,,,,,,,,,,,,,,,,,,,,,,,,,,,,,,,,,,,,,,,,,,,,,,,,,,,,,,,,,,,,,,,,,,,,,,,,,,,,,,,,,,,,,,,,,,,,,,,,,,,,,,,,,,,,,,,,,,,,,,,,,,,,,,,,,,,,,,,,,,,,,,,,,,,,,,,,,,
,8875,CBA,22/01/2005,001,2023-09-24_18h12.34.874,OS3_Mult_verification,2022.2.4,Win32,59.32957579,,,81,1.686,1,"[""8"",""1"",""return""]","[1.075700000002982,1.401900000002243,1.648200000002987]",0,23,23,30,1,81,,,,,,,,,,,,,,,,,,,,,,,,,,,,,,,,,,,,,,,,,,,,,,,,,,,,,,,,,,,,,,,,,,,,,,,,,,,,,,,,,,,,,,,,,,,,,,,,,,,,,,,,,,,,,,,,,,,,,,,,,,,,,,,,,,,,,,,,,,,,,,,,,,,,,,,,,,,,,,,,,
,8875,CBA,22/01/2005,001,2023-09-24_18h12.34.874,OS3_Mult_verification,2022.2.4,Win32,59.32957579,,,30,1.2501,1,"[""3"",""0"",""return""]","[0.6678999999985109,1.07880000000074,1.2128999999985126]",0,24,24,16,1,30,,,,,,,,,,,,,,,,,,,,,,,,,,,,,,,,,,,,,,,,,,,,,,,,,,,,,,,,,,,,,,,,,,,,,,,,,,,,,,,,,,,,,,,,,,,,,,,,,,,,,,,,,,,,,,,,,,,,,,,,,,,,,,,,,,,,,,,,,,,,,,,,,,,,,,,,,,,,,,,,,
,8875,CBA,22/01/2005,001,2023-09-24_18h12.34.874,OS3_Mult_verification,2022.2.4,Win32,59.32957579,,,10,1.183,1,"[""1"",""0"",""return""]","[0.5604999999999905,1.0017000000029839,1.1432000000029774]",0,25,25,4,1,10,,,,,,,,,,,,,,,,,,,,,,,,,,,,,,,,,,,,,,,,,,,,,,,,,,,,,,,,,,,,,,,,,,,,,,,,,,,,,,,,,,,,,,,,,,,,,,,,,,,,,,,,,,,,,,,,,,,,,,,,,,,,,,,,,,,,,,,,,,,,,,,,,,,,,,,,,,,,,,,,,
,8875,CBA,22/01/2005,001,2023-09-24_18h12.34.874,OS3_Mult_verification,2022.2.4,Win32,59.32957579,,,56,2.3666,1,"[""5"",""6"",""return""]","[1.1185999999977554,2.1536999999992616,2.3203000000007563]",0,26,26,26,1,56,,,,,,,,,,,,,,,,,,,,,,,,,,,,,,,,,,,,,,,,,,,,,,,,,,,,,,,,,,,,,,,,,,,,,,,,,,,,,,,,,,,,,,,,,,,,,,,,,,,,,,,,,,,,,,,,,,,,,,,,,,,,,,,,,,,,,,,,,,,,,,,,,,,,,,,,,,,,,,,,,
,8875,CBA,22/01/2005,001,2023-09-24_18h12.34.874,OS3_Mult_verification,2022.2.4,Win32,59.32957579,,,64,2.9168,1,"[""6"",""4"",""return""]","[1.6061999999992622,2.3916999999992754,2.8770000000000095]",0,27,27,28,1,64,,,,,,,,,,,,,,,,,,,,,,,,,,,,,,,,,,,,,,,,,,,,,,,,,,,,,,,,,,,,,,,,,,,,,,,,,,,,,,,,,,,,,,,,,,,,,,,,,,,,,,,,,,,,,,,,,,,,,,,,,,,,,,,,,,,,,,,,,,,,,,,,,,,,,,,,,,,,,,,,,
,8875,CBA,22/01/2005,001,2023-09-24_18h12.34.874,OS3_Mult_verification,2022.2.4,Win32,59.32957579,,,27,1.4168,1,"[""2"",""7"",""return""]","[0.7518000000007419,1.2167000000029873,1.3733000000007394]",0,28,28,14,1,27,,,,,,,,,,,,,,,,,,,,,,,,,,,,,,,,,,,,,,,,,,,,,,,,,,,,,,,,,,,,,,,,,,,,,,,,,,,,,,,,,,,,,,,,,,,,,,,,,,,,,,,,,,,,,,,,,,,,,,,,,,,,,,,,,,,,,,,,,,,,,,,,,,,,,,,,,,,,,,,,,
,8875,CBA,22/01/2005,001,2023-09-24_18h12.34.874,OS3_Mult_verification,2022.2.4,Win32,59.32957579,,,54,1.2506,1,"[""5"",""4"",""return""]","[0.7783999999984985,1.0513999999984946,1.2006999999992445]",0,29,29,25,1,54,,,,,,,,,,,,,,,,,,,,,,,,,,,,,,,,,,,,,,,,,,,,,,,,,,,,,,,,,,,,,,,,,,,,,,,,,,,,,,,,,,,,,,,,,,,,,,,,,,,,,,,,,,,,,,,,,,,,,,,,,,,,,,,,,,,,,,,,,,,,,,,,,,,,,,,,,,,,,,,,,
,8875,CBA,22/01/2005,001,2023-09-24_18h12.34.874,OS3_Mult_verification,2022.2.4,Win32,59.32957579,,,8,1.0504,1,"[""8"",""return""]","[0.9009000000022525,1.0095000000000027]",0,30,30,2,1,8,,,,,,,,,,,,,,,,,,,,,,,,,,,,,,,,,,,,,,,,,,,,,,,,,,,,,,,,,,,,,,,,,,,,,,,,,,,,,,,,,,,,,,,,,,,,,,,,,,,,,,,,,,,,,,,,,,,,,,,,,,,,,,,,,,,,,,,,,,,,,,,,,,,,,,,,,,,,,,,,,
,8875,CBA,22/01/2005,001,2023-09-24_18h12.34.874,OS3_Mult_verification,2022.2.4,Win32,59.32957579,,,18,1.3863,1,"[""1"",""8"",""return""]","[0.7136999999992781,1.1973000000007517,1.3508000000007598]",1,0,31,9,1,18,,,,,,,,,,,,,,,,,,,,,,,,,,,,,,,,,,,,,,,,,,,,,,,,,,,,,,,,,,,,,,,,,,,,,,,,,,,,,,,,,,,,,,,,,,,,,,,,,,,,,,,,,,,,,,,,,,,,,,,,,,,,,,,,,,,,,,,,,,,,,,,,,,,,,,,,,,,,,,,,,
,8875,CBA,22/01/2005,001,2023-09-24_18h12.34.874,OS3_Mult_verification,2022.2.4,Win32,59.32957579,,,56,1.6166,1,"[""5"",""6"",""return""]","[0.8883000000007542,1.1371000000014817,1.5715000000000146]",1,1,32,26,1,56,,,,,,,,,,,,,,,,,,,,,,,,,,,,,,,,,,,,,,,,,,,,,,,,,,,,,,,,,,,,,,,,,,,,,,,,,,,,,,,,,,,,,,,,,,,,,,,,,,,,,,,,,,,,,,,,,,,,,,,,,,,,,,,,,,,,,,,,,,,,,,,,,,,,,,,,,,,,,,,,,
,8875,CBA,22/01/2005,001,2023-09-24_18h12.34.874,OS3_Mult_verification,2022.2.4,Win32,59.32957579,,,16,1.2672,1,"[""1"",""6"",""return""]","[0.6758000000007485,1.0591000000014787,1.218999999999994]",1,2,33,8,1,16,,,,,,,,,,,,,,,,,,,,,,,,,,,,,,,,,,,,,,,,,,,,,,,,,,,,,,,,,,,,,,,,,,,,,,,,,,,,,,,,,,,,,,,,,,,,,,,,,,,,,,,,,,,,,,,,,,,,,,,,,,,,,,,,,,,,,,,,,,,,,,,,,,,,,,,,,,,,,,,,,
,8875,CBA,22/01/2005,001,2023-09-24_18h12.34.874,OS3_Mult_verification,2022.2.4,Win32,59.32957579,,,64,1.8015,1,"[""6"",""4"",""return""]","[1.095700000002978,1.52240000000225,1.7677000000030034]",1,3,34,28,1,64,,,,,,,,,,,,,,,,,,,,,,,,,,,,,,,,,,,,,,,,,,,,,,,,,,,,,,,,,,,,,,,,,,,,,,,,,,,,,,,,,,,,,,,,,,,,,,,,,,,,,,,,,,,,,,,,,,,,,,,,,,,,,,,,,,,,,,,,,,,,,,,,,,,,,,,,,,,,,,,,,
,8875,CBA,22/01/2005,001,2023-09-24_18h12.34.874,OS3_Mult_verification,2022.2.4,Win32,59.32957579,,,30,1.5161,1,"[""3"",""0"",""return""]","[0.8168999999984976,1.2709999999999866,1.4715999999977498]",1,4,35,16,1,30,,,,,,,,,,,,,,,,,,,,,,,,,,,,,,,,,,,,,,,,,,,,,,,,,,,,,,,,,,,,,,,,,,,,,,,,,,,,,,,,,,,,,,,,,,,,,,,,,,,,,,,,,,,,,,,,,,,,,,,,,,,,,,,,,,,,,,,,,,,,,,,,,,,,,,,,,,,,,,,,,
,8875,CBA,22/01/2005,001,2023-09-24_18h12.34.874,OS3_Mult_verification,2022.2.4,Win32,59.32957579,,,42,1.2354,1,"[""4"",""2"",""return""]","[0.7449000000022465,1.0243000000007498,1.200300000000766]",1,5,36,21,1,42,,,,,,,,,,,,,,,,,,,,,,,,,,,,,,,,,,,,,,,,,,,,,,,,,,,,,,,,,,,,,,,,,,,,,,,,,,,,,,,,,,,,,,,,,,,,,,,,,,,,,,,,,,,,,,,,,,,,,,,,,,,,,,,,,,,,,,,,,,,,,,,,,,,,,,,,,,,,,,,,,
,8875,CBA,22/01/2005,001,2023-09-24_18h12.34.874,OS3_Mult_verification,2022.2.4,Win32,59.32957579,,,35,1.283,1,"[""3"",""5"",""return""]","[0.8680000000000234,1.0889999999999986,1.2413000000007628]",1,6,37,18,1,35,,,,,,,,,,,,,,,,,,,,,,,,,,,,,,,,,,,,,,,,,,,,,,,,,,,,,,,,,,,,,,,,,,,,,,,,,,,,,,,,,,,,,,,,,,,,,,,,,,,,,,,,,,,,,,,,,,,,,,,,,,,,,,,,,,,,,,,,,,,,,,,,,,,,,,,,,,,,,,,,,
,8875,CBA,22/01/2005,001,2023-09-24_18h12.34.874,OS3_Mult_verification,2022.2.4,Win32,59.32957579,,,8,1.2172,1,"[""8"",""return""]","[1.037300000000755,1.1683000000007553]",1,7,38,2,1,8,,,,,,,,,,,,,,,,,,,,,,,,,,,,,,,,,,,,,,,,,,,,,,,,,,,,,,,,,,,,,,,,,,,,,,,,,,,,,,,,,,,,,,,,,,,,,,,,,,,,,,,,,,,,,,,,,,,,,,,,,,,,,,,,,,,,,,,,,,,,,,,,,,,,,,,,,,,,,,,,,
,8875,CBA,22/01/2005,001,2023-09-24_18h12.34.874,OS3_Mult_verification,2022.2.4,Win32,59.32957579,,,15,1.7836,1,"[""1"",""5"",""return""]","[1.0567999999970255,1.3388999999985174,1.7331999999992718]",1,8,39,7,1,15,,,,,,,,,,,,,,,,,,,,,,,,,,,,,,,,,,,,,,,,,,,,,,,,,,,,,,,,,,,,,,,,,,,,,,,,,,,,,,,,,,,,,,,,,,,,,,,,,,,,,,,,,,,,,,,,,,,,,,,,,,,,,,,,,,,,,,,,,,,,,,,,,,,,,,,,,,,,,,,,,
,8875,CBA,22/01/2005,001,2023-09-24_18h12.34.874,OS3_Mult_verification,2022.2.4,Win32,59.32957579,,,14,1.4164,1,"[""1"",""4"",""return""]","[0.6706999999992433,1.0273999999984937,1.3703999999985115]",1,9,40,6,1,14,,,,,,,,,,,,,,,,,,,,,,,,,,,,,,,,,,,,,,,,,,,,,,,,,,,,,,,,,,,,,,,,,,,,,,,,,,,,,,,,,,,,,,,,,,,,,,,,,,,,,,,,,,,,,,,,,,,,,,,,,,,,,,,,,,,,,,,,,,,,,,,,,,,,,,,,,,,,,,,,,
,8875,CBA,22/01/2005,001,2023-09-24_18h12.34.874,OS3_Mult_verification,2022.2.4,Win32,59.32957579,,,49,1.2833,1,"[""4"",""9"",""return""]","[0.6741000000014878,1.095700000002978,1.2339000000022224]",1,10,41,24,1,49,,,,,,,,,,,,,,,,,,,,,,,,,,,,,,,,,,,,,,,,,,,,,,,,,,,,,,,,,,,,,,,,,,,,,,,,,,,,,,,,,,,,,,,,,,,,,,,,,,,,,,,,,,,,,,,,,,,,,,,,,,,,,,,,,,,,,,,,,,,,,,,,,,,,,,,,,,,,,,,,,
,8875,CBA,22/01/2005,001,2023-09-24_18h12.34.874,OS3_Mult_verification,2022.2.4,Win32,59.32957579,,,10,1.1977,1,"[""1"",""0"",""return""]","[0.6413000000007401,1.0168000000007567,1.1601999999992643]",1,11,42,4,1,10,,,,,,,,,,,,,,,,,,,,,,,,,,,,,,,,,,,,,,,,,,,,,,,,,,,,,,,,,,,,,,,,,,,,,,,,,,,,,,,,,,,,,,,,,,,,,,,,,,,,,,,,,,,,,,,,,,,,,,,,,,,,,,,,,,,,,,,,,,,,,,,,,,,,,,,,,,,,,,,,,
,8875,CBA,22/01/2005,001,2023-09-24_18h12.34.874,OS3_Mult_verification,2022.2.4,Win32,59.32957579,,,28,1.4497,1,"[""2"",""8"",""return""]","[0.7961999999992599,1.272500000000008,1.4054999999999893]",1,12,43,15,1,28,,,,,,,,,,,,,,,,,,,,,,,,,,,,,,,,,,,,,,,,,,,,,,,,,,,,,,,,,,,,,,,,,,,,,,,,,,,,,,,,,,,,,,,,,,,,,,,,,,,,,,,,,,,,,,,,,,,,,,,,,,,,,,,,,,,,,,,,,,,,,,,,,,,,,,,,,,,,,,,,,
,8875,CBA,22/01/2005,001,2023-09-24_18h12.34.874,OS3_Mult_verification,2022.2.4,Win32,59.32957579,,,21,0.8663,1,"[""2"",""1"",""return""]","[0.5215000000000032,0.6636000000015088,0.8271000000015079]",1,13,44,11,1,21,,,,,,,,,,,,,,,,,,,,,,,,,,,,,,,,,,,,,,,,,,,,,,,,,,,,,,,,,,,,,,,,,,,,,,,,,,,,,,,,,,,,,,,,,,,,,,,,,,,,,,,,,,,,,,,,,,,,,,,,,,,,,,,,,,,,,,,,,,,,,,,,,,,,,,,,,,,,,,,,,
,8875,CBA,22/01/2005,001,2023-09-24_18h12.34.874,OS3_Mult_verification,2022.2.4,Win32,59.32957579,,,20,1.033,1,"[""2"",""0"",""return""]","[0.4798000000007505,0.9089000000022338,0.9964000000022395]",1,14,45,10,1,20,,,,,,,,,,,,,,,,,,,,,,,,,,,,,,,,,,,,,,,,,,,,,,,,,,,,,,,,,,,,,,,,,,,,,,,,,,,,,,,,,,,,,,,,,,,,,,,,,,,,,,,,,,,,,,,,,,,,,,,,,,,,,,,,,,,,,,,,,,,,,,,,,,,,,,,,,,,,,,,,,
,8875,CBA,22/01/2005,001,2023-09-24_18h12.34.874,OS3_Mult_verification,2022.2.4,Win32,59.32957579,,,24,1.1002,1,"[""2"",""4"",""return""]","[0.7039999999999793,0.9041000000014776,1.054000000000002]",1,15,46,12,1,24,,,,,,,,,,,,,,,,,,,,,,,,,,,,,,,,,,,,,,,,,,,,,,,,,,,,,,,,,,,,,,,,,,,,,,,,,,,,,,,,,,,,,,,,,,,,,,,,,,,,,,,,,,,,,,,,,,,,,,,,,,,,,,,,,,,,,,,,,,,,,,,,,,,,,,,,,,,,,,,,,
,8875,CBA,22/01/2005,001,2023-09-24_18h12.34.874,OS3_Mult_verification,2022.2.4,Win32,59.32957579,,,4,0.9524,1,"[""4"",""return""]","[0.7276999999992597,0.9146999999992715]",1,16,47,0,1,4,,,,,,,,,,,,,,,,,,,,,,,,,,,,,,,,,,,,,,,,,,,,,,,,,,,,,,,,,,,,,,,,,,,,,,,,,,,,,,,,,,,,,,,,,,,,,,,,,,,,,,,,,,,,,,,,,,,,,,,,,,,,,,,,,,,,,,,,,,,,,,,,,,,,,,,,,,,,,,,,,
,8875,CBA,22/01/2005,001,2023-09-24_18h12.34.874,OS3_Mult_verification,2022.2.4,Win32,59.32957579,,,63,1.383,1,"[""6"",""3"",""return""]","[0.8259000000022354,1.1696000000014806,1.3452000000029614]",1,17,48,27,1,63,,,,,,,,,,,,,,,,,,,,,,,,,,,,,,,,,,,,,,,,,,,,,,,,,,,,,,,,,,,,,,,,,,,,,,,,,,,,,,,,,,,,,,,,,,,,,,,,,,,,,,,,,,,,,,,,,,,,,,,,,,,,,,,,,,,,,,,,,,,,,,,,,,,,,,,,,,,,,,,,,
,8875,CBA,22/01/2005,001,2023-09-24_18h12.34.874,OS3_Mult_verification,2022.2.4,Win32,59.32957579,,,40,1.5167,1,"[""4"",""0"",""return""]","[0.9091999999992311,1.3329999999999984,1.4660999999977378]",1,18,49,20,1,40,,,,,,,,,,,,,,,,,,,,,,,,,,,,,,,,,,,,,,,,,,,,,,,,,,,,,,,,,,,,,,,,,,,,,,,,,,,,,,,,,,,,,,,,,,,,,,,,,,,,,,,,,,,,,,,,,,,,,,,,,,,,,,,,,,,,,,,,,,,,,,,,,,,,,,,,,,,,,,,,,
,8875,CBA,22/01/2005,001,2023-09-24_18h12.34.874,OS3_Mult_verification,2022.2.4,Win32,59.32957579,,,9,1.4168,1,"[""9"",""return""]","[1.2331000000014853,1.3726000000014835]",1,19,50,3,1,9,,,,,,,,,,,,,,,,,,,,,,,,,,,,,,,,,,,,,,,,,,,,,,,,,,,,,,,,,,,,,,,,,,,,,,,,,,,,,,,,,,,,,,,,,,,,,,,,,,,,,,,,,,,,,,,,,,,,,,,,,,,,,,,,,,,,,,,,,,,,,,,,,,,,,,,,,,,,,,,,,
,8875,CBA,22/01/2005,001,2023-09-24_18h12.34.874,OS3_Mult_verification,2022.2.4,Win32,59.32957579,,,54,1.4495,1,"[""5"",""4"",""return""]","[0.974000000000018,1.264399999998517,1.4035999999977662]",1,20,51,25,1,54,,,,,,,,,,,,,,,,,,,,,,,,,,,,,,,,,,,,,,,,,,,,,,,,,,,,,,,,,,,,,,,,,,,,,,,,,,,,,,,,,,,,,,,,,,,,,,,,,,,,,,,,,,,,,,,,,,,,,,,,,,,,,,,,,,,,,,,,,,,,,,,,,,,,,,,,,,,,,,,,,
,8875,CBA,22/01/2005,001,2023-09-24_18h12.34.874,OS3_Mult_verification,2022.2.4,Win32,59.32957579,,,81,1.9664,1,"[""8"",""1"",""return""]","[1.2661999999992588,1.7569000000022186,1.923199999999241]",1,21,52,30,1,81,,,,,,,,,,,,,,,,,,,,,,,,,,,,,,,,,,,,,,,,,,,,,,,,,,,,,,,,,,,,,,,,,,,,,,,,,,,,,,,,,,,,,,,,,,,,,,,,,,,,,,,,,,,,,,,,,,,,,,,,,,,,,,,,,,,,,,,,,,,,,,,,,,,,,,,,,,,,,,,,,
,8875,CBA,22/01/2005,001,2023-09-24_18h12.34.874,OS3_Mult_verification,2022.2.4,Win32,59.32957579,,,25,1.3167,1,"[""2"",""5"",""return""]","[0.8544000000022152,1.1053000000007387,1.2741000000014822]",1,22,53,13,1,25,,,,,,,,,,,,,,,,,,,,,,,,,,,,,,,,,,,,,,,,,,,,,,,,,,,,,,,,,,,,,,,,,,,,,,,,,,,,,,,,,,,,,,,,,,,,,,,,,,,,,,,,,,,,,,,,,,,,,,,,,,,,,,,,,,,,,,,,,,,,,,,,,,,,,,,,,,,,,,,,,
,8875,CBA,22/01/2005,001,2023-09-24_18h12.34.874,OS3_Mult_verification,2022.2.4,Win32,59.32957579,,,45,1.3001,1,"[""4"",""5"",""return""]","[0.9469000000022163,1.1404000000022165,1.2574000000022352]",1,23,54,22,1,45,,,,,,,,,,,,,,,,,,,,,,,,,,,,,,,,,,,,,,,,,,,,,,,,,,,,,,,,,,,,,,,,,,,,,,,,,,,,,,,,,,,,,,,,,,,,,,,,,,,,,,,,,,,,,,,,,,,,,,,,,,,,,,,,,,,,,,,,,,,,,,,,,,,,,,,,,,,,,,,,,
,8875,CBA,22/01/2005,001,2023-09-24_18h12.34.874,OS3_Mult_verification,2022.2.4,Win32,59.32957579,,,48,1.2999,1,"[""4"",""8"",""return""]","[0.7065000000000055,1.0571999999992556,1.2641000000014913]",1,24,55,23,1,48,,,,,,,,,,,,,,,,,,,,,,,,,,,,,,,,,,,,,,,,,,,,,,,,,,,,,,,,,,,,,,,,,,,,,,,,,,,,,,,,,,,,,,,,,,,,,,,,,,,,,,,,,,,,,,,,,,,,,,,,,,,,,,,,,,,,,,,,,,,,,,,,,,,,,,,,,,,,,,,,,
,8875,CBA,22/01/2005,001,2023-09-24_18h12.34.874,OS3_Mult_verification,2022.2.4,Win32,59.32957579,,,36,1.5506,1,"[""3"",""6"",""return""]","[1.0260000000000105,1.302500000000009,1.4998999999985188]",1,25,56,19,1,36,,,,,,,,,,,,,,,,,,,,,,,,,,,,,,,,,,,,,,,,,,,,,,,,,,,,,,,,,,,,,,,,,,,,,,,,,,,,,,,,,,,,,,,,,,,,,,,,,,,,,,,,,,,,,,,,,,,,,,,,,,,,,,,,,,,,,,,,,,,,,,,,,,,,,,,,,,,,,,,,,
,8875,CBA,22/01/2005,001,2023-09-24_18h12.34.874,OS3_Mult_verification,2022.2.4,Win32,59.32957579,,,32,1.1662,1,"[""3"",""2"",""return""]","[0.7175000000000011,0.938999999999993,1.1216999999992368]",1,26,57,17,1,32,,,,,,,,,,,,,,,,,,,,,,,,,,,,,,,,,,,,,,,,,,,,,,,,,,,,,,,,,,,,,,,,,,,,,,,,,,,,,,,,,,,,,,,,,,,,,,,,,,,,,,,,,,,,,,,,,,,,,,,,,,,,,,,,,,,,,,,,,,,,,,,,,,,,,,,,,,,,,,,,,
,8875,CBA,22/01/2005,001,2023-09-24_18h12.34.874,OS3_Mult_verification,2022.2.4,Win32,59.32957579,,,27,1.3668,1,"[""2"",""7"",""return""]","[0.5923000000007335,1.0231000000014774,1.3168000000007396]",1,27,58,14,1,27,,,,,,,,,,,,,,,,,,,,,,,,,,,,,,,,,,,,,,,,,,,,,,,,,,,,,,,,,,,,,,,,,,,,,,,,,,,,,,,,,,,,,,,,,,,,,,,,,,,,,,,,,,,,,,,,,,,,,,,,,,,,,,,,,,,,,,,,,,,,,,,,,,,,,,,,,,,,,,,,,
,8875,CBA,22/01/2005,001,2023-09-24_18h12.34.874,OS3_Mult_verification,2022.2.4,Win32,59.32957579,,,72,1.4665,1,"[""7"",""2"",""return""]","[0.8379999999999939,1.3095999999977437,1.4193999999984896]",1,28,59,29,1,72,,,,,,,,,,,,,,,,,,,,,,,,,,,,,,,,,,,,,,,,,,,,,,,,,,,,,,,,,,,,,,,,,,,,,,,,,,,,,,,,,,,,,,,,,,,,,,,,,,,,,,,,,,,,,,,,,,,,,,,,,,,,,,,,,,,,,,,,,,,,,,,,,,,,,,,,,,,,,,,,,
,8875,CBA,22/01/2005,001,2023-09-24_18h12.34.874,OS3_Mult_verification,2022.2.4,Win32,59.32957579,,,12,0.9501,1,"[""1"",""2"",""return""]","[0.6011000000014803,0.7340000000000089,0.9139000000022293]",1,29,60,5,1,12,,,,,,,,,,,,,,,,,,,,,,,,,,,,,,,,,,,,,,,,,,,,,,,,,,,,,,,,,,,,,,,,,,,,,,,,,,,,,,,,,,,,,,,,,,,,,,,,,,,,,,,,,,,,,,,,,,,,,,,,,,,,,,,,,,,,,,,,,,,,,,,,,,,,,,,,,,,,,,,,,
,8875,CBA,22/01/2005,001,2023-09-24_18h12.34.874,OS3_Mult_verification,2022.2.4,Win32,59.32957579,,,6,0.9339,1,"[""6"",""return""]","[0.7168999999985317,0.8860999999977821]",1,30,61,1,1,6,,,,,,,,,,,,,,,,,,,,,,,,,,,,,,,,,,,,,,,,,,,,,,,,,,,,,,,,,,,,,,,,,,,,,,,,,,,,,,,,,,,,,,,,,,,,,,,,,,,,,,,,,,,,,,,,,,,,,,,,,,,,,,,,,,,,,,,,,,,,,,,,,,,,,,,,,,,,,,,,,
,8875,CBA,22/01/2005,001,2023-09-24_18h12.34.874,OS3_Mult_verification,2022.2.4,Win32,59.32957579,,,,,,,,,,,,,,space,4.9353,,,,,,,,,,,,,,,,,,,,,,,,,,,,,,,,,,,,,,,,,,,,,,,,,,,,,,,,,,,,,,,,,,,,,,,,,,,,,,,,,,,,,,,,,,,,,,,,,,,,,,,,,,,,,,,,,,,,,,,,,,,,,,,,,,,,,,,,,,,,,,,,,,,,,,,,,,,,,,,
,8875,CBA,22/01/2005,001,2023-09-24_18h12.34.874,OS3_Mult_verification,2022.2.4,Win32,59.32957579,,,,,,,,,,,,,,,,,,,,,,,,,,,,,,,,,,,,,,,,,,,,,,,,,,,,,,,,,,,,,,,,,,,,,,,,,,,,,,,,,,,,,,,,,,,,,,,,,,,,,,,,,,,,,,,,,,,,,,,,,,,,,,,,,,,,,,,,,,,,,,,,,,,,,,,,,,,,,,,,,,,,,,,,,,,,,,
,8875,CBA,22/01/2005,001,2023-09-24_18h12.34.874,OS3_Mult_verification,2022.2.4,Win32,59.32957579,,,,,,,,,,,,,,,,space,6.2267,,,,,,,,,,,,,,,,,,,,,,,,,,,,,,,,,,,,,,,,,,,,,,,,,,,,,,,,,,,,,,,,,,,,,,,,,,,,,,,,,,,,,,,,,,,,,,,,,,,,,,,,,,,,,,,,,,,,,,,,,,,,,,,,,,,,,,,,,,,,,,,,,,,,,,,,,,,,,
,8875,CBA,22/01/2005,001,2023-09-24_18h12.34.874,OS3_Mult_verification,2022.2.4,Win32,59.32957579,,,,,,,,,,,,,,,,,,20,2.2765,1,"[""2"",""0"",""return""]","[1.4356000000015001,1.6832000000029836,1.9739000000022315]",0,0,0,1,1,2 × 10 =,20,,,,,,,,,,,,,,,,,,,,,,,,,,,,,,,,,,,,,,,,,,,,,,,,,,,,,,,,,,,,,,,,,,,,,,,,,,,,,,,,,,,,,,,,,,,,,,,,,,,,,,,,,,,,,,,,,,,,,,,,,,,,,,,,,,,,,,,,,,,,,,,,,
,8875,CBA,22/01/2005,001,2023-09-24_18h12.34.874,OS3_Mult_verification,2022.2.4,Win32,59.32957579,,,,,,,,,,,,,,,,,,7,1.733,1,"[""7"",""return""]","[1.2635999999977798,1.4238999999985253]",0,1,1,0,1,1 × 7 =,7,,,,,,,,,,,,,,,,,,,,,,,,,,,,,,,,,,,,,,,,,,,,,,,,,,,,,,,,,,,,,,,,,,,,,,,,,,,,,,,,,,,,,,,,,,,,,,,,,,,,,,,,,,,,,,,,,,,,,,,,,,,,,,,,,,,,,,,,,,,,,,,,,
,8875,CBA,22/01/2005,001,2023-09-24_18h12.34.874,OS3_Mult_verification,2022.2.4,Win32,59.32957579,,,,,,,,,,,,,,,,,,22,1.5009,1,"[""2"",""2"",""return""]","[0.8473999999985153,1.016999999999996,1.201899999998517]",0,2,2,2,1,2 × 11 =,22,,,,,,,,,,,,,,,,,,,,,,,,,,,,,,,,,,,,,,,,,,,,,,,,,,,,,,,,,,,,,,,,,,,,,,,,,,,,,,,,,,,,,,,,,,,,,,,,,,,,,,,,,,,,,,,,,,,,,,,,,,,,,,,,,,,,,,,,,,,,,,,,,
,8875,CBA,22/01/2005,001,2023-09-24_18h12.34.874,OS3_Mult_verification,2022.2.4,Win32,59.32957579,,,,,,,,,,,,,,,,,,,,,,,,,,,,,,,,,,,,,,,,,,,,,,,,,,,,,,,,,,,,,,,,,,,,,,,,,,,,,,,,,,,,,,,,,,,,,,,,,,,,,,,,,,,,,,,,,,,,,,,,,,,,,,,,,,,,,,,,,,,,,,,,,,,,,,,,,,,,,,,,,,,,,,,,,,,,,,
,8875,CBA,22/01/2005,001,2023-09-24_18h12.34.874,OS3_Mult_verification,2022.2.4,Win32,59.32957579,,,,,,,,,,,,,,,,,,,,,,,,,,,,,,,,,,,,,,,,,,,,,,,,,,,,,,,,,,,,,,,,,,,,,,,,,,,,,,,,,,,,,,,,,,,,,,,,,,,,,,,,,,,,,,,,,,,,,,,,,,,,,,,,,,,,,,,,,,,,,,,,,,,,,,,,,,,,,,,,,,,,,,,,,,,,,,
,8875,CBA,22/01/2005,001,2023-09-24_18h12.34.874,OS3_Mult_verification,2022.2.4,Win32,59.32957579,,,,,,,,,,,,,,,,,,6,1.7591,1,"[""6"",""return""]","[1.262899999998524,1.4508999999985122]",,,,,,2 × 3 =,6,0,0,0,0,1,,,,,,,,,,,,,,,,,,,,,,,,,,,,,,,,,,,,,,,,,,,,,,,,,,,,,,,,,,,,,,,,,,,,,,,,,,,,,,,,,,,,,,,,,,,,,,,,,,,,,,,,,,,,,,,,,,,,,,,,,,,,,,,,,,,,,,,,,,,,
,8875,CBA,22/01/2005,001,2023-09-24_18h12.34.874,OS3_Mult_verification,2022.2.4,Win32,59.32957579,,,,,,,,,,,,,,,,,,40,2.2332,1,"[""4"",""0"",""return""]","[1.3666999999992413,1.7866999999992572,1.9173999999985085]",,,,,,5 × 8 =,40,0,1,1,1,1,,,,,,,,,,,,,,,,,,,,,,,,,,,,,,,,,,,,,,,,,,,,,,,,,,,,,,,,,,,,,,,,,,,,,,,,,,,,,,,,,,,,,,,,,,,,,,,,,,,,,,,,,,,,,,,,,,,,,,,,,,,,,,,,,,,,,,,,,,,,
,8875,CBA,22/01/2005,001,2023-09-24_18h12.34.874,OS3_Mult_verification,2022.2.4,Win32,59.32957579,,,,,,,,,,,,,,,,,,12,1.8661,1,"[""1"",""2"",""return""]","[1.3239000000022543,1.4271000000015022,1.5556000000015047]",,,,,,3 × 4 =,12,0,2,2,2,1,,,,,,,,,,,,,,,,,,,,,,,,,,,,,,,,,,,,,,,,,,,,,,,,,,,,,,,,,,,,,,,,,,,,,,,,,,,,,,,,,,,,,,,,,,,,,,,,,,,,,,,,,,,,,,,,,,,,,,,,,,,,,,,,,,,,,,,,,,,,
,8875,CBA,22/01/2005,001,2023-09-24_18h12.34.874,OS3_Mult_verification,2022.2.4,Win32,59.32957579,,,,,,,,,,,,,,,,,,15,1.9323,1,"[""1"",""5"",""return""]","[1.0101999999992586,1.242600000001488,1.6186999999992508]",,,,,,5 × 3 =,15,0,3,3,3,1,,,,,,,,,,,,,,,,,,,,,,,,,,,,,,,,,,,,,,,,,,,,,,,,,,,,,,,,,,,,,,,,,,,,,,,,,,,,,,,,,,,,,,,,,,,,,,,,,,,,,,,,,,,,,,,,,,,,,,,,,,,,,,,,,,,,,,,,,,,,
,8875,CBA,22/01/2005,001,2023-09-24_18h12.34.874,OS3_Mult_verification,2022.2.4,Win32,59.32957579,,,,,,,,,,,,,,,,,,8,1.9671,1,"[""8"",""return""]","[1.3926999999992518,1.6671000000015113]",,,,,,2 × 4 =,8,0,4,4,4,1,,,,,,,,,,,,,,,,,,,,,,,,,,,,,,,,,,,,,,,,,,,,,,,,,,,,,,,,,,,,,,,,,,,,,,,,,,,,,,,,,,,,,,,,,,,,,,,,,,,,,,,,,,,,,,,,,,,,,,,,,,,,,,,,,,,,,,,,,,,,
,8875,CBA,22/01/2005,001,2023-09-24_18h12.34.874,OS3_Mult_verification,2022.2.4,Win32,59.32957579,,,,,,,,,,,,,,,,,,4,1.4158,1,"[""4"",""return""]","[0.9404000000022279,1.1172000000029811]",,,,,,2 × 2 =,4,0,5,5,5,1,,,,,,,,,,,,,,,,,,,,,,,,,,,,,,,,,,,,,,,,,,,,,,,,,,,,,,,,,,,,,,,,,,,,,,,,,,,,,,,,,,,,,,,,,,,,,,,,,,,,,,,,,,,,,,,,,,,,,,,,,,,,,,,,,,,,,,,,,,,,
,8875,CBA,22/01/2005,001,2023-09-24_18h12.34.874,OS3_Mult_verification,2022.2.4,Win32,59.32957579,,,,,,,,,,,,,,,,,,20,2.0161,1,"[""2"",""0"",""return""]","[1.100500000000011,1.5041999999992584,1.7001999999992563]",,,,,,4 × 5 =,20,0,6,6,6,1,,,,,,,,,,,,,,,,,,,,,,,,,,,,,,,,,,,,,,,,,,,,,,,,,,,,,,,,,,,,,,,,,,,,,,,,,,,,,,,,,,,,,,,,,,,,,,,,,,,,,,,,,,,,,,,,,,,,,,,,,,,,,,,,,,,,,,,,,,,,
,8875,CBA,22/01/2005,001,2023-09-24_18h12.34.874,OS3_Mult_verification,2022.2.4,Win32,59.32957579,,,,,,,,,,,,,,,,,,9,2.7851,1,"[""6"",""backspace"",""9"",""return""]","[1.0341999999992595,1.9953999999985115,2.3053999999985137,2.4834999999999923]",,,,,,3 × 3 =,9,0,7,7,7,1,,,,,,,,,,,,,,,,,,,,,,,,,,,,,,,,,,,,,,,,,,,,,,,,,,,,,,,,,,,,,,,,,,,,,,,,,,,,,,,,,,,,,,,,,,,,,,,,,,,,,,,,,,,,,,,,,,,,,,,,,,,,,,,,,,,,,,,,,,,,
,8875,CBA,22/01/2005,001,2023-09-24_18h12.34.874,OS3_Mult_verification,2022.2.4,Win32,59.32957579,,,,,,,,,,,,,,,,,,10,1.7639,1,"[""1"",""0"",""return""]","[0.8798000000007562,1.2644999999999982,1.459200000002994]",,,,,,5 × 2 =,10,0,8,8,8,1,,,,,,,,,,,,,,,,,,,,,,,,,,,,,,,,,,,,,,,,,,,,,,,,,,,,,,,,,,,,,,,,,,,,,,,,,,,,,,,,,,,,,,,,,,,,,,,,,,,,,,,,,,,,,,,,,,,,,,,,,,,,,,,,,,,,,,,,,,,,
,8875,CBA,22/01/2005,001,2023-09-24_18h12.34.874,OS3_Mult_verification,2022.2.4,Win32,59.32957579,,,,,,,,,,,,,,,,,,16,2.3997,1,"[""1"",""6"",""return""]","[1.6301999999992347,1.9256999999992388,2.0974999999999966]",,,,,,4 × 4 =,16,0,9,9,9,1,,,,,,,,,,,,,,,,,,,,,,,,,,,,,,,,,,,,,,,,,,,,,,,,,,,,,,,,,,,,,,,,,,,,,,,,,,,,,,,,,,,,,,,,,,,,,,,,,,,,,,,,,,,,,,,,,,,,,,,,,,,,,,,,,,,,,,,,,,,,
,8875,CBA,22/01/2005,001,2023-09-24_18h12.34.874,OS3_Mult_verification,2022.2.4,Win32,59.32957579,,,,,,,,,,,,,,,,,,24,4.1688,1,"[""2"",""4"",""return""]","[2.791999999999973,3.162400000002208,3.867999999999995]",,,,,,8 × 3 =,24,0,10,10,10,1,,,,,,,,,,,,,,,,,,,,,,,,,,,,,,,,,,,,,,,,,,,,,,,,,,,,,,,,,,,,,,,,,,,,,,,,,,,,,,,,,,,,,,,,,,,,,,,,,,,,,,,,,,,,,,,,,,,,,,,,,,,,,,,,,,,,,,,,,,,,
,8875,CBA,22/01/2005,001,2023-09-24_18h12.34.874,OS3_Mult_verification,2022.2.4,Win32,59.32957579,,,,,,,,,,,,,,,,,,30,10.1659,1,"[""3"",""5"",""backspace"",""0"",""return""]","[4.2996999999992624,4.634100000001496,8.72810000000149,9.599999999999994,9.866600000001512]",,,,,,6 × 5 =,30,0,11,11,11,1,,,,,,,,,,,,,,,,,,,,,,,,,,,,,,,,,,,,,,,,,,,,,,,,,,,,,,,,,,,,,,,,,,,,,,,,,,,,,,,,,,,,,,,,,,,,,,,,,,,,,,,,,,,,,,,,,,,,,,,,,,,,,,,,,,,,,,,,,,,,
,8875,CBA,22/01/2005,001,2023-09-24_18h12.34.874,OS3_Mult_verification,2022.2.4,Win32,59.32957579,,,,,,,,,,,,,,,,,,14,1.5309,1,"[""1"",""4"",""return""]","[0.8950999999977967,1.100500000000011,1.2258999999985463]",,,,,,7 × 2 =,14,0,12,12,12,1,,,,,,,,,,,,,,,,,,,,,,,,,,,,,,,,,,,,,,,,,,,,,,,,,,,,,,,,,,,,,,,,,,,,,,,,,,,,,,,,,,,,,,,,,,,,,,,,,,,,,,,,,,,,,,,,,,,,,,,,,,,,,,,,,,,,,,,,,,,,
,8875,CBA,22/01/2005,001,2023-09-24_18h12.34.874,OS3_Mult_verification,2022.2.4,Win32,59.32957579,,,,,,,,,,,,,,,,,,27,2.1489,1,"[""2"",""7"",""return""]","[1.3468999999985272,1.688699999999244,1.8423000000007619]",,,,,,3 × 9 =,27,0,13,13,13,1,,,,,,,,,,,,,,,,,,,,,,,,,,,,,,,,,,,,,,,,,,,,,,,,,,,,,,,,,,,,,,,,,,,,,,,,,,,,,,,,,,,,,,,,,,,,,,,,,,,,,,,,,,,,,,,,,,,,,,,,,,,,,,,,,,,,,,,,,,,,
,8875,CBA,22/01/2005,001,2023-09-24_18h12.34.874,OS3_Mult_verification,2022.2.4,Win32,59.32957579,,,,,,,,,,,,,,,,,,16,2.0163,1,"[""1"",""6"",""return""]","[0.9555000000000291,1.5603000000007796,1.7246000000014874]",,,,,,2 × 8 =,16,0,14,14,14,1,,,,,,,,,,,,,,,,,,,,,,,,,,,,,,,,,,,,,,,,,,,,,,,,,,,,,,,,,,,,,,,,,,,,,,,,,,,,,,,,,,,,,,,,,,,,,,,,,,,,,,,,,,,,,,,,,,,,,,,,,,,,,,,,,,,,,,,,,,,,
,8875,CBA,22/01/2005,001,2023-09-24_18h12.34.874,OS3_Mult_verification,2022.2.4,Win32,59.32957579,,,,,,,,,,,,,,,,,,24,4.783,1,"[""2"",""4"",""return""]","[2.6920000000000073,4.2216999999992595,4.491400000002216]",,,,,,4 × 6 =,24,0,15,15,15,1,,,,,,,,,,,,,,,,,,,,,,,,,,,,,,,,,,,,,,,,,,,,,,,,,,,,,,,,,,,,,,,,,,,,,,,,,,,,,,,,,,,,,,,,,,,,,,,,,,,,,,,,,,,,,,,,,,,,,,,,,,,,,,,,,,,,,,,,,,,,
,8875,CBA,22/01/2005,001,2023-09-24_18h12.34.874,OS3_Mult_verification,2022.2.4,Win32,59.32957579,,,,,,,,,,,,,,,,,,21,2.9663,1,"[""2"",""1"",""return""]","[1.732500000000016,1.8841999999992254,2.666499999999985]",,,,,,7 × 3 =,21,0,16,16,16,1,,,,,,,,,,,,,,,,,,,,,,,,,,,,,,,,,,,,,,,,,,,,,,,,,,,,,,,,,,,,,,,,,,,,,,,,,,,,,,,,,,,,,,,,,,,,,,,,,,,,,,,,,,,,,,,,,,,,,,,,,,,,,,,,,,,,,,,,,,,,
,8875,CBA,22/01/2005,001,2023-09-24_18h12.34.874,OS3_Mult_verification,2022.2.4,Win32,59.32957579,,,,,,,,,,,,,,,,,,27,2.4164,1,"[""2"",""7"",""return""]","[1.538099999997769,1.8690999999977294,2.1225000000000023]",,,,,,9 × 3 =,27,0,17,17,17,1,,,,,,,,,,,,,,,,,,,,,,,,,,,,,,,,,,,,,,,,,,,,,,,,,,,,,,,,,,,,,,,,,,,,,,,,,,,,,,,,,,,,,,,,,,,,,,,,,,,,,,,,,,,,,,,,,,,,,,,,,,,,,,,,,,,,,,,,,,,,
,8875,CBA,22/01/2005,001,2023-09-24_18h12.34.874,OS3_Mult_verification,2022.2.4,Win32,59.32957579,,,,,,,,,,,,,,,,,,28,5.8491,1,"[""2"",""8"",""return""]","[2.349399999998525,5.316500000000019,5.554399999998509]",,,,,,4 × 7 =,28,0,18,18,18,1,,,,,,,,,,,,,,,,,,,,,,,,,,,,,,,,,,,,,,,,,,,,,,,,,,,,,,,,,,,,,,,,,,,,,,,,,,,,,,,,,,,,,,,,,,,,,,,,,,,,,,,,,,,,,,,,,,,,,,,,,,,,,,,,,,,,,,,,,,,,
,8875,CBA,22/01/2005,001,2023-09-24_18h12.34.874,OS3_Mult_verification,2022.2.4,Win32,59.32957579,,,,,,,,,,,,,,,,,,18,2.6163,1,"[""1"",""8"",""return""]","[1.459600000001501,2.0078999999985285,2.3158999999985213]",,,,,,2 × 9 =,18,0,19,19,19,1,,,,,,,,,,,,,,,,,,,,,,,,,,,,,,,,,,,,,,,,,,,,,,,,,,,,,,,,,,,,,,,,,,,,,,,,,,,,,,,,,,,,,,,,,,,,,,,,,,,,,,,,,,,,,,,,,,,,,,,,,,,,,,,,,,,,,,,,,,,,
,8875,CBA,22/01/2005,001,2023-09-24_18h12.34.874,OS3_Mult_verification,2022.2.4,Win32,59.32957579,,,,,,,,,,,,,,,,,,63,7.7162,0,"[""6"",""3"",""return""]","[6.966000000000008,7.265300000000764,7.422700000002976]",,,,,,9 × 8 =,72,0,20,20,20,1,,,,,,,,,,,,,,,,,,,,,,,,,,,,,,,,,,,,,,,,,,,,,,,,,,,,,,,,,,,,,,,,,,,,,,,,,,,,,,,,,,,,,,,,,,,,,,,,,,,,,,,,,,,,,,,,,,,,,,,,,,,,,,,,,,,,,,,,,,,,
,8875,CBA,22/01/2005,001,2023-09-24_18h12.34.874,OS3_Mult_verification,2022.2.4,Win32,59.32957579,,,,,,,,,,,,,,,,,,42,9.7668,1,"[""4"",""2"",""return""]","[9.100399999998501,9.271300000000736,9.478199999999276]",,,,,,7 × 6 =,42,0,21,21,21,1,,,,,,,,,,,,,,,,,,,,,,,,,,,,,,,,,,,,,,,,,,,,,,,,,,,,,,,,,,,,,,,,,,,,,,,,,,,,,,,,,,,,,,,,,,,,,,,,,,,,,,,,,,,,,,,,,,,,,,,,,,,,,,,,,,,,,,,,,,,,
,8875,CBA,22/01/2005,001,2023-09-24_18h12.34.874,OS3_Mult_verification,2022.2.4,Win32,59.32957579,,,,,,,,,,,,,,,,,,45,7.0159,0,"[""4"",""5"",""return""]","[6.408599999997762,6.599199999999257,6.720800000000736]",,,,,,6 × 9 =,54,0,22,22,22,1,,,,,,,,,,,,,,,,,,,,,,,,,,,,,,,,,,,,,,,,,,,,,,,,,,,,,,,,,,,,,,,,,,,,,,,,,,,,,,,,,,,,,,,,,,,,,,,,,,,,,,,,,,,,,,,,,,,,,,,,,,,,,,,,,,,,,,,,,,,,
,8875,CBA,22/01/2005,001,2023-09-24_18h12.34.874,OS3_Mult_verification,2022.2.4,Win32,59.32957579,,,,,,,,,,,,,,,,,,45,4.3328,1,"[""4"",""5"",""return""]","[1.6136000000014974,1.7946000000014806,4.044100000001492]",,,,,,9 × 5 =,45,0,23,23,23,1,,,,,,,,,,,,,,,,,,,,,,,,,,,,,,,,,,,,,,,,,,,,,,,,,,,,,,,,,,,,,,,,,,,,,,,,,,,,,,,,,,,,,,,,,,,,,,,,,,,,,,,,,,,,,,,,,,,,,,,,,,,,,,,,,,,,,,,,,,,,
,8875,CBA,22/01/2005,001,2023-09-24_18h12.34.874,OS3_Mult_verification,2022.2.4,Win32,59.32957579,,,,,,,,,,,,,,,,,,5,2.367,0,"[""5""]",[2.0024999999999977],,,,,,8 × 7 =,56,0,24,24,24,1,,,,,,,,,,,,,,,,,,,,,,,,,,,,,,,,,,,,,,,,,,,,,,,,,,,,,,,,,,,,,,,,,,,,,,,,,,,,,,,,,,,,,,,,,,,,,,,,,,,,,,,,,,,,,,,,,,,,,,,,,,,,,,,,,,,,,,,,,,,,
,8875,CBA,22/01/2005,001,2023-09-24_18h12.34.874,OS3_Mult_verification,2022.2.4,Win32,59.32957579,,,,,,,,,,,,,,,,space,1.3997,,,,,,,,,,,,,,,,,,space,6.1891,321,1.3997,1,"[""3"",""2"",""1"",""return""]","[0.49500000000000455,0.6849000000022443,0.9501999999992563,1.3728000000007228]",0,0,0,1,1,3,321,Audio/321.mp3,practice,,,,,,,,,,,,,,,,,,,,,,,,,,,,,,,,,,,,,,,,,,,,,,,,,,,,,,,,,,,,,,,,,,,,,,,,,,,,,,,,,,,,,,,,,,,,,,,,,,,,,,,,,,,,,,,,,,,,,,,,,,,,
,8875,CBA,22/01/2005,001,2023-09-24_18h12.34.874,OS3_Mult_verification,2022.2.4,Win32,59.32957579,,,,,,,,,,,,,,,,,,,,,,,,,,,,,,,,,,,,,911,1.7333,1,"[""9"",""1"",""1"",""return""]","[0.7717000000029657,1.2654000000022734,1.4437000000029911,1.7098000000007687]",0,1,1,2,1,3,911,Audio/911.mp3,practice,,,,,,,,,,,,,,,,,,,,,,,,,,,,,,,,,,,,,,,,,,,,,,,,,,,,,,,,,,,,,,,,,,,,,,,,,,,,,,,,,,,,,,,,,,,,,,,,,,,,,,,,,,,,,,,,,,,,,,,,,,,,
,8875,CBA,22/01/2005,001,2023-09-24_18h12.34.874,OS3_Mult_verification,2022.2.4,Win32,59.32957579,,,,,,,,,,,,,,,,,,,,,,,,,,,,,,,,,,,,,123,1.1825,1,"[""1"",""2"",""3"",""return""]","[0.44539999999852853,0.5933999999984962,0.8324999999999818,1.1497999999970148]",0,2,2,0,1,3,123,Audio/123.mp3,practice,,,,,,,,,,,,,,,,,,,,,,,,,,,,,,,,,,,,,,,,,,,,,,,,,,,,,,,,,,,,,,,,,,,,,,,,,,,,,,,,,,,,,,,,,,,,,,,,,,,,,,,,,,,,,,,,,,,,,,,,,,,,
,8875,CBA,22/01/2005,001,2023-09-24_18h12.34.874,OS3_Mult_verification,2022.2.4,Win32,59.32957579,,,,,,,,,,,,,,,,,,,,,,,,,,,,,,,,,,,,,46,1.1664,1,"[""4"",""6"",""return""]","[0.7454999999999927,0.8919999999999959,1.1335999999977844]",,,,,,2,46,Audio/46.mp3,EGNER,0,0,0,0,1,,,,,,,,,,,,,,,,,,,,,,,,,,,,,,,,,,,,,,,,,,,,,,,,,,,,,,,,,,,,,,,,,,,,,,,,,,,,,,,,,,,,,,,,,,,,,,,,,,,,,,,,,,,,,,,,,,,,,,,
,8875,CBA,22/01/2005,001,2023-09-24_18h12.34.874,OS3_Mult_verification,2022.2.4,Win32,59.32957579,,,,,,,,,,,,,,,,,,,,,,,,,,,,,,,,,,,,,82,1.1666,1,"[""8"",""2"",""return""]","[0.35710000000148057,0.85450000000003,1.1341000000015242]",,,,,,2,82,Audio/82.mp3,EGNER,0,1,1,1,1,,,,,,,,,,,,,,,,,,,,,,,,,,,,,,,,,,,,,,,,,,,,,,,,,,,,,,,,,,,,,,,,,,,,,,,,,,,,,,,,,,,,,,,,,,,,,,,,,,,,,,,,,,,,,,,,,,,,,,,
,8875,CBA,22/01/2005,001,2023-09-24_18h12.34.874,OS3_Mult_verification,2022.2.4,Win32,59.32957579,,,,,,,,,,,,,,,,,,,,,,,,,,,,,,,,,,,,,,,,,,,,,,,,,,,,,,,,0,0,0,0,1,digitSpan_stim/twoAudio.xlsx,,,,,,,,,,,,,,,,,,,,,,,,,,,,,,,,,,,,,,,,,,,,,,,,,,,,,,,,,,,,,,,,,,,,,,,,,,,,,,,,,,,,,,,,,,,,,,,,,,,,,,,,,,,,,,,,,
,8875,CBA,22/01/2005,001,2023-09-24_18h12.34.874,OS3_Mult_verification,2022.2.4,Win32,59.32957579,,,,,,,,,,,,,,,,,,,,,,,,,,,,,,,,,,,,,157,1.1498,1,"[""1"",""5"",""7"",""return""]","[0.35190000000221744,0.6164999999999736,0.8891000000014628,1.121499999999969]",,,,,,3,157,Audio/157.mp3,EGNER,0,0,0,0,1,,,,,,,,,,,,,,,,,,,,,,,,,,,,,,,,,,,,,,,,,,,,,,,,,,,,,,,,,,,,,,,,,,,,,,,,,,,,,,,,,,,,,,,,,,,,,,,,,,,,,,,,,,,,,,,,,,,,,,,
,8875,CBA,22/01/2005,001,2023-09-24_18h12.34.874,OS3_Mult_verification,2022.2.4,Win32,59.32957579,,,,,,,,,,,,,,,,,,,,,,,,,,,,,,,,,,,,,397,1.2993,1,"[""3"",""9"",""7"",""return""]","[0.29420000000300206,0.7381000000015092,0.9158000000007291,1.2793000000007737]",,,,,,3,397,Audio/397.mp3,EGNER,0,1,1,1,1,,,,,,,,,,,,,,,,,,,,,,,,,,,,,,,,,,,,,,,,,,,,,,,,,,,,,,,,,,,,,,,,,,,,,,,,,,,,,,,,,,,,,,,,,,,,,,,,,,,,,,,,,,,,,,,,,,,,,,,
,8875,CBA,22/01/2005,001,2023-09-24_18h12.34.874,OS3_Mult_verification,2022.2.4,Win32,59.32957579,,,,,,,,,,,,,,,,,,,,,,,,,,,,,,,,,,,,,,,,,,,,,,,,,,,,,,,,0,1,1,1,1,digitSpan_stim/threeAudio.xlsx,,,,,,,,,,,,,,,,,,,,,,,,,,,,,,,,,,,,,,,,,,,,,,,,,,,,,,,,,,,,,,,,,,,,,,,,,,,,,,,,,,,,,,,,,,,,,,,,,,,,,,,,,,,,,,,,,
,8875,CBA,22/01/2005,001,2023-09-24_18h12.34.874,OS3_Mult_verification,2022.2.4,Win32,59.32957579,,,,,,,,,,,,,,,,,,,,,,,,,,,,,,,,,,,,,6352,2.0992,1,"[""6"",""3"",""5"",""2"",""return""]","[0.48340000000223426,0.8840000000000146,1.1583000000007928,1.6064000000022816,2.0663000000007514]",,,,,,4,6352,Audio/6352.mp3,EGNER,0,0,0,0,1,,,,,,,,,,,,,,,,,,,,,,,,,,,,,,,,,,,,,,,,,,,,,,,,,,,,,,,,,,,,,,,,,,,,,,,,,,,,,,,,,,,,,,,,,,,,,,,,,,,,,,,,,,,,,,,,,,,,,,,
,8875,CBA,22/01/2005,001,2023-09-24_18h12.34.874,OS3_Mult_verification,2022.2.4,Win32,59.32957579,,,,,,,,,,,,,,,,,,,,,,,,,,,,,,,,,,,,,9184,2.3166,1,"[""9"",""1"",""8"",""4"",""return""]","[0.47569999999922175,1.0363000000007219,1.4540000000000077,1.9244999999999663,2.2959999999999923]",,,,,,4,9184,Audio/9184.mp3,EGNER,0,1,1,1,1,,,,,,,,,,,,,,,,,,,,,,,,,,,,,,,,,,,,,,,,,,,,,,,,,,,,,,,,,,,,,,,,,,,,,,,,,,,,,,,,,,,,,,,,,,,,,,,,,,,,,,,,,,,,,,,,,,,,,,,
,8875,CBA,22/01/2005,001,2023-09-24_18h12.34.874,OS3_Mult_verification,2022.2.4,Win32,59.32957579,,,,,,,,,,,,,,,,,,,,,,,,,,,,,,,,,,,,,,,,,,,,,,,,,,,,,,,,0,2,2,2,1,digitSpan_stim/fourAudio.xlsx,,,,,,,,,,,,,,,,,,,,,,,,,,,,,,,,,,,,,,,,,,,,,,,,,,,,,,,,,,,,,,,,,,,,,,,,,,,,,,,,,,,,,,,,,,,,,,,,,,,,,,,,,,,,,,,,,
,8875,CBA,22/01/2005,001,2023-09-24_18h12.34.874,OS3_Mult_verification,2022.2.4,Win32,59.32957579,,,,,,,,,,,,,,,,,,,,,,,,,,,,,,,,,,,,,59281,2.2996,1,"[""5"",""9"",""2"",""8"",""1"",""return""]","[0.4003999999985126,0.734800000000746,1.2786000000015179,1.6271999999992772,1.9856999999992695,2.2755000000000223]",,,,,,5,59281,Audio/59281.mp3,EGNER,0,0,0,0,1,,,,,,,,,,,,,,,,,,,,,,,,,,,,,,,,,,,,,,,,,,,,,,,,,,,,,,,,,,,,,,,,,,,,,,,,,,,,,,,,,,,,,,,,,,,,,,,,,,,,,,,,,,,,,,,,,,,,,,,
,8875,CBA,22/01/2005,001,2023-09-24_18h12.34.874,OS3_Mult_verification,2022.2.4,Win32,59.32957579,,,,,,,,,,,,,,,,,,,,,,,,,,,,,,,,,,,,,64738,3.967,1,"[""6"",""4"",""7"",""3"",""8"",""return""]","[0.4221999999992363,0.6506999999992331,0.9218999999985158,1.8689999999999714,2.817899999998474,3.946800000000735]",,,,,,5,64738,Audio/64738.mp3,EGNER,0,1,1,1,1,,,,,,,,,,,,,,,,,,,,,,,,,,,,,,,,,,,,,,,,,,,,,,,,,,,,,,,,,,,,,,,,,,,,,,,,,,,,,,,,,,,,,,,,,,,,,,,,,,,,,,,,,,,,,,,,,,,,,,,
,8875,CBA,22/01/2005,001,2023-09-24_18h12.34.874,OS3_Mult_verification,2022.2.4,Win32,59.32957579,,,,,,,,,,,,,,,,,,,,,,,,,,,,,,,,,,,,,,,,,,,,,,,,,,,,,,,,0,3,3,3,1,digitSpan_stim/fiveAudio.xlsx,,,,,,,,,,,,,,,,,,,,,,,,,,,,,,,,,,,,,,,,,,,,,,,,,,,,,,,,,,,,,,,,,,,,,,,,,,,,,,,,,,,,,,,,,,,,,,,,,,,,,,,,,,,,,,,,,
,8875,CBA,22/01/2005,001,2023-09-24_18h12.34.874,OS3_Mult_verification,2022.2.4,Win32,59.32957579,,,,,,,,,,,,,,,,,,,,,,,,,,,,,,,,,,,,,396172,2.9827,1,"[""3"",""9"",""6"",""1"",""7"",""2"",""return""]","[0.060000000000002274,0.6284000000022161,0.9626999999992449,1.5438000000007719,1.8725000000000023,2.1911999999992418,2.951400000002252]",,,,,,6,396172,Audio/396172.mp3,EGNER,0,0,0,0,1,,,,,,,,,,,,,,,,,,,,,,,,,,,,,,,,,,,,,,,,,,,,,,,,,,,,,,,,,,,,,,,,,,,,,,,,,,,,,,,,,,,,,,,,,,,,,,,,,,,,,,,,,,,,,,,,,,,,,,,
,8875,CBA,22/01/2005,001,2023-09-24_18h12.34.874,OS3_Mult_verification,2022.2.4,Win32,59.32957579,,,,,,,,,,,,,,,,,,,,,,,,,,,,,,,,,,,,,594631,7.4834,1,"[""5"",""9"",""4"",""6"",""3"",""1"",""return""]","[1.0666000000015288,5.317300000000785,5.691100000001484,6.004700000003027,6.700800000000754,7.0358000000007905,7.450500000000034]",,,,,,6,594631,Audio/594631.mp3,EGNER,0,1,1,1,1,,,,,,,,,,,,,,,,,,,,,,,,,,,,,,,,,,,,,,,,,,,,,,,,,,,,,,,,,,,,,,,,,,,,,,,,,,,,,,,,,,,,,,,,,,,,,,,,,,,,,,,,,,,,,,,,,,,,,,,
,8875,CBA,22/01/2005,001,2023-09-24_18h12.34.874,OS3_Mult_verification,2022.2.4,Win32,59.32957579,,,,,,,,,,,,,,,,,,,,,,,,,,,,,,,,,,,,,,,,,,,,,,,,,,,,,,,,0,4,4,4,1,digitSpan_stim/sixAudio.xlsx,,,,,,,,,,,,,,,,,,,,,,,,,,,,,,,,,,,,,,,,,,,,,,,,,,,,,,,,,,,,,,,,,,,,,,,,,,,,,,,,,,,,,,,,,,,,,,,,,,,,,,,,,,,,,,,,,
,8875,CBA,22/01/2005,001,2023-09-24_18h12.34.874,OS3_Mult_verification,2022.2.4,Win32,59.32957579,,,,,,,,,,,,,,,,,,,,,,,,,,,,,,,,,,,,,8247913,11.2835,0,"[""8"",""2"",""4"",""7"",""9"",""1"",""3"",""return""]","[6.7993000000007555,7.196600000001524,7.634300000000735,8.554900000002249,9.151900000002286,9.766100000001472,10.857699999999284,11.254800000000785]",,,,,,7,8241973,Audio/8241973.mp3,EGNER,0,0,0,0,1,,,,,,,,,,,,,,,,,,,,,,,,,,,,,,,,,,,,,,,,,,,,,,,,,,,,,,,,,,,,,,,,,,,,,,,,,,,,,,,,,,,,,,,,,,,,,,,,,,,,,,,,,,,,,,,,,,,,,,,
,8875,CBA,22/01/2005,001,2023-09-24_18h12.34.874,OS3_Mult_verification,2022.2.4,Win32,59.32957579,,,,,,,,,,,,,,,,,,,,,,,,,,,,,,,,,,,,,281467,2.9496,0,"[""2"",""8"",""1"",""4"",""6"",""7"",""return""]","[0.6176000000015165,1.1966000000014674,1.5769999999999982,1.9174000000022033,2.3576999999992267,2.6064000000022816,2.9184000000022934]",,,,,,7,2814367,Audio/2814367.mp3,EGNER,0,1,1,1,1,,,,,,,,,,,,,,,,,,,,,,,,,,,,,,,,,,,,,,,,,,,,,,,,,,,,,,,,,,,,,,,,,,,,,,,,,,,,,,,,,,,,,,,,,,,,,,,,,,,,,,,,,,,,,,,,,,,,,,,
,8875,CBA,22/01/2005,001,2023-09-24_18h12.34.874,OS3_Mult_verification,2022.2.4,Win32,59.32957579,,,,,,,,,,,,,,,,,,,,,,,,,,,,,,,,,,,,,,,,,,,,,,,Egner,,,,,,,,,,,,,,,0,0,0,0,1,digitSpan_stim/Egner.xlsx,,,,,,,,,,,,,,,,,,,,,,,,,,,,,,,,,,,,,,,,,,,,,,,,,,,,,,,,,,,,,,,,,,,,,,,,,,,,,,,,,,,,,,,,,,,,,,,,,,,,,,,,,,,
,8875,CBA,22/01/2005,001,2023-09-24_18h12.34.874,OS3_Mult_verification,2022.2.4,Win32,59.32957579,,,,,,,,,,,,,,,,,,,,,,,,,,,,,,,,,,,,,97,1.4834,1,"[""9"",""7"",""return""]","[1.0746999999992113,1.2338999999984708,1.4589999999999463]",,,,,,2,97,Audio/97.mp3,WAIS,0,0,0,0,1,,,,,,,,,,,,,,,,,,,,,,,,,,,,,,,,,,,,,,,,,,,,,,,,,,,,,,,,,,,,,,,,,,,,,,,,,,,,,,,,,,,,,,,,,,,,,,,,,,,,,,,,,,,,,,,,,,,,,,,
,8875,CBA,22/01/2005,001,2023-09-24_18h12.34.874,OS3_Mult_verification,2022.2.4,Win32,59.32957579,,,,,,,,,,,,,,,,,,,,,,,,,,,,,,,,,,,,,63,1.0332,1,"[""6"",""3"",""return""]","[0.286300000000665,0.7659000000022615,0.9998000000007323]",,,,,,2,63,Audio/63.mp3,WAIS,0,1,1,1,1,,,,,,,,,,,,,,,,,,,,,,,,,,,,,,,,,,,,,,,,,,,,,,,,,,,,,,,,,,,,,,,,,,,,,,,,,,,,,,,,,,,,,,,,,,,,,,,,,,,,,,,,,,,,,,,,,,,,,,,
,8875,CBA,22/01/2005,001,2023-09-24_18h12.34.874,OS3_Mult_verification,2022.2.4,Win32,59.32957579,,,,,,,,,,,,,,,,,,,,,,,,,,,,,,,,,,,,,,,,,,,,,,,,,,,,,,,,0,0,0,0,1,digitSpan_stim/twoWAIS.xlsx,,,,,,,,,,,,,,,,,,,,,,,,,,,,,,,,,,,,,,,,,,,,,,,,,,,,,,,,,,,,,,,,,,,,,,,,,,,,,,,,,,,,,,,,,,,,,,,,,,,,,,,,,,,,,,,,,
,8875,CBA,22/01/2005,001,2023-09-24_18h12.34.874,OS3_Mult_verification,2022.2.4,Win32,59.32957579,,,,,,,,,,,,,,,,,,,,,,,,,,,,,,,,,,,,,582,1.4664,1,"[""5"",""8"",""2"",""return""]","[0.2356999999992695,0.528400000002307,0.9915000000000873,1.4346000000015238]",,,,,,3,582,Audio/582.mp3,WAIS,0,0,0,0,1,,,,,,,,,,,,,,,,,,,,,,,,,,,,,,,,,,,,,,,,,,,,,,,,,,,,,,,,,,,,,,,,,,,,,,,,,,,,,,,,,,,,,,,,,,,,,,,,,,,,,,,,,,,,,,,,,,,,,,,
,8875,CBA,22/01/2005,001,2023-09-24_18h12.34.874,OS3_Mult_verification,2022.2.4,Win32,59.32957579,,,,,,,,,,,,,,,,,,,,,,,,,,,,,,,,,,,,,694,2.7661,1,"[""6"",""9"",""4"",""return""]","[1.1823000000007369,1.6664999999999281,2.349499999999921,2.7381000000013955]",,,,,,3,694,Audio/694.mp3,WAIS,0,1,1,1,1,,,,,,,,,,,,,,,,,,,,,,,,,,,,,,,,,,,,,,,,,,,,,,,,,,,,,,,,,,,,,,,,,,,,,,,,,,,,,,,,,,,,,,,,,,,,,,,,,,,,,,,,,,,,,,,,,,,,,,,
,8875,CBA,22/01/2005,001,2023-09-24_18h12.34.874,OS3_Mult_verification,2022.2.4,Win32,59.32957579,,,,,,,,,,,,,,,,,,,,,,,,,,,,,,,,,,,,,,,,,,,,,,,,,,,,,,,,0,1,1,1,1,digitSpan_stim/threeWAIS.xlsx,,,,,,,,,,,,,,,,,,,,,,,,,,,,,,,,,,,,,,,,,,,,,,,,,,,,,,,,,,,,,,,,,,,,,,,,,,,,,,,,,,,,,,,,,,,,,,,,,,,,,,,,,,,,,,,,,
,8875,CBA,22/01/2005,001,2023-09-24_18h12.34.874,OS3_Mult_verification,2022.2.4,Win32,59.32957579,,,,,,,,,,,,,,,,,,,,,,,,,,,,,,,,,,,,,7286,2.4163,1,"[""7"",""2"",""8"",""6"",""return""]","[0.44480000000078235,1.0287000000029138,1.6129000000022415,2.20799999999997,2.395600000001423]",,,,,,4,7286,Audio/7286.mp3,WAIS,0,0,0,0,1,,,,,,,,,,,,,,,,,,,,,,,,,,,,,,,,,,,,,,,,,,,,,,,,,,,,,,,,,,,,,,,,,,,,,,,,,,,,,,,,,,,,,,,,,,,,,,,,,,,,,,,,,,,,,,,,,,,,,,,
,8875,CBA,22/01/2005,001,2023-09-24_18h12.34.874,OS3_Mult_verification,2022.2.4,Win32,59.32957579,,,,,,,,,,,,,,,,,,,,,,,,,,,,,,,,,,,,,7469,10.2496,0,"[""7"",""4"",""6"",""9"",""return""]","[6.55819999999926,8.394499999999994,9.090399999998453,9.38869999999929,10.21739999999852]",,,,,,4,6439,Audio/6439.mp3,WAIS,0,1,1,1,1,,,,,,,,,,,,,,,,,,,,,,,,,,,,,,,,,,,,,,,,,,,,,,,,,,,,,,,,,,,,,,,,,,,,,,,,,,,,,,,,,,,,,,,,,,,,,,,,,,,,,,,,,,,,,,,,,,,,,,,
,8875,CBA,22/01/2005,001,2023-09-24_18h12.34.874,OS3_Mult_verification,2022.2.4,Win32,59.32957579,,,,,,,,,,,,,,,,,,,,,,,,,,,,,,,,,,,,,,,,,,,,,,,,,,,,,,,,0,2,2,2,1,digitSpan_stim/fourWAIS.xlsx,,,,,,,,,,,,,,,,,,,,,,,,,,,,,,,,,,,,,,,,,,,,,,,,,,,,,,,,,,,,,,,,,,,,,,,,,,,,,,,,,,,,,,,,,,,,,,,,,,,,,,,,,,,,,,,,,
,8875,CBA,22/01/2005,001,2023-09-24_18h12.34.874,OS3_Mult_verification,2022.2.4,Win32,59.32957579,,,,,,,,,,,,,,,,,,,,,,,,,,,,,,,,,,,,,42731,6.5661,1,"[""4"",""2"",""7"",""4"",""1"",""backspace"",""backspace"",""3"",""1"",""return""]","[2.1502000000029966,2.98870000000295,3.4272000000029266,3.9494000000022425,4.092999999999961,4.85260000000153,5.042200000002936,5.684600000001524,5.789600000001428,6.533100000001468]",,,,,,5,42731,Audio/42731.mp3,WAIS,0,0,0,0,1,,,,,,,,,,,,,,,,,,,,,,,,,,,,,,,,,,,,,,,,,,,,,,,,,,,,,,,,,,,,,,,,,,,,,,,,,,,,,,,,,,,,,,,,,,,,,,,,,,,,,,,,,,,,,,,,,,,,,,,
,8875,CBA,22/01/2005,001,2023-09-24_18h12.34.874,OS3_Mult_verification,2022.2.4,Win32,59.32957579,,,,,,,,,,,,,,,,,,,,,,,,,,,,,,,,,,,,,7536,7.2,0,"[""7"",""5"",""3"",""6"",""return""]","[4.189100000001531,4.582900000002269,6.273000000000025,6.613000000000056,7.171500000000037]",,,,,,5,75836,Audio/75836.mp3,WAIS,0,1,1,1,1,,,,,,,,,,,,,,,,,,,,,,,,,,,,,,,,,,,,,,,,,,,,,,,,,,,,,,,,,,,,,,,,,,,,,,,,,,,,,,,,,,,,,,,,,,,,,,,,,,,,,,,,,,,,,,,,,,,,,,,
,8875,CBA,22/01/2005,001,2023-09-24_18h12.34.874,OS3_Mult_verification,2022.2.4,Win32,59.32957579,,,,,,,,,,,,,,,,,,,,,,,,,,,,,,,,,,,,,,,,,,,,,,,,,,,,,,,,0,3,3,3,1,digitSpan_stim/fiveWAIS.xlsx,,,,,,,,,,,,,,,,,,,,,,,,,,,,,,,,,,,,,,,,,,,,,,,,,,,,,,,,,,,,,,,,,,,,,,,,,,,,,,,,,,,,,,,,,,,,,,,,,,,,,,,,,,,,,,,,,
,8875,CBA,22/01/2005,001,2023-09-24_18h12.34.874,OS3_Mult_verification,2022.2.4,Win32,59.32957579,,,,,,,,,,,,,,,,,,,,,,,,,,,,,,,,,,,,,392487,5.1496,1,"[""3"",""9"",""2"",""4"",""8"",""7"",""return""]","[1.5271000000014965,1.9599000000022215,2.391999999999939,3.733600000001502,4.043700000003014,4.421900000002211,5.1269000000022515]",,,,,,6,392487,Audio/392487.mp3,WAIS,0,0,0,0,1,,,,,,,,,,,,,,,,,,,,,,,,,,,,,,,,,,,,,,,,,,,,,,,,,,,,,,,,,,,,,,,,,,,,,,,,,,,,,,,,,,,,,,,,,,,,,,,,,,,,,,,,,,,,,,,,,,,,,,,
,8875,CBA,22/01/2005,001,2023-09-24_18h12.34.874,OS3_Mult_verification,2022.2.4,Win32,59.32957579,,,,,,,,,,,,,,,,,,,,,,,,,,,,,,,,,,,,,619473,4.217,1,"[""6"",""1"",""9"",""4"",""7"",""3"",""return""]","[1.6851000000013983,2.0938000000006696,2.4546999999992067,3.187999999999988,3.551499999999919,3.841800000000717,4.189499999999953]",,,,,,6,619473,Audio/619473.mp3,WAIS,0,1,1,1,1,,,,,,,,,,,,,,,,,,,,,,,,,,,,,,,,,,,,,,,,,,,,,,,,,,,,,,,,,,,,,,,,,,,,,,,,,,,,,,,,,,,,,,,,,,,,,,,,,,,,,,,,,,,,,,,,,,,,,,,
,8875,CBA,22/01/2005,001,2023-09-24_18h12.34.874,OS3_Mult_verification,2022.2.4,Win32,59.32957579,,,,,,,,,,,,,,,,,,,,,,,,,,,,,,,,,,,,,,,,,,,,,,,,,,,,,,,,0,4,4,4,1,digitSpan_stim/sixWAIS.xlsx,,,,,,,,,,,,,,,,,,,,,,,,,,,,,,,,,,,,,,,,,,,,,,,,,,,,,,,,,,,,,,,,,,,,,,,,,,,,,,,,,,,,,,,,,,,,,,,,,,,,,,,,,,,,,,,,,
,8875,CBA,22/01/2005,001,2023-09-24_18h12.34.874,OS3_Mult_verification,2022.2.4,Win32,59.32957579,,,,,,,,,,,,,,,,,,,,,,,,,,,,,,,,,,,,,6917428,5.6665,1,"[""6"",""9"",""1"",""7"",""4"",""2"",""8"",""return""]","[0.29979999999704887,0.7388999999985799,1.1580000000000155,2.999500000000012,3.952199999999266,4.599299999997015,4.994000000000028,5.642000000000053]",,,,,,7,6917428,Audio/6917428.mp3,WAIS,0,0,0,0,1,,,,,,,,,,,,,,,,,,,,,,,,,,,,,,,,,,,,,,,,,,,,,,,,,,,,,,,,,,,,,,,,,,,,,,,,,,,,,,,,,,,,,,,,,,,,,,,,,,,,,,,,,,,,,,,,,,,,,,,
,8875,CBA,22/01/2005,001,2023-09-24_18h12.34.874,OS3_Mult_verification,2022.2.4,Win32,59.32957579,,,,,,,,,,,,,,,,,,,,,,,,,,,,,,,,,,,,,74,9.2329,0,"[""7"",""4"",""return""]","[0.6705999999978758,2.521099999997773,9.209099999997875]",,,,,,7,4179386,Audio/4179386.mp3,WAIS,0,1,1,1,1,,,,,,,,,,,,,,,,,,,,,,,,,,,,,,,,,,,,,,,,,,,,,,,,,,,,,,,,,,,,,,,,,,,,,,,,,,,,,,,,,,,,,,,,,,,,,,,,,,,,,,,,,,,,,,,,,,,,,,,
,8875,CBA,22/01/2005,001,2023-09-24_18h12.34.874,OS3_Mult_verification,2022.2.4,Win32,59.32957579,,,,,,,,,,,,,,,,,,,,,,,,,,,,,,,,,,,,,,,,,,,,,,,,,,,,,,,,0,5,5,5,1,digitSpan_stim/sevenWAIS.xlsx,,,,,,,,,,,,,,,,,,,,,,,,,,,,,,,,,,,,,,,,,,,,,,,,,,,,,,,,,,,,,,,,,,,,,,,,,,,,,,,,,,,,,,,,,,,,,,,,,,,,,,,,,,,,,,,,,
,8875,CBA,22/01/2005,001,2023-09-24_18h12.34.874,OS3_Mult_verification,2022.2.4,Win32,59.32957579,,,,,,,,,,,,,,,,,,,,,,,,,,,,,,,,,,,,,3829674,4.4838,0,"[""3"",""8"",""2"",""9"",""6"",""7"",""4"",""return""]","[0.9345999999977721,1.2638000000007423,1.5960999999978185,1.988300000000777,2.6620000000000346,3.647000000000048,3.8773999999986017,4.462699999999245]",,,,,,8,38296174,Audio/38296174.mp3,WAIS,0,0,0,0,1,,,,,,,,,,,,,,,,,,,,,,,,,,,,,,,,,,,,,,,,,,,,,,,,,,,,,,,,,,,,,,,,,,,,,,,,,,,,,,,,,,,,,,,,,,,,,,,,,,,,,,,,,,,,,,,,,,,,,,,
,8875,CBA,22/01/2005,001,2023-09-24_18h12.34.874,OS3_Mult_verification,2022.2.4,Win32,59.32957579,,,,,,,,,,,,,,,,,,,,,,,,,,,,,,,,,,,,,58127,10.3997,0,"[""5"",""9"",""backspace"",""8"",""1"",""2"",""7"",""return""]","[1.01860000000147,2.046800000000758,2.7175000000037244,3.1333000000007587,8.033699999999271,8.356800000000703,9.743300000000772,10.366400000002272]",,,,,,8,58132647,Audio/58132647.mp3,WAIS,0,1,1,1,1,,,,,,,,,,,,,,,,,,,,,,,,,,,,,,,,,,,,,,,,,,,,,,,,,,,,,,,,,,,,,,,,,,,,,,,,,,,,,,,,,,,,,,,,,,,,,,,,,,,,,,,,,,,,,,,,,,,,,,,
,8875,CBA,22/01/2005,001,2023-09-24_18h12.34.874,OS3_Mult_verification,2022.2.4,Win32,59.32957579,,,,,,,,,,,,,,,,,,,,,,,,,,,,,,,,,,,,,,,,,,,,,,,WAIS,,,,,,,,,,,,,,,0,1,1,1,1,digitSpan_stim/WAIS.xlsx,,,,,,,,,,,,,,,,,,,,,,,,,,,,,,,,,,,,,,,,,,,,,,,,,,,,,,,,,,,,,,,,,,,,,,,,,,,,,,,,,,,,,,,,,,,,,,,,,,,,,,,,,,,
,8875,CBA,22/01/2005,001,2023-09-24_18h12.34.874,OS3_Mult_verification,2022.2.4,Win32,59.32957579,,,,,,,,,,,,,,,,,,,,,,,,,,,,,,,,,,,,,,,,,,,,,,,,,,,,,,,,,,,,,,,,,,,,0,0,0,0,1,,,,,,,,,,,,,,,,,,,,,,,,,,,,,,,,,,,,,,,,,,,,,,,,,,,,,,,,,,,,,,,,,,,,,,,,,,,,,,,,,,,,,,,,,,,,,,,,,,,,,,
,8875,CBA,22/01/2005,001,2023-09-24_18h12.34.874,OS3_Mult_verification,2022.2.4,Win32,59.32957579,,,,,,,,,,,,,,,,,,,,,,,,,,,,,,,,,,,,,,,,,,,,,,,,,,,,,,,,,,,,,,,,,,,,,,,,,0,0,0,0,1,0,0,1,,,,,,,,,,,,,,,,,,,,,,,,,,,,,,,,,,,,,,,,,,,,,,,,,,,,,,,,,,,,,,,,,,,,,,,,,,,,,,,,,,,,,,,,,,,,,,
,8875,CBA,22/01/2005,001,2023-09-24_18h12.34.874,OS3_Mult_verification,2022.2.4,Win32,59.32957579,,,,,,,,,,,,,,,,space,1.5194,,,,,,,,,,,,,,,,,,,,,,,,,,,,,,,,,,,,,,,,,,,,,,,,,,,,,,,,,,,,,,,,TRUE,2.6322,-0.039814772,-0.339814857,1,0,0,0,0,0,1,1,practice trial,,3,3,,,,,,,,,,,,,,,,,,,,,,,,,,,,,,,,,,,,,,,,,,,,,,,,,,,,,,,,,,,,,,,,,,,,,,,,,,,,,,
,8875,CBA,22/01/2005,001,2023-09-24_18h12.34.874,OS3_Mult_verification,2022.2.4,Win32,59.32957579,,,,,,,,,,,,,,,,,,,,,,,,,,,,,,,,,,,,,,,,,,,,,,,,,,,,,,,,,,,,,,,,,,,,,,,,,,,,,,,,,TRUE,2.0671,0.053703732,-0.335185228,1,0,0,0,1,1,2,1,practice trial,,3,3,,,,,,,,,,,,,,,,,,,,,,,,,,,,,,,,,,,,,,,,,,,,,,,,,,,,,,,,,,,,,,,,,,,,,,,,,,,,,,
,8875,CBA,22/01/2005,001,2023-09-24_18h12.34.874,OS3_Mult_verification,2022.2.4,Win32,59.32957579,,,,,,,,,,,,,,,,,,,,,,,,,,,,,,,,,,,,,,,,,,,,,,,,,,,,,,,,,,,,,,,,,,,,,,,,,,,,,,,,,TRUE,1.8997,0.032407407,-0.317592621,1,0,0,0,2,2,0,1,practice trial,,3,3,,,,,,,,,,,,,,,,,,,,,,,,,,,,,,,,,,,,,,,,,,,,,,,,,,,,,,,,,,,,,,,,,,,,,,,,,,,,,,
,8875,CBA,22/01/2005,001,2023-09-24_18h12.34.874,OS3_Mult_verification,2022.2.4,Win32,59.32957579,,,,,,,,,,,,,,,,,,,,,,,,,,,,,,,,,,,,,,,,,,,,,,,,,,,,,,,,,,,,,,,,,,,,,,,,,,,,,,,,,TRUE,1.4831,0.036111125,-0.328703704,1,0,0,,,,,,Trial #1,,2,2,0,0,0,0,1,2,,,,,,,,,,,,,,,,,,,,,,,,,,,,,,,,,,,,,,,,,,,,,,,,,,,,,,,,,,,,,,,,,,,,,,,,
,8875,CBA,22/01/2005,001,2023-09-24_18h12.34.874,OS3_Mult_verification,2022.2.4,Win32,59.32957579,,,,,,,,,,,,,,,,,,,,,,,,,,,,,,,,,,,,,,,,,,,,,,,,,,,,,,,,,,,,,,,,,,,,,,,,,,,,,,,,,TRUE,1.2501,0.054629644,-0.356481481,1,0,0,,,,,,Trial #1,,2,2,0,1,1,1,1,2,,,,,,,,,,,,,,,,,,,,,,,,,,,,,,,,,,,,,,,,,,,,,,,,,,,,,,,,,,,,,,,,,,,,,,,,
,8875,CBA,22/01/2005,001,2023-09-24_18h12.34.874,OS3_Mult_verification,2022.2.4,Win32,59.32957579,,,,,,,,,,,,,,,,,,,,,,,,,,,,,,,,,,,,,,,,,,,,,,,,,,,,,,,,,,,,,,,,,,,,,,,,,,,,,,,,,TRUE,1.216,0.025000042,-0.37037037,1,0,0,,,,,,Trial #1,,2,2,0,2,2,2,1,2,,,,,,,,,,,,,,,,,,,,,,,,,,,,,,,,,,,,,,,,,,,,,,,,,,,,,,,,,,,,,,,,,,,,,,,,
,8875,CBA,22/01/2005,001,2023-09-24_18h12.34.874,OS3_Mult_verification,2022.2.4,Win32,59.32957579,,,,,,,,,,,,,,,,,,,,,,,,,,,,,,,,,,,,,,,,,,,,,,,,,,,,,,,,,,,,,,,,,,,,,,,,,,,,,,,,,TRUE,1.6498,0.001851894,-0.342592593,1,0,0,,,,,,Trial #2,,3,3,0,0,0,0,1,3,,,,,,,,,,,,,,,,,,,,,,,,,,,,,,,,,,,,,,,,,,,,,,,,,,,,,,,,,,,,,,,,,,,,,,,,
,8875,CBA,22/01/2005,001,2023-09-24_18h12.34.874,OS3_Mult_verification,2022.2.4,Win32,59.32957579,,,,,,,,,,,,,,,,,,,,,,,,,,,,,,,,,,,,,,,,,,,,,,,,,,,,,,,,,,,,,,,,,,,,,,,,,,,,,,,,,TRUE,1.6499,0.054629644,-0.351851852,1,0,0,,,,,,Trial #2,,3,3,0,1,1,1,1,3,,,,,,,,,,,,,,,,,,,,,,,,,,,,,,,,,,,,,,,,,,,,,,,,,,,,,,,,,,,,,,,,,,,,,,,,
,8875,CBA,22/01/2005,001,2023-09-24_18h12.34.874,OS3_Mult_verification,2022.2.4,Win32,59.32957579,,,,,,,,,,,,,,,,,,,,,,,,,,,,,,,,,,,,,,,,,,,,,,,,,,,,,,,,,,,,,,,,,,,,,,,,,,,,,,,,,TRUE,1.6002,0,-0.364814829,1,0,0,,,,,,Trial #2,,3,3,0,2,2,2,1,3,,,,,,,,,,,,,,,,,,,,,,,,,,,,,,,,,,,,,,,,,,,,,,,,,,,,,,,,,,,,,,,,,,,,,,,,
,8875,CBA,22/01/2005,001,2023-09-24_18h12.34.874,OS3_Mult_verification,2022.2.4,Win32,59.32957579,,,,,,,,,,,,,,,,,,,,,,,,,,,,,,,,,,,,,,,,,,,,,,,,,,,,,,,,,,,,,,,,,,,,,,,,,,,,,,,,,TRUE,1.966,-0.010185171,-0.352777764,1,0,0,,,,,,Trial #3,,3,3,0,0,0,0,1,4,,,,,,,,,,,,,,,,,,,,,,,,,,,,,,,,,,,,,,,,,,,,,,,,,,,,,,,,,,,,,,,,,,,,,,,,
,8875,CBA,22/01/2005,001,2023-09-24_18h12.34.874,OS3_Mult_verification,2022.2.4,Win32,59.32957579,,,,,,,,,,,,,,,,,,,,,,,,,,,,,,,,,,,,,,,,,,,,,,,,,,,,,,,,,,,,,,,,,,,,,,,,,,,,,,,,,TRUE,2.1493,-0.00462963,-0.345370399,1,0,0,,,,,,Trial #3,,3,3,0,1,1,1,1,4,,,,,,,,,,,,,,,,,,,,,,,,,,,,,,,,,,,,,,,,,,,,,,,,,,,,,,,,,,,,,,,,,,,,,,,,
,8875,CBA,22/01/2005,001,2023-09-24_18h12.34.874,OS3_Mult_verification,2022.2.4,Win32,59.32957579,,,,,,,,,,,,,,,,,,,,,,,,,,,,,,,,,,,,,,,,,,,,,,,,,,,,,,,,,,,,,,,,,,,,,,,,,,,,,,,,,TRUE,1.7164,-0.037962949,-0.359259288,1,0,0,,,,,,Trial #3,,3,3,0,2,2,2,1,4,,,,,,,,,,,,,,,,,,,,,,,,,,,,,,,,,,,,,,,,,,,,,,,,,,,,,,,,,,,,,,,,,,,,,,,,
,8875,CBA,22/01/2005,001,2023-09-24_18h12.34.874,OS3_Mult_verification,2022.2.4,Win32,59.32957579,,,,,,,,,,,,,,,,,,,,,,,,,,,,,,,,,,,,,,,,,,,,,,,,,,,,,,,,,,,,,,,,,,,,,,,,,,,,,,,,,TRUE,2.1834,-0.039814772,-0.34629631,1,0,0,,,,,,Trial #4,,4,4,0,0,0,0,1,5,,,,,,,,,,,,,,,,,,,,,,,,,,,,,,,,,,,,,,,,,,,,,,,,,,,,,,,,,,,,,,,,,,,,,,,,
,8875,CBA,22/01/2005,001,2023-09-24_18h12.34.874,OS3_Mult_verification,2022.2.4,Win32,59.32957579,,,,,,,,,,,,,,,,,,,,,,,,,,,,,,,,,,,,,,,,,,,,,,,,,,,,,,,,,,,,,,,,,,,,,,,,,,,,,,,,,TRUE,2.2164,-0.036111125,-0.349074116,1,0,0,,,,,,Trial #4,,4,4,0,1,1,1,1,5,,,,,,,,,,,,,,,,,,,,,,,,,,,,,,,,,,,,,,,,,,,,,,,,,,,,,,,,,,,,,,,,,,,,,,,,
,8875,CBA,22/01/2005,001,2023-09-24_18h12.34.874,OS3_Mult_verification,2022.2.4,Win32,59.32957579,,,,,,,,,,,,,,,,,,,,,,,,,,,,,,,,,,,,,,,,,,,,,,,,,,,,,,,,,,,,,,,,,,,,,,,,,,,,,,,,,TRUE,2.2172,-0.062962921,-0.359259288,1,0,0,,,,,,Trial #4,,4,4,0,2,2,2,1,5,,,,,,,,,,,,,,,,,,,,,,,,,,,,,,,,,,,,,,,,,,,,,,,,,,,,,,,,,,,,,,,,,,,,,,,,
,8875,CBA,22/01/2005,001,2023-09-24_18h12.34.874,OS3_Mult_verification,2022.2.4,Win32,59.32957579,,,,,,,,,,,,,,,,,,,,,,,,,,,,,,,,,,,,,,,,,,,,,,,,,,,,,,,,,,,,,,,,,,,,,,,,,,,,,,,,,TRUE,3.1325,0.049074102,-0.362037023,1,0,0,,,,,,Trial #5,,4,4,0,0,0,0,1,6,,,,,,,,,,,,,,,,,,,,,,,,,,,,,,,,,,,,,,,,,,,,,,,,,,,,,,,,,,,,,,,,,,,,,,,,
,8875,CBA,22/01/2005,001,2023-09-24_18h12.34.874,OS3_Mult_verification,2022.2.4,Win32,59.32957579,,,,,,,,,,,,,,,,,,,,,,,,,,,,,,,,,,,,,,,,,,,,,,,,,,,,,,,,,,,,,,,,,,,,,,,,,,,,,,,,,TRUE,2.4664,0.041666667,-0.362963005,1,0,0,,,,,,Trial #5,,4,4,0,1,1,1,1,6,,,,,,,,,,,,,,,,,,,,,,,,,,,,,,,,,,,,,,,,,,,,,,,,,,,,,,,,,,,,,,,,,,,,,,,,
,8875,CBA,22/01/2005,001,2023-09-24_18h12.34.874,OS3_Mult_verification,2022.2.4,Win32,59.32957579,,,,,,,,,,,,,,,,,,,,,,,,,,,,,,,,,,,,,,,,,,,,,,,,,,,,,,,,,,,,,,,,,,,,,,,,,,,,,,,,,TRUE,2.4162,0.049074102,-0.363888917,1,0,0,,,,,,Trial #5,,4,4,0,2,2,2,1,6,,,,,,,,,,,,,,,,,,,,,,,,,,,,,,,,,,,,,,,,,,,,,,,,,,,,,,,,,,,,,,,,,,,,,,,,
,8875,CBA,22/01/2005,001,2023-09-24_18h12.34.874,OS3_Mult_verification,2022.2.4,Win32,59.32957579,,,,,,,,,,,,,,,,,,,,,,,,,,,,,,,,,,,,,,,,,,,,,,,,,,,,,,,,,,,,,,,,,,,,,,,,,,,,,,,,,TRUE,2.9998,0.079629616,-0.329629616,1,0,0,,,,,,Trial #6,,4,4,0,0,0,0,1,7,,,,,,,,,,,,,,,,,,,,,,,,,,,,,,,,,,,,,,,,,,,,,,,,,,,,,,,,,,,,,,,,,,,,,,,,
,8875,CBA,22/01/2005,001,2023-09-24_18h12.34.874,OS3_Mult_verification,2022.2.4,Win32,59.32957579,,,,,,,,,,,,,,,,,,,,,,,,,,,,,,,,,,,,,,,,,,,,,,,,,,,,,,,,,,,,,,,,,,,,,,,,,,,,,,,,,TRUE,3.8001,0.02870369,-0.344444487,1,0,0,,,,,,Trial #6,,4,4,0,1,1,1,1,7,,,,,,,,,,,,,,,,,,,,,,,,,,,,,,,,,,,,,,,,,,,,,,,,,,,,,,,,,,,,,,,,,,,,,,,,
,8875,CBA,22/01/2005,001,2023-09-24_18h12.34.874,OS3_Mult_verification,2022.2.4,Win32,59.32957579,,,,,,,,,,,,,,,,,,,,,,,,,,,,,,,,,,,,,,,,,,,,,,,,,,,,,,,,,,,,,,,,,,,,,,,,,,,,,,,,,TRUE,3.166,-0.038888861,-0.349074116,1,0,0,,,,,,Trial #6,,4,4,0,2,2,2,1,7,,,,,,,,,,,,,,,,,,,,,,,,,,,,,,,,,,,,,,,,,,,,,,,,,,,,,,,,,,,,,,,,,,,,,,,,
,8875,CBA,22/01/2005,001,2023-09-24_18h12.34.874,OS3_Mult_verification,2022.2.4,Win32,59.32957579,,,,,,,,,,,,,,,,,,,,,,,,,,,,,,,,,,,,,,,,,,,,,,,,,,,,,,,,,,,,,,,,,,,,,,,,,,,,,,,,,FALSE,6.5164,0.029629672,-0.34629631,1,0,0,,,,,,Trial #7,,4,4,0,0,0,0,1,8,,,,,,,,,,,,,,,,,,,,,,,,,,,,,,,,,,,,,,,,,,,,,,,,,,,,,,,,,,,,,,,,,,,,,,,,
,8875,CBA,22/01/2005,001,2023-09-24_18h12.34.874,OS3_Mult_verification,2022.2.4,Win32,59.32957579,,,,,,,,,,,,,,,,,,,,,,,,,,,,,,,,,,,,,,,,,,,,,,,,,,,,,,,,,,,,,,,,,,,,,,,,,,,,,,,,,FALSE,5.5336,0.088888875,-0.335185228,1,0,0,,,,,,Trial #7,,4,4,0,1,1,1,1,8,,,,,,,,,,,,,,,,,,,,,,,,,,,,,,,,,,,,,,,,,,,,,,,,,,,,,,,,,,,,,,,,,,,,,,,,
,8875,CBA,22/01/2005,001,2023-09-24_18h12.34.874,OS3_Mult_verification,2022.2.4,Win32,59.32957579,,,,,,,,,,,,,,,,,,,,,,,,,,,,,,,,,,,,,,,,,,,,,,,,,,,,,,,,,,,,,,,,,,,,,,,,,,,,,,,,,TRUE,6.0835,0.111111111,-0.336111139,1,0,0,,,,,,Trial #7,,4,4,0,2,2,2,1,8,,,,,,,,,,,,,,,,,,,,,,,,,,,,,,,,,,,,,,,,,,,,,,,,,,,,,,,,,,,,,,,,,,,,,,,,
,8875,CBA,22/01/2005,001,2023-09-24_18h12.34.874,OS3_Mult_verification,2022.2.4,Win32,59.32957579,,,,,,,,,,,,,,,,,,,,,,,,,,,,,,,,,,,,,,,,,,,,,,,,,,,,,,,,,,,,,,,,,,,,,,,,,,,,,,,,,,,,,,,,,,,,,,,,,,,,,,,0,0,0,0,1,,,,,,,,,,,,,,,,,,,,,,,,,,,,,,,,,,,,,,,,,,,,,,,,,,,,,,,,,,,,,,,,,,,
,8875,CBA,22/01/2005,001,2023-09-24_18h12.34.874,OS3_Mult_verification,2022.2.4,Win32,59.32957579,,,,,,,,,,,,,,,,,,,,,,,,,,,,,,,,,,,,,,,,,,,,,,,,,,,,,,,,,,,,,,,,,,,,,,,,,0,1,1,1,1,0,1,0,,,,,,,,,,,,,,,,,,,,,,,,,,,,,,,,,,,,,,,,,,,,,,,,,,,,,,,,,,,,,,,,,,,,,,,,,,,,,,,,,,,,,,,,,,,,,,
,8875,CBA,22/01/2005,001,2023-09-24_18h12.34.874,OS3_Mult_verification,2022.2.4,Win32,59.32957579,,,,,,,,,,,,,,,,space,2.0845,,,,,,,,,,,,,,,,,,,,,,,,,,,,,,,,,,,,,,,,,,,,,,,,,,,,,,,,,,,,,,,,,,,,,,,,,,,,,,,,,,,,,,,,,,,left,1,0.8612,0,0,0,0,1,practice,9,8,9 | 8,1,0.065,0.05,congruent,left,,,,,,,,,,,,,,,,,,,,,,,,,,,,,,,,,,,,,,,,,,,,,,,,,,
,8875,CBA,22/01/2005,001,2023-09-24_18h12.34.874,OS3_Mult_verification,2022.2.4,Win32,59.32957579,,,,,,,,,,,,,,,,,,,,,,,,,,,,,,,,,,,,,,,,,,,,,,,,,,,,,,,,,,,,,,,,,,,,,,,,,,,,,,,,,,,,,,,,,,,,,,,,,,,,,,,,,,,,right,1,0.5048,0,1,1,2,1,practice,9,9,9 | 9,0,0.05,0.065,neutral,right,,,,,,,,,,,,,,,,,,,,,,,,,,,,,,,,,,,,,,,,,,,,,,,,,,
,8875,CBA,22/01/2005,001,2023-09-24_18h12.34.874,OS3_Mult_verification,2022.2.4,Win32,59.32957579,,,,,,,,,,,,,,,,,,,,,,,,,,,,,,,,,,,,,,,,,,,,,,,,,,,,,,,,,,,,,,,,,,,,,,,,,,,,,,,,,,,,,,,,,,,,,,,,,,,,,,,,,,,,right,1,0.9772,0,2,2,1,1,practice,4,3,4 | 3,1,0.05,0.065,incongruent,right,,,,,,,,,,,,,,,,,,,,,,,,,,,,,,,,,,,,,,,,,,,,,,,,,,
,8875,CBA,22/01/2005,001,2023-09-24_18h12.34.874,OS3_Mult_verification,2022.2.4,Win32,59.32957579,,,,,,,,,,,,,,,,,,,,,,,,,,,,,,,,,,,,,,,,,,,,,,,,,,,,,,,,,,,,,,,,,,,,,,,,,,,,,,,,,,,,,,,,,,,,,,,,,,,,,,,,,,,,left,1,0.9531,,,,,,physical,3,8,3 | 8,5,0.065,0.05,incongruent,left,0,0,0,42,1,,,,,,,,,,,,,,,,,,,,,,,,,,,,,,,,,,,,,,,,,,,,,
,8875,CBA,22/01/2005,001,2023-09-24_18h12.34.874,OS3_Mult_verification,2022.2.4,Win32,59.32957579,,,,,,,,,,,,,,,,,,,,,,,,,,,,,,,,,,,,,,,,,,,,,,,,,,,,,,,,,,,,,,,,,,,,,,,,,,,,,,,,,,,,,,,,,,,,,,,,,,,,,,,,,,,,left,1,0.7886,,,,,,physical,1,1,1 | 1,0,0.065,0.05,neutral,left,0,1,1,64,1,,,,,,,,,,,,,,,,,,,,,,,,,,,,,,,,,,,,,,,,,,,,,
,8875,CBA,22/01/2005,001,2023-09-24_18h12.34.874,OS3_Mult_verification,2022.2.4,Win32,59.32957579,,,,,,,,,,,,,,,,,,,,,,,,,,,,,,,,,,,,,,,,,,,,,,,,,,,,,,,,,,,,,,,,,,,,,,,,,,,,,,,,,,,,,,,,,,,,,,,,,,,,,,,,,,,,left,1,0.6062,,,,,,physical,4,4,4 | 4,0,0.065,0.05,neutral,left,0,2,2,53,1,,,,,,,,,,,,,,,,,,,,,,,,,,,,,,,,,,,,,,,,,,,,,
,8875,CBA,22/01/2005,001,2023-09-24_18h12.34.874,OS3_Mult_verification,2022.2.4,Win32,59.32957579,,,,,,,,,,,,,,,,,,,,,,,,,,,,,,,,,,,,,,,,,,,,,,,,,,,,,,,,,,,,,,,,,,,,,,,,,,,,,,,,,,,,,,,,,,,,,,,,,,,,,,,,,,,,right,1,0.5842,,,,,,physical,4,4,4 | 4,0,0.05,0.065,neutral,right,0,3,3,61,1,,,,,,,,,,,,,,,,,,,,,,,,,,,,,,,,,,,,,,,,,,,,,
,8875,CBA,22/01/2005,001,2023-09-24_18h12.34.874,OS3_Mult_verification,2022.2.4,Win32,59.32957579,,,,,,,,,,,,,,,,,,,,,,,,,,,,,,,,,,,,,,,,,,,,,,,,,,,,,,,,,,,,,,,,,,,,,,,,,,,,,,,,,,,,,,,,,,,,,,,,,,,,,,,,,,,,right,1,0.6007,,,,,,physical,8,9,8 | 9,1,0.05,0.065,congruent,right,0,4,4,3,1,,,,,,,,,,,,,,,,,,,,,,,,,,,,,,,,,,,,,,,,,,,,,
,8875,CBA,22/01/2005,001,2023-09-24_18h12.34.874,OS3_Mult_verification,2022.2.4,Win32,59.32957579,,,,,,,,,,,,,,,,,,,,,,,,,,,,,,,,,,,,,,,,,,,,,,,,,,,,,,,,,,,,,,,,,,,,,,,,,,,,,,,,,,,,,,,,,,,,,,,,,,,,,,,,,,,,left,1,0.5179,,,,,,physical,9,4,9 | 4,5,0.065,0.05,congruent,left,0,5,5,23,1,,,,,,,,,,,,,,,,,,,,,,,,,,,,,,,,,,,,,,,,,,,,,
,8875,CBA,22/01/2005,001,2023-09-24_18h12.34.874,OS3_Mult_verification,2022.2.4,Win32,59.32957579,,,,,,,,,,,,,,,,,,,,,,,,,,,,,,,,,,,,,,,,,,,,,,,,,,,,,,,,,,,,,,,,,,,,,,,,,,,,,,,,,,,,,,,,,,,,,,,,,,,,,,,,,,,,left,1,0.7231,,,,,,physical,8,8,8 | 8,0,0.065,0.05,neutral,left,0,6,6,70,1,,,,,,,,,,,,,,,,,,,,,,,,,,,,,,,,,,,,,,,,,,,,,
,8875,CBA,22/01/2005,001,2023-09-24_18h12.34.874,OS3_Mult_verification,2022.2.4,Win32,59.32957579,,,,,,,,,,,,,,,,,,,,,,,,,,,,,,,,,,,,,,,,,,,,,,,,,,,,,,,,,,,,,,,,,,,,,,,,,,,,,,,,,,,,,,,,,,,,,,,,,,,,,,,,,,,,left,1,0.6404,,,,,,physical,8,6,8 | 6,2,0.065,0.05,congruent,left,0,7,7,14,1,,,,,,,,,,,,,,,,,,,,,,,,,,,,,,,,,,,,,,,,,,,,,
,8875,CBA,22/01/2005,001,2023-09-24_18h12.34.874,OS3_Mult_verification,2022.2.4,Win32,59.32957579,,,,,,,,,,,,,,,,,,,,,,,,,,,,,,,,,,,,,,,,,,,,,,,,,,,,,,,,,,,,,,,,,,,,,,,,,,,,,,,,,,,,,,,,,,,,,,,,,,,,,,,,,,,,right,1,0.6043,,,,,,physical,8,8,8 | 8,0,0.05,0.065,neutral,right,0,8,8,62,1,,,,,,,,,,,,,,,,,,,,,,,,,,,,,,,,,,,,,,,,,,,,,
,8875,CBA,22/01/2005,001,2023-09-24_18h12.34.874,OS3_Mult_verification,2022.2.4,Win32,59.32957579,,,,,,,,,,,,,,,,,,,,,,,,,,,,,,,,,,,,,,,,,,,,,,,,,,,,,,,,,,,,,,,,,,,,,,,,,,,,,,,,,,,,,,,,,,,,,,,,,,,,,,,,,,,,left,1,0.6342,,,,,,physical,8,3,8 | 3,5,0.065,0.05,congruent,left,0,9,9,22,1,,,,,,,,,,,,,,,,,,,,,,,,,,,,,,,,,,,,,,,,,,,,,
,8875,CBA,22/01/2005,001,2023-09-24_18h12.34.874,OS3_Mult_verification,2022.2.4,Win32,59.32957579,,,,,,,,,,,,,,,,,,,,,,,,,,,,,,,,,,,,,,,,,,,,,,,,,,,,,,,,,,,,,,,,,,,,,,,,,,,,,,,,,,,,,,,,,,,,,,,,,,,,,,,,,,,,right,1,0.5433,,,,,,physical,3,4,3 | 4,1,0.05,0.065,congruent,right,0,10,10,1,1,,,,,,,,,,,,,,,,,,,,,,,,,,,,,,,,,,,,,,,,,,,,,
,8875,CBA,22/01/2005,001,2023-09-24_18h12.34.874,OS3_Mult_verification,2022.2.4,Win32,59.32957579,,,,,,,,,,,,,,,,,,,,,,,,,,,,,,,,,,,,,,,,,,,,,,,,,,,,,,,,,,,,,,,,,,,,,,,,,,,,,,,,,,,,,,,,,,,,,,,,,,,,,,,,,,,,right,1,0.5835,,,,,,physical,7,7,7 | 7,0,0.05,0.065,neutral,right,0,11,11,69,1,,,,,,,,,,,,,,,,,,,,,,,,,,,,,,,,,,,,,,,,,,,,,
,8875,CBA,22/01/2005,001,2023-09-24_18h12.34.874,OS3_Mult_verification,2022.2.4,Win32,59.32957579,,,,,,,,,,,,,,,,,,,,,,,,,,,,,,,,,,,,,,,,,,,,,,,,,,,,,,,,,,,,,,,,,,,,,,,,,,,,,,,,,,,,,,,,,,,,,,,,,,,,,,,,,,,,right,1,0.9152,,,,,,physical,1,6,1 | 6,5,0.05,0.065,congruent,right,0,12,12,16,1,,,,,,,,,,,,,,,,,,,,,,,,,,,,,,,,,,,,,,,,,,,,,
,8875,CBA,22/01/2005,001,2023-09-24_18h12.34.874,OS3_Mult_verification,2022.2.4,Win32,59.32957579,,,,,,,,,,,,,,,,,,,,,,,,,,,,,,,,,,,,,,,,,,,,,,,,,,,,,,,,,,,,,,,,,,,,,,,,,,,,,,,,,,,,,,,,,,,,,,,,,,,,,,,,,,,,left,1,0.5434,,,,,,physical,6,1,6 | 1,5,0.065,0.05,congruent,left,0,13,13,20,1,,,,,,,,,,,,,,,,,,,,,,,,,,,,,,,,,,,,,,,,,,,,,
,8875,CBA,22/01/2005,001,2023-09-24_18h12.34.874,OS3_Mult_verification,2022.2.4,Win32,59.32957579,,,,,,,,,,,,,,,,,,,,,,,,,,,,,,,,,,,,,,,,,,,,,,,,,,,,,,,,,,,,,,,,,,,,,,,,,,,,,,,,,,,,,,,,,,,,,,,,,,,,,,,,,,,,left,1,0.7004,,,,,,physical,6,8,6 | 8,2,0.065,0.05,incongruent,left,0,14,14,34,1,,,,,,,,,,,,,,,,,,,,,,,,,,,,,,,,,,,,,,,,,,,,,
,8875,CBA,22/01/2005,001,2023-09-24_18h12.34.874,OS3_Mult_verification,2022.2.4,Win32,59.32957579,,,,,,,,,,,,,,,,,,,,,,,,,,,,,,,,,,,,,,,,,,,,,,,,,,,,,,,,,,,,,,,,,,,,,,,,,,,,,,,,,,,,,,,,,,,,,,,,,,,,,,,,,,,,left,1,0.7624,,,,,,physical,1,3,1 | 3,2,0.065,0.05,incongruent,left,0,15,15,32,1,,,,,,,,,,,,,,,,,,,,,,,,,,,,,,,,,,,,,,,,,,,,,
,8875,CBA,22/01/2005,001,2023-09-24_18h12.34.874,OS3_Mult_verification,2022.2.4,Win32,59.32957579,,,,,,,,,,,,,,,,,,,,,,,,,,,,,,,,,,,,,,,,,,,,,,,,,,,,,,,,,,,,,,,,,,,,,,,,,,,,,,,,,,,,,,,,,,,,,,,,,,,,,,,,,,,,left,1,1.1999,,,,,,physical,6,7,6 | 7,1,0.065,0.05,incongruent,left,0,16,16,26,1,,,,,,,,,,,,,,,,,,,,,,,,,,,,,,,,,,,,,,,,,,,,,
,8875,CBA,22/01/2005,001,2023-09-24_18h12.34.874,OS3_Mult_verification,2022.2.4,Win32,59.32957579,,,,,,,,,,,,,,,,,,,,,,,,,,,,,,,,,,,,,,,,,,,,,,,,,,,,,,,,,,,,,,,,,,,,,,,,,,,,,,,,,,,,,,,,,,,,,,,,,,,,,,,,,,,,right,1,1.0249,,,,,,physical,7,7,7 | 7,0,0.05,0.065,neutral,right,0,17,17,59,1,,,,,,,,,,,,,,,,,,,,,,,,,,,,,,,,,,,,,,,,,,,,,
,8875,CBA,22/01/2005,001,2023-09-24_18h12.34.874,OS3_Mult_verification,2022.2.4,Win32,59.32957579,,,,,,,,,,,,,,,,,,,,,,,,,,,,,,,,,,,,,,,,,,,,,,,,,,,,,,,,,,,,,,,,,,,,,,,,,,,,,,,,,,,,,,,,,,,,,,,,,,,,,,,,,,,,left,1,1.5217,,,,,,physical,7,6,7 | 6,1,0.065,0.05,congruent,left,0,18,18,6,1,,,,,,,,,,,,,,,,,,,,,,,,,,,,,,,,,,,,,,,,,,,,,
,8875,CBA,22/01/2005,001,2023-09-24_18h12.34.874,OS3_Mult_verification,2022.2.4,Win32,59.32957579,,,,,,,,,,,,,,,,,,,,,,,,,,,,,,,,,,,,,,,,,,,,,,,,,,,,,,,,,,,,,,,,,,,,,,,,,,,,,,,,,,,,,,,,,,,,,,,,,,,,,,,,,,,,right,1,0.8508,,,,,,physical,9,8,9 | 8,1,0.05,0.065,incongruent,right,0,19,19,31,1,,,,,,,,,,,,,,,,,,,,,,,,,,,,,,,,,,,,,,,,,,,,,
,8875,CBA,22/01/2005,001,2023-09-24_18h12.34.874,OS3_Mult_verification,2022.2.4,Win32,59.32957579,,,,,,,,,,,,,,,,,,,,,,,,,,,,,,,,,,,,,,,,,,,,,,,,,,,,,,,,,,,,,,,,,,,,,,,,,,,,,,,,,,,,,,,,,,,,,,,,,,,,,,,,,,,,left,1,0.6367,,,,,,physical,4,9,4 | 9,5,0.065,0.05,incongruent,left,0,20,20,43,1,,,,,,,,,,,,,,,,,,,,,,,,,,,,,,,,,,,,,,,,,,,,,
,8875,CBA,22/01/2005,001,2023-09-24_18h12.34.874,OS3_Mult_verification,2022.2.4,Win32,59.32957579,,,,,,,,,,,,,,,,,,,,,,,,,,,,,,,,,,,,,,,,,,,,,,,,,,,,,,,,,,,,,,,,,,,,,,,,,,,,,,,,,,,,,,,,,,,,,,,,,,,,,,,,,,,,right,1,0.5332,,,,,,physical,1,1,1 | 1,0,0.05,0.065,neutral,right,0,21,21,56,1,,,,,,,,,,,,,,,,,,,,,,,,,,,,,,,,,,,,,,,,,,,,,
,8875,CBA,22/01/2005,001,2023-09-24_18h12.34.874,OS3_Mult_verification,2022.2.4,Win32,59.32957579,,,,,,,,,,,,,,,,,,,,,,,,,,,,,,,,,,,,,,,,,,,,,,,,,,,,,,,,,,,,,,,,,,,,,,,,,,,,,,,,,,,,,,,,,,,,,,,,,,,,,,,,,,,,left,1,0.5427,,,,,,physical,9,9,9 | 9,0,0.065,0.05,neutral,left,0,22,22,55,1,,,,,,,,,,,,,,,,,,,,,,,,,,,,,,,,,,,,,,,,,,,,,
,8875,CBA,22/01/2005,001,2023-09-24_18h12.34.874,OS3_Mult_verification,2022.2.4,Win32,59.32957579,,,,,,,,,,,,,,,,,,,,,,,,,,,,,,,,,,,,,,,,,,,,,,,,,,,,,,,,,,,,,,,,,,,,,,,,,,,,,,,,,,,,,,,,,,,,,,,,,,,,,,,,,,,,right,1,0.787,,,,,,physical,7,2,7 | 2,5,0.05,0.065,incongruent,right,0,23,23,45,1,,,,,,,,,,,,,,,,,,,,,,,,,,,,,,,,,,,,,,,,,,,,,
,8875,CBA,22/01/2005,001,2023-09-24_18h12.34.874,OS3_Mult_verification,2022.2.4,Win32,59.32957579,,,,,,,,,,,,,,,,,,,,,,,,,,,,,,,,,,,,,,,,,,,,,,,,,,,,,,,,,,,,,,,,,,,,,,,,,,,,,,,,,,,,,,,,,,,,,,,,,,,,,,,,,,,,right,1,0.8847,,,,,,physical,2,7,2 | 7,5,0.05,0.065,congruent,right,0,24,24,17,1,,,,,,,,,,,,,,,,,,,,,,,,,,,,,,,,,,,,,,,,,,,,,
,8875,CBA,22/01/2005,001,2023-09-24_18h12.34.874,OS3_Mult_verification,2022.2.4,Win32,59.32957579,,,,,,,,,,,,,,,,,,,,,,,,,,,,,,,,,,,,,,,,,,,,,,,,,,,,,,,,,,,,,,,,,,,,,,,,,,,,,,,,,,,,,,,,,,,,,,,,,,,,,,,,,,,,left,1,3.1174,,,,,,physical,3,4,3 | 4,1,0.065,0.05,incongruent,left,0,25,25,25,1,,,,,,,,,,,,,,,,,,,,,,,,,,,,,,,,,,,,,,,,,,,,,
,8875,CBA,22/01/2005,001,2023-09-24_18h12.34.874,OS3_Mult_verification,2022.2.4,Win32,59.32957579,,,,,,,,,,,,,,,,,,,,,,,,,,,,,,,,,,,,,,,,,,,,,,,,,,,,,,,,,,,,,,,,,,,,,,,,,,,,,,,,,,,,,,,,,,,,,,,,,,,,,,,,,,,,left,1,0.6671,,,,,,physical,6,6,6 | 6,0,0.065,0.05,neutral,left,0,26,26,68,1,,,,,,,,,,,,,,,,,,,,,,,,,,,,,,,,,,,,,,,,,,,,,
,8875,CBA,22/01/2005,001,2023-09-24_18h12.34.874,OS3_Mult_verification,2022.2.4,Win32,59.32957579,,,,,,,,,,,,,,,,,,,,,,,,,,,,,,,,,,,,,,,,,,,,,,,,,,,,,,,,,,,,,,,,,,,,,,,,,,,,,,,,,,,,,,,,,,,,,,,,,,,,,,,,,,,,left,1,1.1515,,,,,,physical,2,4,2 | 4,2,0.065,0.05,incongruent,left,0,27,27,33,1,,,,,,,,,,,,,,,,,,,,,,,,,,,,,,,,,,,,,,,,,,,,,
,8875,CBA,22/01/2005,001,2023-09-24_18h12.34.874,OS3_Mult_verification,2022.2.4,Win32,59.32957579,,,,,,,,,,,,,,,,,,,,,,,,,,,,,,,,,,,,,,,,,,,,,,,,,,,,,,,,,,,,,,,,,,,,,,,,,,,,,,,,,,,,,,,,,,,,,,,,,,,,,,,,,,,,right,1,0.6165,,,,,,physical,9,7,9 | 7,2,0.05,0.065,incongruent,right,0,28,28,39,1,,,,,,,,,,,,,,,,,,,,,,,,,,,,,,,,,,,,,,,,,,,,,
,8875,CBA,22/01/2005,001,2023-09-24_18h12.34.874,OS3_Mult_verification,2022.2.4,Win32,59.32957579,,,,,,,,,,,,,,,,,,,,,,,,,,,,,,,,,,,,,,,,,,,,,,,,,,,,,,,,,,,,,,,,,,,,,,,,,,,,,,,,,,,,,,,,,,,,,,,,,,,,,,,,,,,,left,1,0.5048,,,,,,physical,4,2,4 | 2,2,0.065,0.05,congruent,left,0,29,29,13,1,,,,,,,,,,,,,,,,,,,,,,,,,,,,,,,,,,,,,,,,,,,,,
,8875,CBA,22/01/2005,001,2023-09-24_18h12.34.874,OS3_Mult_verification,2022.2.4,Win32,59.32957579,,,,,,,,,,,,,,,,,,,,,,,,,,,,,,,,,,,,,,,,,,,,,,,,,,,,,,,,,,,,,,,,,,,,,,,,,,,,,,,,,,,,,,,,,,,,,,,,,,,,,,,,,,,,left,1,1.0408,,,,,,physical,7,7,7 | 7,0,0.065,0.05,neutral,left,0,30,30,54,1,,,,,,,,,,,,,,,,,,,,,,,,,,,,,,,,,,,,,,,,,,,,,
,8875,CBA,22/01/2005,001,2023-09-24_18h12.34.874,OS3_Mult_verification,2022.2.4,Win32,59.32957579,,,,,,,,,,,,,,,,,,,,,,,,,,,,,,,,,,,,,,,,,,,,,,,,,,,,,,,,,,,,,,,,,,,,,,,,,,,,,,,,,,,,,,,,,,,,,,,,,,,,,,,,,,,,left,1,0.6007,,,,,,physical,1,6,1 | 6,5,0.065,0.05,incongruent,left,0,31,31,40,1,,,,,,,,,,,,,,,,,,,,,,,,,,,,,,,,,,,,,,,,,,,,,
,8875,CBA,22/01/2005,001,2023-09-24_18h12.34.874,OS3_Mult_verification,2022.2.4,Win32,59.32957579,,,,,,,,,,,,,,,,,,,,,,,,,,,,,,,,,,,,,,,,,,,,,,,,,,,,,,,,,,,,,,,,,,,,,,,,,,,,,,,,,,,,,,,,,,,,,,,,,,,,,,,,,,,,right,1,0.5209,,,,,,physical,2,2,2 | 2,0,0.05,0.065,neutral,right,0,32,32,57,1,,,,,,,,,,,,,,,,,,,,,,,,,,,,,,,,,,,,,,,,,,,,,
,8875,CBA,22/01/2005,001,2023-09-24_18h12.34.874,OS3_Mult_verification,2022.2.4,Win32,59.32957579,,,,,,,,,,,,,,,,,,,,,,,,,,,,,,,,,,,,,,,,,,,,,,,,,,,,,,,,,,,,,,,,,,,,,,,,,,,,,,,,,,,,,,,,,,,,,,,,,,,,,,,,,,,,left,1,0.6022,,,,,,physical,3,1,3 | 1,2,0.065,0.05,congruent,left,0,33,33,12,1,,,,,,,,,,,,,,,,,,,,,,,,,,,,,,,,,,,,,,,,,,,,,
,8875,CBA,22/01/2005,001,2023-09-24_18h12.34.874,OS3_Mult_verification,2022.2.4,Win32,59.32957579,,,,,,,,,,,,,,,,,,,,,,,,,,,,,,,,,,,,,,,,,,,,,,,,,,,,,,,,,,,,,,,,,,,,,,,,,,,,,,,,,,,,,,,,,,,,,,,,,,,,,,,,,,,,left,1,0.8841,,,,,,physical,3,3,3 | 3,0,0.065,0.05,neutral,left,0,34,34,49,1,,,,,,,,,,,,,,,,,,,,,,,,,,,,,,,,,,,,,,,,,,,,,
,8875,CBA,22/01/2005,001,2023-09-24_18h12.34.874,OS3_Mult_verification,2022.2.4,Win32,59.32957579,,,,,,,,,,,,,,,,,,,,,,,,,,,,,,,,,,,,,,,,,,,,,,,,,,,,,,,,,,,,,,,,,,,,,,,,,,,,,,,,,,,,,,,,,,,,,,,,,,,,,,,,,,,,right,1,0.4833,,,,,,physical,1,2,1 | 2,1,0.05,0.065,congruent,right,0,35,35,0,1,,,,,,,,,,,,,,,,,,,,,,,,,,,,,,,,,,,,,,,,,,,,,
,8875,CBA,22/01/2005,001,2023-09-24_18h12.34.874,OS3_Mult_verification,2022.2.4,Win32,59.32957579,,,,,,,,,,,,,,,,,,,,,,,,,,,,,,,,,,,,,,,,,,,,,,,,,,,,,,,,,,,,,,,,,,,,,,,,,,,,,,,,,,,,,,,,,,,,,,,,,,,,,,,,,,,,right,1,0.5427,,,,,,physical,9,9,9 | 9,0,0.05,0.065,neutral,right,0,36,36,71,1,,,,,,,,,,,,,,,,,,,,,,,,,,,,,,,,,,,,,,,,,,,,,
,8875,CBA,22/01/2005,001,2023-09-24_18h12.34.874,OS3_Mult_verification,2022.2.4,Win32,59.32957579,,,,,,,,,,,,,,,,,,,,,,,,,,,,,,,,,,,,,,,,,,,,,,,,,,,,,,,,,,,,,,,,,,,,,,,,,,,,,,,,,,,,,,,,,,,,,,,,,,,,,,,,,,,,right,1,0.5669,,,,,,physical,4,9,4 | 9,5,0.05,0.065,congruent,right,0,37,37,19,1,,,,,,,,,,,,,,,,,,,,,,,,,,,,,,,,,,,,,,,,,,,,,
,8875,CBA,22/01/2005,001,2023-09-24_18h12.34.874,OS3_Mult_verification,2022.2.4,Win32,59.32957579,,,,,,,,,,,,,,,,,,,,,,,,,,,,,,,,,,,,,,,,,,,,,,,,,,,,,,,,,,,,,,,,,,,,,,,,,,,,,,,,,,,,,,,,,,,,,,,,,,,,,,,,,,,,left,1,0.451,,,,,,physical,1,2,1 | 2,1,0.065,0.05,incongruent,left,0,38,38,24,1,,,,,,,,,,,,,,,,,,,,,,,,,,,,,,,,,,,,,,,,,,,,,
,8875,CBA,22/01/2005,001,2023-09-24_18h12.34.874,OS3_Mult_verification,2022.2.4,Win32,59.32957579,,,,,,,,,,,,,,,,,,,,,,,,,,,,,,,,,,,,,,,,,,,,,,,,,,,,,,,,,,,,,,,,,,,,,,,,,,,,,,,,,,,,,,,,,,,,,,,,,,,,,,,,,,,,right,1,0.432,,,,,,physical,8,6,8 | 6,2,0.05,0.065,incongruent,right,0,39,39,38,1,,,,,,,,,,,,,,,,,,,,,,,,,,,,,,,,,,,,,,,,,,,,,
,8875,CBA,22/01/2005,001,2023-09-24_18h12.34.874,OS3_Mult_verification,2022.2.4,Win32,59.32957579,,,,,,,,,,,,,,,,,,,,,,,,,,,,,,,,,,,,,,,,,,,,,,,,,,,,,,,,,,,,,,,,,,,,,,,,,,,,,,,,,,,,,,,,,,,,,,,,,,,,,,,,,,,,left,1,0.5173,,,,,,physical,9,8,9 | 8,1,0.065,0.05,congruent,left,0,40,40,7,1,,,,,,,,,,,,,,,,,,,,,,,,,,,,,,,,,,,,,,,,,,,,,
,8875,CBA,22/01/2005,001,2023-09-24_18h12.34.874,OS3_Mult_verification,2022.2.4,Win32,59.32957579,,,,,,,,,,,,,,,,,,,,,,,,,,,,,,,,,,,,,,,,,,,,,,,,,,,,,,,,,,,,,,,,,,,,,,,,,,,,,,,,,,,,,,,,,,,,,,,,,,,,,,,,,,,,right,0,0.5448,,,,,,physical,8,9,8 | 9,1,0.065,0.05,incongruent,left,0,41,41,27,1,,,,,,,,,,,,,,,,,,,,,,,,,,,,,,,,,,,,,,,,,,,,,
,8875,CBA,22/01/2005,001,2023-09-24_18h12.34.874,OS3_Mult_verification,2022.2.4,Win32,59.32957579,,,,,,,,,,,,,,,,,,,,,,,,,,,,,,,,,,,,,,,,,,,,,,,,,,,,,,,,,,,,,,,,,,,,,,,,,,,,,,,,,,,,,,,,,,,,,,,,,,,,,,,,,,,,left,1,0.922,,,,,,physical,7,9,7 | 9,2,0.065,0.05,incongruent,left,0,42,42,35,1,,,,,,,,,,,,,,,,,,,,,,,,,,,,,,,,,,,,,,,,,,,,,
,8875,CBA,22/01/2005,001,2023-09-24_18h12.34.874,OS3_Mult_verification,2022.2.4,Win32,59.32957579,,,,,,,,,,,,,,,,,,,,,,,,,,,,,,,,,,,,,,,,,,,,,,,,,,,,,,,,,,,,,,,,,,,,,,,,,,,,,,,,,,,,,,,,,,,,,,,,,,,,,,,,,,,,left,1,0.6328,,,,,,physical,9,7,9 | 7,2,0.065,0.05,congruent,left,0,43,43,15,1,,,,,,,,,,,,,,,,,,,,,,,,,,,,,,,,,,,,,,,,,,,,,
,8875,CBA,22/01/2005,001,2023-09-24_18h12.34.874,OS3_Mult_verification,2022.2.4,Win32,59.32957579,,,,,,,,,,,,,,,,,,,,,,,,,,,,,,,,,,,,,,,,,,,,,,,,,,,,,,,,,,,,,,,,,,,,,,,,,,,,,,,,,,,,,,,,,,,,,,,,,,,,,,,,,,,,right,1,0.6076,,,,,,physical,3,1,3 | 1,2,0.05,0.065,incongruent,right,0,44,44,36,1,,,,,,,,,,,,,,,,,,,,,,,,,,,,,,,,,,,,,,,,,,,,,
,8875,CBA,22/01/2005,001,2023-09-24_18h12.34.874,OS3_Mult_verification,2022.2.4,Win32,59.32957579,,,,,,,,,,,,,,,,,,,,,,,,,,,,,,,,,,,,,,,,,,,,,,,,,,,,,,,,,,,,,,,,,,,,,,,,,,,,,,,,,,,,,,,,,,,,,,,,,,,,,,,,,,,,right,1,0.5893,,,,,,physical,4,4,4 | 4,0,0.05,0.065,neutral,right,0,45,45,67,1,,,,,,,,,,,,,,,,,,,,,,,,,,,,,,,,,,,,,,,,,,,,,
,8875,CBA,22/01/2005,001,2023-09-24_18h12.34.874,OS3_Mult_verification,2022.2.4,Win32,59.32957579,,,,,,,,,,,,,,,,,,,,,,,,,,,,,,,,,,,,,,,,,,,,,,,,,,,,,,,,,,,,,,,,,,,,,,,,,,,,,,,,,,,,,,,,,,,,,,,,,,,,,,,,,,,,left,1,0.4872,,,,,,physical,8,8,8 | 8,0,0.065,0.05,neutral,left,0,46,46,51,1,,,,,,,,,,,,,,,,,,,,,,,,,,,,,,,,,,,,,,,,,,,,,
,8875,CBA,22/01/2005,001,2023-09-24_18h12.34.874,OS3_Mult_verification,2022.2.4,Win32,59.32957579,,,,,,,,,,,,,,,,,,,,,,,,,,,,,,,,,,,,,,,,,,,,,,,,,,,,,,,,,,,,,,,,,,,,,,,,,,,,,,,,,,,,,,,,,,,,,,,,,,,,,,,,,,,,right,1,0.5378,,,,,,physical,6,8,6 | 8,2,0.05,0.065,congruent,right,0,47,47,10,1,,,,,,,,,,,,,,,,,,,,,,,,,,,,,,,,,,,,,,,,,,,,,
,8875,CBA,22/01/2005,001,2023-09-24_18h12.34.874,OS3_Mult_verification,2022.2.4,Win32,59.32957579,,,,,,,,,,,,,,,,,,,,,,,,,,,,,,,,,,,,,,,,,,,,,,,,,,,,,,,,,,,,,,,,,,,,,,,,,,,,,,,,,,,,,,,,,,,,,,,,,,,,,,,,,,,,left,1,0.4675,,,,,,physical,2,2,2 | 2,0,0.065,0.05,neutral,left,0,48,48,52,1,,,,,,,,,,,,,,,,,,,,,,,,,,,,,,,,,,,,,,,,,,,,,
,8875,CBA,22/01/2005,001,2023-09-24_18h12.34.874,OS3_Mult_verification,2022.2.4,Win32,59.32957579,,,,,,,,,,,,,,,,,,,,,,,,,,,,,,,,,,,,,,,,,,,,,,,,,,,,,,,,,,,,,,,,,,,,,,,,,,,,,,,,,,,,,,,,,,,,,,,,,,,,,,,,,,,,right,1,0.5079,,,,,,physical,9,9,9 | 9,0,0.05,0.065,neutral,right,0,49,49,63,1,,,,,,,,,,,,,,,,,,,,,,,,,,,,,,,,,,,,,,,,,,,,,
,8875,CBA,22/01/2005,001,2023-09-24_18h12.34.874,OS3_Mult_verification,2022.2.4,Win32,59.32957579,,,,,,,,,,,,,,,,,,,,,,,,,,,,,,,,,,,,,,,,,,,,,,,,,,,,,,,,,,,,,,,,,,,,,,,,,,,,,,,,,,,,,,,,,,,,,,,,,,,,,,,,,,,,right,1,0.5115,,,,,,physical,6,1,6 | 1,5,0.05,0.065,incongruent,right,0,50,50,44,1,,,,,,,,,,,,,,,,,,,,,,,,,,,,,,,,,,,,,,,,,,,,,
,8875,CBA,22/01/2005,001,2023-09-24_18h12.34.874,OS3_Mult_verification,2022.2.4,Win32,59.32957579,,,,,,,,,,,,,,,,,,,,,,,,,,,,,,,,,,,,,,,,,,,,,,,,,,,,,,,,,,,,,,,,,,,,,,,,,,,,,,,,,,,,,,,,,,,,,,,,,,,,,,,,,,,,left,1,0.4889,,,,,,physical,6,6,6 | 6,0,0.065,0.05,neutral,left,0,51,51,50,1,,,,,,,,,,,,,,,,,,,,,,,,,,,,,,,,,,,,,,,,,,,,,
,8875,CBA,22/01/2005,001,2023-09-24_18h12.34.874,OS3_Mult_verification,2022.2.4,Win32,59.32957579,,,,,,,,,,,,,,,,,,,,,,,,,,,,,,,,,,,,,,,,,,,,,,,,,,,,,,,,,,,,,,,,,,,,,,,,,,,,,,,,,,,,,,,,,,,,,,,,,,,,,,,,,,,,right,1,0.5511,,,,,,physical,7,6,7 | 6,1,0.05,0.065,incongruent,right,0,52,52,30,1,,,,,,,,,,,,,,,,,,,,,,,,,,,,,,,,,,,,,,,,,,,,,
,8875,CBA,22/01/2005,001,2023-09-24_18h12.34.874,OS3_Mult_verification,2022.2.4,Win32,59.32957579,,,,,,,,,,,,,,,,,,,,,,,,,,,,,,,,,,,,,,,,,,,,,,,,,,,,,,,,,,,,,,,,,,,,,,,,,,,,,,,,,,,,,,,,,,,,,,,,,,,,,,,,,,,,left,1,0.5335,,,,,,physical,1,1,1 | 1,0,0.065,0.05,neutral,left,0,53,53,48,1,,,,,,,,,,,,,,,,,,,,,,,,,,,,,,,,,,,,,,,,,,,,,
,8875,CBA,22/01/2005,001,2023-09-24_18h12.34.874,OS3_Mult_verification,2022.2.4,Win32,59.32957579,,,,,,,,,,,,,,,,,,,,,,,,,,,,,,,,,,,,,,,,,,,,,,,,,,,,,,,,,,,,,,,,,,,,,,,,,,,,,,,,,,,,,,,,,,,,,,,,,,,,,,,,,,,,right,1,0.5724,,,,,,physical,6,6,6 | 6,0,0.05,0.065,neutral,right,0,54,54,58,1,,,,,,,,,,,,,,,,,,,,,,,,,,,,,,,,,,,,,,,,,,,,,
,8875,CBA,22/01/2005,001,2023-09-24_18h12.34.874,OS3_Mult_verification,2022.2.4,Win32,59.32957579,,,,,,,,,,,,,,,,,,,,,,,,,,,,,,,,,,,,,,,,,,,,,,,,,,,,,,,,,,,,,,,,,,,,,,,,,,,,,,,,,,,,,,,,,,,,,,,,,,,,,,,,,,,,right,1,0.6397,,,,,,physical,9,4,9 | 4,5,0.05,0.065,incongruent,right,0,55,55,47,1,,,,,,,,,,,,,,,,,,,,,,,,,,,,,,,,,,,,,,,,,,,,,
,8875,CBA,22/01/2005,001,2023-09-24_18h12.34.874,OS3_Mult_verification,2022.2.4,Win32,59.32957579,,,,,,,,,,,,,,,,,,,,,,,,,,,,,,,,,,,,,,,,,,,,,,,,,,,,,,,,,,,,,,,,,,,,,,,,,,,,,,,,,,,,,,,,,,,,,,,,,,,,,,,,,,,,right,1,0.5048,,,,,,physical,3,3,3 | 3,0,0.05,0.065,neutral,right,0,56,56,60,1,,,,,,,,,,,,,,,,,,,,,,,,,,,,,,,,,,,,,,,,,,,,,
,8875,CBA,22/01/2005,001,2023-09-24_18h12.34.874,OS3_Mult_verification,2022.2.4,Win32,59.32957579,,,,,,,,,,,,,,,,,,,,,,,,,,,,,,,,,,,,,,,,,,,,,,,,,,,,,,,,,,,,,,,,,,,,,,,,,,,,,,,,,,,,,,,,,,,,,,,,,,,,,,,,,,,,left,1,0.5543,,,,,,physical,3,3,3 | 3,0,0.065,0.05,neutral,left,0,57,57,66,1,,,,,,,,,,,,,,,,,,,,,,,,,,,,,,,,,,,,,,,,,,,,,
,8875,CBA,22/01/2005,001,2023-09-24_18h12.34.874,OS3_Mult_verification,2022.2.4,Win32,59.32957579,,,,,,,,,,,,,,,,,,,,,,,,,,,,,,,,,,,,,,,,,,,,,,,,,,,,,,,,,,,,,,,,,,,,,,,,,,,,,,,,,,,,,,,,,,,,,,,,,,,,,,,,,,,,right,1,0.5063,,,,,,physical,4,2,4 | 2,2,0.05,0.065,incongruent,right,0,58,58,37,1,,,,,,,,,,,,,,,,,,,,,,,,,,,,,,,,,,,,,,,,,,,,,
,8875,CBA,22/01/2005,001,2023-09-24_18h12.34.874,OS3_Mult_verification,2022.2.4,Win32,59.32957579,,,,,,,,,,,,,,,,,,,,,,,,,,,,,,,,,,,,,,,,,,,,,,,,,,,,,,,,,,,,,,,,,,,,,,,,,,,,,,,,,,,,,,,,,,,,,,,,,,,,,,,,,,,,right,1,0.6293,,,,,,physical,2,2,2 | 2,0,0.05,0.065,neutral,right,0,59,59,65,1,,,,,,,,,,,,,,,,,,,,,,,,,,,,,,,,,,,,,,,,,,,,,
,8875,CBA,22/01/2005,001,2023-09-24_18h12.34.874,OS3_Mult_verification,2022.2.4,Win32,59.32957579,,,,,,,,,,,,,,,,,,,,,,,,,,,,,,,,,,,,,,,,,,,,,,,,,,,,,,,,,,,,,,,,,,,,,,,,,,,,,,,,,,,,,,,,,,,,,,,,,,,,,,,,,,,,right,1,0.566,,,,,,physical,8,3,8 | 3,5,0.05,0.065,incongruent,right,0,60,60,46,1,,,,,,,,,,,,,,,,,,,,,,,,,,,,,,,,,,,,,,,,,,,,,
,8875,CBA,22/01/2005,001,2023-09-24_18h12.34.874,OS3_Mult_verification,2022.2.4,Win32,59.32957579,,,,,,,,,,,,,,,,,,,,,,,,,,,,,,,,,,,,,,,,,,,,,,,,,,,,,,,,,,,,,,,,,,,,,,,,,,,,,,,,,,,,,,,,,,,,,,,,,,,,,,,,,,,,right,1,0.6128,,,,,,physical,4,3,4 | 3,1,0.05,0.065,incongruent,right,0,61,61,29,1,,,,,,,,,,,,,,,,,,,,,,,,,,,,,,,,,,,,,,,,,,,,,
,8875,CBA,22/01/2005,001,2023-09-24_18h12.34.874,OS3_Mult_verification,2022.2.4,Win32,59.32957579,,,,,,,,,,,,,,,,,,,,,,,,,,,,,,,,,,,,,,,,,,,,,,,,,,,,,,,,,,,,,,,,,,,,,,,,,,,,,,,,,,,,,,,,,,,,,,,,,,,,,,,,,,,,left,1,0.6875,,,,,,physical,7,2,7 | 2,5,0.065,0.05,congruent,left,0,62,62,21,1,,,,,,,,,,,,,,,,,,,,,,,,,,,,,,,,,,,,,,,,,,,,,
,8875,CBA,22/01/2005,001,2023-09-24_18h12.34.874,OS3_Mult_verification,2022.2.4,Win32,59.32957579,,,,,,,,,,,,,,,,,,,,,,,,,,,,,,,,,,,,,,,,,,,,,,,,,,,,,,,,,,,,,,,,,,,,,,,,,,,,,,,,,,,,,,,,,,,,,,,,,,,,,,,,,,,,right,1,0.6277,,,,,,physical,2,1,2 | 1,1,0.05,0.065,incongruent,right,0,63,63,28,1,,,,,,,,,,,,,,,,,,,,,,,,,,,,,,,,,,,,,,,,,,,,,
,8875,CBA,22/01/2005,001,2023-09-24_18h12.34.874,OS3_Mult_verification,2022.2.4,Win32,59.32957579,,,,,,,,,,,,,,,,,,,,,,,,,,,,,,,,,,,,,,,,,,,,,,,,,,,,,,,,,,,,,,,,,,,,,,,,,,,,,,,,,,,,,,,,,,,,,,,,,,,,,,,,,,,,left,1,1.5665,,,,,,physical,4,3,4 | 3,1,0.065,0.05,congruent,left,0,64,64,5,1,,,,,,,,,,,,,,,,,,,,,,,,,,,,,,,,,,,,,,,,,,,,,
,8875,CBA,22/01/2005,001,2023-09-24_18h12.34.874,OS3_Mult_verification,2022.2.4,Win32,59.32957579,,,,,,,,,,,,,,,,,,,,,,,,,,,,,,,,,,,,,,,,,,,,,,,,,,,,,,,,,,,,,,,,,,,,,,,,,,,,,,,,,,,,,,,,,,,,,,,,,,,,,,,,,,,,right,1,0.5001,,,,,,physical,1,3,1 | 3,2,0.05,0.065,congruent,right,0,65,65,8,1,,,,,,,,,,,,,,,,,,,,,,,,,,,,,,,,,,,,,,,,,,,,,
,8875,CBA,22/01/2005,001,2023-09-24_18h12.34.874,OS3_Mult_verification,2022.2.4,Win32,59.32957579,,,,,,,,,,,,,,,,,,,,,,,,,,,,,,,,,,,,,,,,,,,,,,,,,,,,,,,,,,,,,,,,,,,,,,,,,,,,,,,,,,,,,,,,,,,,,,,,,,,,,,,,,,,,right,1,0.54,,,,,,physical,2,4,2 | 4,2,0.05,0.065,congruent,right,0,66,66,9,1,,,,,,,,,,,,,,,,,,,,,,,,,,,,,,,,,,,,,,,,,,,,,
,8875,CBA,22/01/2005,001,2023-09-24_18h12.34.874,OS3_Mult_verification,2022.2.4,Win32,59.32957579,,,,,,,,,,,,,,,,,,,,,,,,,,,,,,,,,,,,,,,,,,,,,,,,,,,,,,,,,,,,,,,,,,,,,,,,,,,,,,,,,,,,,,,,,,,,,,,,,,,,,,,,,,,,left,1,0.7753,,,,,,physical,2,7,2 | 7,5,0.065,0.05,incongruent,left,0,67,67,41,1,,,,,,,,,,,,,,,,,,,,,,,,,,,,,,,,,,,,,,,,,,,,,
,8875,CBA,22/01/2005,001,2023-09-24_18h12.34.874,OS3_Mult_verification,2022.2.4,Win32,59.32957579,,,,,,,,,,,,,,,,,,,,,,,,,,,,,,,,,,,,,,,,,,,,,,,,,,,,,,,,,,,,,,,,,,,,,,,,,,,,,,,,,,,,,,,,,,,,,,,,,,,,,,,,,,,,right,1,0.5247,,,,,,physical,3,8,3 | 8,5,0.05,0.065,congruent,right,0,68,68,18,1,,,,,,,,,,,,,,,,,,,,,,,,,,,,,,,,,,,,,,,,,,,,,
,8875,CBA,22/01/2005,001,2023-09-24_18h12.34.874,OS3_Mult_verification,2022.2.4,Win32,59.32957579,,,,,,,,,,,,,,,,,,,,,,,,,,,,,,,,,,,,,,,,,,,,,,,,,,,,,,,,,,,,,,,,,,,,,,,,,,,,,,,,,,,,,,,,,,,,,,,,,,,,,,,,,,,,left,1,0.6228,,,,,,physical,2,1,2 | 1,1,0.065,0.05,congruent,left,0,69,69,4,1,,,,,,,,,,,,,,,,,,,,,,,,,,,,,,,,,,,,,,,,,,,,,
,8875,CBA,22/01/2005,001,2023-09-24_18h12.34.874,OS3_Mult_verification,2022.2.4,Win32,59.32957579,,,,,,,,,,,,,,,,,,,,,,,,,,,,,,,,,,,,,,,,,,,,,,,,,,,,,,,,,,,,,,,,,,,,,,,,,,,,,,,,,,,,,,,,,,,,,,,,,,,,,,,,,,,,right,1,0.5502,,,,,,physical,7,9,7 | 9,2,0.05,0.065,congruent,right,0,70,70,11,1,,,,,,,,,,,,,,,,,,,,,,,,,,,,,,,,,,,,,,,,,,,,,
,8875,CBA,22/01/2005,001,2023-09-24_18h12.34.874,OS3_Mult_verification,2022.2.4,Win32,59.32957579,,,,,,,,,,,,,,,,,,,,,,,,,,,,,,,,,,,,,,,,,,,,,,,,,,,,,,,,,,,,,,,,,,,,,,,,,,,,,,,,,,,,,,,,,,,,,,,,,,,,,,,,,,,,right,1,0.7794,,,,,,physical,6,7,6 | 7,1,0.05,0.065,congruent,right,0,71,71,2,1,,,,,,,,,,,,,,,,,,,,,,,,,,,,,,,,,,,,,,,,,,,,,
,8875,CBA,22/01/2005,001,2023-09-24_18h12.34.874,OS3_Mult_verification,2022.2.4,Win32,59.32957579,,,,,,,,,,,,,,,,,,,,,,,,,,,,,,,,,,,,,,,,,,,,,,,,,,,,,,,,,,,,,,,,,,,,,,,,,,,,,,,,,,,,,,,,,,,,,,,,,,,,,,,,,,,,,,,,,,,,,,,,,,,,,,,,,,0,0,0,1,1,stroop_stim/physical.xlsx,stroop_stim/prac_physical.xlsx,PHYSICALLY larger (larger font size).,images/physicallyLarger.png,,,,,,,,,,,,,,,,,,,,,,,,,,,,,,,,,,,,
,8875,CBA,22/01/2005,001,2023-09-24_18h12.34.874,OS3_Mult_verification,2022.2.4,Win32,59.32957579,,,,,,,,,,,,,,,,space,0.9342,,,,,,,,,,,,,,,,,,,,,,,,,,,,,,,,,,,,,,,,,,,,,,,,,,,,,,,,,,,,,,,,,,,,,,,,,,,,,,,,,,,,,,,,,,,right,1,0.7974,0,0,0,0,1,practice,1,2,1 | 2,1,0.05,0.065,congruent,right,,,,,,,,,,,,,,,,,,,,,,,,,,,,,,,,,,,,,,,,,,,,,,,,,,
,8875,CBA,22/01/2005,001,2023-09-24_18h12.34.874,OS3_Mult_verification,2022.2.4,Win32,59.32957579,,,,,,,,,,,,,,,,,,,,,,,,,,,,,,,,,,,,,,,,,,,,,,,,,,,,,,,,,,,,,,,,,,,,,,,,,,,,,,,,,,,,,,,,,,,,,,,,,,,,,,,,,,,,right,1,0.848,0,1,1,2,1,practice,4,9,4 | 9,5,0.06,0.06,neutral,right,,,,,,,,,,,,,,,,,,,,,,,,,,,,,,,,,,,,,,,,,,,,,,,,,,
,8875,CBA,22/01/2005,001,2023-09-24_18h12.34.874,OS3_Mult_verification,2022.2.4,Win32,59.32957579,,,,,,,,,,,,,,,,,,,,,,,,,,,,,,,,,,,,,,,,,,,,,,,,,,,,,,,,,,,,,,,,,,,,,,,,,,,,,,,,,,,,,,,,,,,,,,,,,,,,,,,,,,,,right,1,0.8063,0,2,2,1,1,practice,7,8,7 | 8,1,0.065,0.05,incongruent,right,,,,,,,,,,,,,,,,,,,,,,,,,,,,,,,,,,,,,,,,,,,,,,,,,,
,8875,CBA,22/01/2005,001,2023-09-24_18h12.34.874,OS3_Mult_verification,2022.2.4,Win32,59.32957579,,,,,,,,,,,,,,,,,,,,,,,,,,,,,,,,,,,,,,,,,,,,,,,,,,,,,,,,,,,,,,,,,,,,,,,,,,,,,,,,,,,,,,,,,,,,,,,,,,,,,,,,,,,,right,1,0.9248,,,,,,magnitude,2,4,2 | 4,2,0.065,0.05,incongruent,right,0,0,0,33,1,,,,,,,,,,,,,,,,,,,,,,,,,,,,,,,,,,,,,,,,,,,,,
,8875,CBA,22/01/2005,001,2023-09-24_18h12.34.874,OS3_Mult_verification,2022.2.4,Win32,59.32957579,,,,,,,,,,,,,,,,,,,,,,,,,,,,,,,,,,,,,,,,,,,,,,,,,,,,,,,,,,,,,,,,,,,,,,,,,,,,,,,,,,,,,,,,,,,,,,,,,,,,,,,,,,,,right,1,1.1028,,,,,,magnitude,6,7,6 | 7,1,0.06,0.06,neutral,right,0,1,1,50,1,,,,,,,,,,,,,,,,,,,,,,,,,,,,,,,,,,,,,,,,,,,,,
,8875,CBA,22/01/2005,001,2023-09-24_18h12.34.874,OS3_Mult_verification,2022.2.4,Win32,59.32957579,,,,,,,,,,,,,,,,,,,,,,,,,,,,,,,,,,,,,,,,,,,,,,,,,,,,,,,,,,,,,,,,,,,,,,,,,,,,,,,,,,,,,,,,,,,,,,,,,,,,,,,,,,,,left,1,0.7444,,,,,,magnitude,8,6,8 | 6,2,0.06,0.06,neutral,left,0,2,2,62,1,,,,,,,,,,,,,,,,,,,,,,,,,,,,,,,,,,,,,,,,,,,,,
,8875,CBA,22/01/2005,001,2023-09-24_18h12.34.874,OS3_Mult_verification,2022.2.4,Win32,59.32957579,,,,,,,,,,,,,,,,,,,,,,,,,,,,,,,,,,,,,,,,,,,,,,,,,,,,,,,,,,,,,,,,,,,,,,,,,,,,,,,,,,,,,,,,,,,,,,,,,,,,,,,,,,,,left,1,0.9371,,,,,,magnitude,2,1,2 | 1,1,0.06,0.06,neutral,left,0,3,3,52,1,,,,,,,,,,,,,,,,,,,,,,,,,,,,,,,,,,,,,,,,,,,,,
,8875,CBA,22/01/2005,001,2023-09-24_18h12.34.874,OS3_Mult_verification,2022.2.4,Win32,59.32957579,,,,,,,,,,,,,,,,,,,,,,,,,,,,,,,,,,,,,,,,,,,,,,,,,,,,,,,,,,,,,,,,,,,,,,,,,,,,,,,,,,,,,,,,,,,,,,,,,,,,,,,,,,,,right,1,0.913,,,,,,magnitude,6,8,6 | 8,2,0.06,0.06,neutral,right,0,4,4,58,1,,,,,,,,,,,,,,,,,,,,,,,,,,,,,,,,,,,,,,,,,,,,,
,8875,CBA,22/01/2005,001,2023-09-24_18h12.34.874,OS3_Mult_verification,2022.2.4,Win32,59.32957579,,,,,,,,,,,,,,,,,,,,,,,,,,,,,,,,,,,,,,,,,,,,,,,,,,,,,,,,,,,,,,,,,,,,,,,,,,,,,,,,,,,,,,,,,,,,,,,,,,,,,,,,,,,,right,1,0.9502,,,,,,magnitude,1,2,1 | 2,1,0.06,0.06,neutral,right,0,5,5,48,1,,,,,,,,,,,,,,,,,,,,,,,,,,,,,,,,,,,,,,,,,,,,,
,8875,CBA,22/01/2005,001,2023-09-24_18h12.34.874,OS3_Mult_verification,2022.2.4,Win32,59.32957579,,,,,,,,,,,,,,,,,,,,,,,,,,,,,,,,,,,,,,,,,,,,,,,,,,,,,,,,,,,,,,,,,,,,,,,,,,,,,,,,,,,,,,,,,,,,,,,,,,,,,,,,,,,,left,1,0.8083,,,,,,magnitude,8,3,8 | 3,5,0.06,0.06,neutral,left,0,6,6,70,1,,,,,,,,,,,,,,,,,,,,,,,,,,,,,,,,,,,,,,,,,,,,,
,8875,CBA,22/01/2005,001,2023-09-24_18h12.34.874,OS3_Mult_verification,2022.2.4,Win32,59.32957579,,,,,,,,,,,,,,,,,,,,,,,,,,,,,,,,,,,,,,,,,,,,,,,,,,,,,,,,,,,,,,,,,,,,,,,,,,,,,,,,,,,,,,,,,,,,,,,,,,,,,,,,,,,,right,1,0.7673,,,,,,magnitude,1,6,1 | 6,5,0.065,0.05,incongruent,right,0,7,7,40,1,,,,,,,,,,,,,,,,,,,,,,,,,,,,,,,,,,,,,,,,,,,,,
,8875,CBA,22/01/2005,001,2023-09-24_18h12.34.874,OS3_Mult_verification,2022.2.4,Win32,59.32957579,,,,,,,,,,,,,,,,,,,,,,,,,,,,,,,,,,,,,,,,,,,,,,,,,,,,,,,,,,,,,,,,,,,,,,,,,,,,,,,,,,,,,,,,,,,,,,,,,,,,,,,,,,,,right,1,0.8367,,,,,,magnitude,2,7,2 | 7,5,0.05,0.065,congruent,right,0,8,8,17,1,,,,,,,,,,,,,,,,,,,,,,,,,,,,,,,,,,,,,,,,,,,,,
,8875,CBA,22/01/2005,001,2023-09-24_18h12.34.874,OS3_Mult_verification,2022.2.4,Win32,59.32957579,,,,,,,,,,,,,,,,,,,,,,,,,,,,,,,,,,,,,,,,,,,,,,,,,,,,,,,,,,,,,,,,,,,,,,,,,,,,,,,,,,,,,,,,,,,,,,,,,,,,,,,,,,,,left,1,0.8455,,,,,,magnitude,8,3,8 | 3,5,0.065,0.05,congruent,left,0,9,9,22,1,,,,,,,,,,,,,,,,,,,,,,,,,,,,,,,,,,,,,,,,,,,,,
,8875,CBA,22/01/2005,001,2023-09-24_18h12.34.874,OS3_Mult_verification,2022.2.4,Win32,59.32957579,,,,,,,,,,,,,,,,,,,,,,,,,,,,,,,,,,,,,,,,,,,,,,,,,,,,,,,,,,,,,,,,,,,,,,,,,,,,,,,,,,,,,,,,,,,,,,,,,,,,,,,,,,,,right,1,0.7669,,,,,,magnitude,3,4,3 | 4,1,0.065,0.05,incongruent,right,0,10,10,25,1,,,,,,,,,,,,,,,,,,,,,,,,,,,,,,,,,,,,,,,,,,,,,
,8875,CBA,22/01/2005,001,2023-09-24_18h12.34.874,OS3_Mult_verification,2022.2.4,Win32,59.32957579,,,,,,,,,,,,,,,,,,,,,,,,,,,,,,,,,,,,,,,,,,,,,,,,,,,,,,,,,,,,,,,,,,,,,,,,,,,,,,,,,,,,,,,,,,,,,,,,,,,,,,,,,,,,left,1,0.7782,,,,,,magnitude,3,1,3 | 1,2,0.065,0.05,congruent,left,0,11,11,12,1,,,,,,,,,,,,,,,,,,,,,,,,,,,,,,,,,,,,,,,,,,,,,
,8875,CBA,22/01/2005,001,2023-09-24_18h12.34.874,OS3_Mult_verification,2022.2.4,Win32,59.32957579,,,,,,,,,,,,,,,,,,,,,,,,,,,,,,,,,,,,,,,,,,,,,,,,,,,,,,,,,,,,,,,,,,,,,,,,,,,,,,,,,,,,,,,,,,,,,,,,,,,,,,,,,,,,left,1,0.8856,,,,,,magnitude,7,2,7 | 2,5,0.05,0.065,incongruent,left,0,12,12,45,1,,,,,,,,,,,,,,,,,,,,,,,,,,,,,,,,,,,,,,,,,,,,,
,8875,CBA,22/01/2005,001,2023-09-24_18h12.34.874,OS3_Mult_verification,2022.2.4,Win32,59.32957579,,,,,,,,,,,,,,,,,,,,,,,,,,,,,,,,,,,,,,,,,,,,,,,,,,,,,,,,,,,,,,,,,,,,,,,,,,,,,,,,,,,,,,,,,,,,,,,,,,,,,,,,,,,,right,1,1.1528,,,,,,magnitude,6,8,6 | 8,2,0.065,0.05,incongruent,right,0,13,13,34,1,,,,,,,,,,,,,,,,,,,,,,,,,,,,,,,,,,,,,,,,,,,,,
,8875,CBA,22/01/2005,001,2023-09-24_18h12.34.874,OS3_Mult_verification,2022.2.4,Win32,59.32957579,,,,,,,,,,,,,,,,,,,,,,,,,,,,,,,,,,,,,,,,,,,,,,,,,,,,,,,,,,,,,,,,,,,,,,,,,,,,,,,,,,,,,,,,,,,,,,,,,,,,,,,,,,,,right,1,1.0268,,,,,,magnitude,1,3,1 | 3,2,0.05,0.065,congruent,right,0,14,14,8,1,,,,,,,,,,,,,,,,,,,,,,,,,,,,,,,,,,,,,,,,,,,,,
,8875,CBA,22/01/2005,001,2023-09-24_18h12.34.874,OS3_Mult_verification,2022.2.4,Win32,59.32957579,,,,,,,,,,,,,,,,,,,,,,,,,,,,,,,,,,,,,,,,,,,,,,,,,,,,,,,,,,,,,,,,,,,,,,,,,,,,,,,,,,,,,,,,,,,,,,,,,,,,,,,,,,,,right,1,0.8635,,,,,,magnitude,4,9,4 | 9,5,0.06,0.06,neutral,right,0,15,15,67,1,,,,,,,,,,,,,,,,,,,,,,,,,,,,,,,,,,,,,,,,,,,,,
,8875,CBA,22/01/2005,001,2023-09-24_18h12.34.874,OS3_Mult_verification,2022.2.4,Win32,59.32957579,,,,,,,,,,,,,,,,,,,,,,,,,,,,,,,,,,,,,,,,,,,,,,,,,,,,,,,,,,,,,,,,,,,,,,,,,,,,,,,,,,,,,,,,,,,,,,,,,,,,,,,,,,,,right,1,0.7291,,,,,,magnitude,1,6,1 | 6,5,0.06,0.06,neutral,right,0,16,16,64,1,,,,,,,,,,,,,,,,,,,,,,,,,,,,,,,,,,,,,,,,,,,,,
,8875,CBA,22/01/2005,001,2023-09-24_18h12.34.874,OS3_Mult_verification,2022.2.4,Win32,59.32957579,,,,,,,,,,,,,,,,,,,,,,,,,,,,,,,,,,,,,,,,,,,,,,,,,,,,,,,,,,,,,,,,,,,,,,,,,,,,,,,,,,,,,,,,,,,,,,,,,,,,,,,,,,,,right,1,0.7123,,,,,,magnitude,1,6,1 | 6,5,0.05,0.065,congruent,right,0,17,17,16,1,,,,,,,,,,,,,,,,,,,,,,,,,,,,,,,,,,,,,,,,,,,,,
,8875,CBA,22/01/2005,001,2023-09-24_18h12.34.874,OS3_Mult_verification,2022.2.4,Win32,59.32957579,,,,,,,,,,,,,,,,,,,,,,,,,,,,,,,,,,,,,,,,,,,,,,,,,,,,,,,,,,,,,,,,,,,,,,,,,,,,,,,,,,,,,,,,,,,,,,,,,,,,,,,,,,,,right,1,1.001,,,,,,magnitude,1,2,1 | 2,1,0.065,0.05,incongruent,right,0,18,18,24,1,,,,,,,,,,,,,,,,,,,,,,,,,,,,,,,,,,,,,,,,,,,,,
,8875,CBA,22/01/2005,001,2023-09-24_18h12.34.874,OS3_Mult_verification,2022.2.4,Win32,59.32957579,,,,,,,,,,,,,,,,,,,,,,,,,,,,,,,,,,,,,,,,,,,,,,,,,,,,,,,,,,,,,,,,,,,,,,,,,,,,,,,,,,,,,,,,,,,,,,,,,,,,,,,,,,,,right,1,1.2297,,,,,,magnitude,2,7,2 | 7,5,0.065,0.05,incongruent,right,0,19,19,41,1,,,,,,,,,,,,,,,,,,,,,,,,,,,,,,,,,,,,,,,,,,,,,
,8875,CBA,22/01/2005,001,2023-09-24_18h12.34.874,OS3_Mult_verification,2022.2.4,Win32,59.32957579,,,,,,,,,,,,,,,,,,,,,,,,,,,,,,,,,,,,,,,,,,,,,,,,,,,,,,,,,,,,,,,,,,,,,,,,,,,,,,,,,,,,,,,,,,,,,,,,,,,,,,,,,,,,right,1,0.9417,,,,,,magnitude,7,9,7 | 9,2,0.06,0.06,neutral,right,0,20,20,59,1,,,,,,,,,,,,,,,,,,,,,,,,,,,,,,,,,,,,,,,,,,,,,
,8875,CBA,22/01/2005,001,2023-09-24_18h12.34.874,OS3_Mult_verification,2022.2.4,Win32,59.32957579,,,,,,,,,,,,,,,,,,,,,,,,,,,,,,,,,,,,,,,,,,,,,,,,,,,,,,,,,,,,,,,,,,,,,,,,,,,,,,,,,,,,,,,,,,,,,,,,,,,,,,,,,,,,right,1,0.8677,,,,,,magnitude,8,9,8 | 9,1,0.05,0.065,congruent,right,0,21,21,3,1,,,,,,,,,,,,,,,,,,,,,,,,,,,,,,,,,,,,,,,,,,,,,
,8875,CBA,22/01/2005,001,2023-09-24_18h12.34.874,OS3_Mult_verification,2022.2.4,Win32,59.32957579,,,,,,,,,,,,,,,,,,,,,,,,,,,,,,,,,,,,,,,,,,,,,,,,,,,,,,,,,,,,,,,,,,,,,,,,,,,,,,,,,,,,,,,,,,,,,,,,,,,,,,,,,,,,left,1,0.993,,,,,,magnitude,9,8,9 | 8,1,0.065,0.05,congruent,left,0,22,22,7,1,,,,,,,,,,,,,,,,,,,,,,,,,,,,,,,,,,,,,,,,,,,,,
,8875,CBA,22/01/2005,001,2023-09-24_18h12.34.874,OS3_Mult_verification,2022.2.4,Win32,59.32957579,,,,,,,,,,,,,,,,,,,,,,,,,,,,,,,,,,,,,,,,,,,,,,,,,,,,,,,,,,,,,,,,,,,,,,,,,,,,,,,,,,,,,,,,,,,,,,,,,,,,,,,,,,,,right,1,1.0001,,,,,,magnitude,3,8,3 | 8,5,0.05,0.065,congruent,right,0,23,23,18,1,,,,,,,,,,,,,,,,,,,,,,,,,,,,,,,,,,,,,,,,,,,,,
,8875,CBA,22/01/2005,001,2023-09-24_18h12.34.874,OS3_Mult_verification,2022.2.4,Win32,59.32957579,,,,,,,,,,,,,,,,,,,,,,,,,,,,,,,,,,,,,,,,,,,,,,,,,,,,,,,,,,,,,,,,,,,,,,,,,,,,,,,,,,,,,,,,,,,,,,,,,,,,,,,,,,,,right,1,0.8813,,,,,,magnitude,1,3,1 | 3,2,0.06,0.06,neutral,right,0,24,24,56,1,,,,,,,,,,,,,,,,,,,,,,,,,,,,,,,,,,,,,,,,,,,,,
