windowSize,participant,group,DOB (DD/MM/YEAR),session,date,expName,psychopyVersion,OS,frameRate,typing_instr_resp.keys,typing_instr_resp.rt,typing_response,typing_rt,typing_score,typingSpeed_input_resp.keys,typingSpeed_input_resp.rt,typing_speed_trials.thisRepN,typing_speed_trials.thisTrialN,typing_speed_trials.thisN,typing_speed_trials.thisIndex,typing_speed_trials.ran,typing_speed_stim,typing_report_resp.keys,typing_report_resp.rt,vpt_trial_resp1.keys,vpt_trial_resp1.rt,typedResponse,fluency_rt,fluency_score,fluencyInputResp.keys,fluencyInputResp.rt,fluencyPracLoop.thisRepN,fluencyPracLoop.thisTrialN,fluencyPracLoop.thisN,fluencyPracLoop.thisIndex,fluencyPracLoop.ran,problem,answers,fluencyLoop.thisRepN,fluencyLoop.thisTrialN,fluencyLoop.thisN,fluencyLoop.thisIndex,fluencyLoop.ran,vptCorrect,vpt_rt,respMouse.x,respMouse.y,respMouse.leftButton,respMouse.midButton,respMouse.rightButton,vptPracticeLoop.thisRepN,vptPracticeLoop.thisTrialN,vptPracticeLoop.thisN,vptPracticeLoop.thisIndex,vptPracticeLoop.ran,trialType,tiles,rows,cols,vptTrialLoop.thisRepN,vptTrialLoop.thisTrialN,vptTrialLoop.thisN,vptTrialLoop.thisIndex,vptTrialLoop.ran,noOfBlocks,TASK_B.thisRepN,TASK_B.thisTrialN,TASK_B.thisN,TASK_B.thisIndex,TASK_B.ran,controlTaskOrder.thisRepN,controlTaskOrder.thisTrialN,controlTaskOrder.thisN,controlTaskOrder.thisIndex,controlTaskOrder.ran,nRepsTask1,nRepsTask2,nRepsTask3,stroopResp.keys,stroopResp.corr,stroopResp.rt,stroopPracLoop.thisRepN,stroopPracLoop.thisTrialN,stroopPracLoop.thisN,stroopPracLoop.thisIndex,stroopPracLoop.ran,stroopCond,leftNo,rightNo,displayProblem,numDistance,leftNo_size,rightNo_size,Dims,keyAnswer,stroopLoop.thisRepN,stroopLoop.thisTrialN,stroopLoop.thisN,stroopLoop.thisIndex,stroopLoop.ran,stroopBlocks.thisRepN,stroopBlocks.thisTrialN,stroopBlocks.thisN,stroopBlocks.thisIndex,stroopBlocks.ran,stroop_condition,stroop_pracFile,ActionInst,instrImage,TASK_A.thisRepN,TASK_A.thisTrialN,TASK_A.thisN,TASK_A.thisIndex,TASK_A.ran,sampleAudio_resp.keys,sampleAudio_resp.rt,subjResponse,audio_rt,DS_score,inputResp.keys,inputResp.rt,audioPracticeLoop.thisRepN,audioPracticeLoop.thisTrialN,audioPracticeLoop.thisN,audioPracticeLoop.thisIndex,audioPracticeLoop.ran,digitSpan,digits_audioStim,soundsFile,typeDS,audioTrials_Loop.thisRepN,audioTrials_Loop.thisTrialN,audioTrials_Loop.thisN,audioTrials_Loop.thisIndex,audioTrials_Loop.ran,audioBlocks_loop.thisRepN,audioBlocks_loop.thisTrialN,audioBlocks_loop.thisN,audioBlocks_loop.thisIndex,audioBlocks_loop.ran,ConditionFile,digitSpanTask_loop.thisRepN,digitSpanTask_loop.thisTrialN,digitSpanTask_loop.thisN,digitSpanTask_loop.thisIndex,digitSpanTask_loop.ran,dsFile,TASK_C.thisRepN,TASK_C.thisTrialN,TASK_C.thisN,TASK_C.thisIndex,TASK_C.ran,veriStim_resp.keys,veriStim_resp.corr,veriStim_resp.rt,verificationPracLoop.thisRepN,verificationPracLoop.thisTrialN,verificationPracLoop.thisN,verificationPracLoop.thisIndex,verificationPracLoop.ran,mult_problem,mult_answer,mult_type,error_distance,interferenceScore,problemType,interferenceLevel,problemSize,img_leftButton,img_rightButton,veriLoop.thisRepN,veriLoop.thisTrialN,veriLoop.thisN,veriLoop.thisIndex,veriLoop.ran,veriBlock.thisRepN,veriBlock.thisTrialN,veriBlock.thisN,veriBlock.thisIndex,veriBlock.ran,verificationFiles,end_resp.keys,end_resp.rt
"[1272,564]",8833,BAC,12/08/2004,001,2023-09-29_13h56.11.418,OS3_Mult_verification,2022.2.4,Win32,59.90176111,,,,,,,,,,,,,,,,,,,,,,,,,,,,,,,,,,,,,,,,,,,,,,,,,,,,,,,,,,,,,,,,,,,,,,,,,,,,,,,,,,,,,,,,,,,,,,,,,,,,,,,,,,,,,,,,,,,,,,,,,,,,,,,,,,,,,,,,,,,,,,,,,,,,,,,,,,,,,,,,,,,,,,,,,,,,,,
,8833,BAC,12/08/2004,001,2023-09-29_13h56.11.418,OS3_Mult_verification,2022.2.4,Win32,59.90176111,,,,,,,,,,,,,,,,,,,,,,,,,,,,,,,,,,,,,,,,,,,,,,,,,,,,,,,,,,,,,,,,,,,,,,,,,,,,,,,,,,,,,,,,,,,,,,,,,,,,,,,,,,,,,,,,,,,,,,,,,,,,,,,,,,,,,,,,,,,,,,,,,,,,,,,,,,,,,,,,,,,,,,,,,,,,,,
,8833,BAC,12/08/2004,001,2023-09-29_13h56.11.418,OS3_Mult_verification,2022.2.4,Win32,59.90176111,space,18.1077,,,,,,,,,,,,,,,,,,,,,,,,,,,,,,,,,,,,,,,,,,,,,,,,,,,,,,,,,,,,,,,,,,,,,,,,,,,,,,,,,,,,,,,,,,,,,,,,,,,,,,,,,,,,,,,,,,,,,,,,,,,,,,,,,,,,,,,,,,,,,,,,,,,,,,,,,,,,,,,,,,,,,,,,,,,,
,8833,BAC,12/08/2004,001,2023-09-29_13h56.11.418,OS3_Mult_verification,2022.2.4,Win32,59.90176111,,,48,2.2155,1,"[""4"",""8"",""return""]","[1.5324999999999989,1.8172999999821258,2.176000000000002]",0,0,0,23,1,48,,,,,,,,,,,,,,,,,,,,,,,,,,,,,,,,,,,,,,,,,,,,,,,,,,,,,,,,,,,,,,,,,,,,,,,,,,,,,,,,,,,,,,,,,,,,,,,,,,,,,,,,,,,,,,,,,,,,,,,,,,,,,,,,,,,,,,,,,,,,,,,,,,,,,,,,,,,,,,,,,
,8833,BAC,12/08/2004,001,2023-09-29_13h56.11.418,OS3_Mult_verification,2022.2.4,Win32,59.90176111,,,63,1.4152,1,"[""6"",""3"",""return""]","[0.9227999999821179,1.2000999999940518,1.3671999999880882]",0,1,1,27,1,63,,,,,,,,,,,,,,,,,,,,,,,,,,,,,,,,,,,,,,,,,,,,,,,,,,,,,,,,,,,,,,,,,,,,,,,,,,,,,,,,,,,,,,,,,,,,,,,,,,,,,,,,,,,,,,,,,,,,,,,,,,,,,,,,,,,,,,,,,,,,,,,,,,,,,,,,,,,,,,,,,
,8833,BAC,12/08/2004,001,2023-09-29_13h56.11.418,OS3_Mult_verification,2022.2.4,Win32,59.90176111,,,21,1.2489,1,"[""2"",""1"",""return""]","[0.8585999999940412,1.0504999999999995,1.204499999999996]",0,2,2,11,1,21,,,,,,,,,,,,,,,,,,,,,,,,,,,,,,,,,,,,,,,,,,,,,,,,,,,,,,,,,,,,,,,,,,,,,,,,,,,,,,,,,,,,,,,,,,,,,,,,,,,,,,,,,,,,,,,,,,,,,,,,,,,,,,,,,,,,,,,,,,,,,,,,,,,,,,,,,,,,,,,,,
,8833,BAC,12/08/2004,001,2023-09-29_13h56.11.418,OS3_Mult_verification,2022.2.4,Win32,59.90176111,,,27,1.4331,1,"[""2"",""7"",""return""]","[0.7845000000000084,1.1440000000000055,1.3894000000059634]",0,3,3,14,1,27,,,,,,,,,,,,,,,,,,,,,,,,,,,,,,,,,,,,,,,,,,,,,,,,,,,,,,,,,,,,,,,,,,,,,,,,,,,,,,,,,,,,,,,,,,,,,,,,,,,,,,,,,,,,,,,,,,,,,,,,,,,,,,,,,,,,,,,,,,,,,,,,,,,,,,,,,,,,,,,,,
,8833,BAC,12/08/2004,001,2023-09-29_13h56.11.418,OS3_Mult_verification,2022.2.4,Win32,59.90176111,,,49,1.718,1,"[""4"",""9"",""return""]","[0.7555999999940326,1.086999999999989,1.6824999999999903]",0,4,4,24,1,49,,,,,,,,,,,,,,,,,,,,,,,,,,,,,,,,,,,,,,,,,,,,,,,,,,,,,,,,,,,,,,,,,,,,,,,,,,,,,,,,,,,,,,,,,,,,,,,,,,,,,,,,,,,,,,,,,,,,,,,,,,,,,,,,,,,,,,,,,,,,,,,,,,,,,,,,,,,,,,,,,
,8833,BAC,12/08/2004,001,2023-09-29_13h56.11.418,OS3_Mult_verification,2022.2.4,Win32,59.90176111,,,14,1.2995,1,"[""1"",""4"",""return""]","[0.8365999999940499,1.089500000000001,1.2515000000000072]",0,5,5,6,1,14,,,,,,,,,,,,,,,,,,,,,,,,,,,,,,,,,,,,,,,,,,,,,,,,,,,,,,,,,,,,,,,,,,,,,,,,,,,,,,,,,,,,,,,,,,,,,,,,,,,,,,,,,,,,,,,,,,,,,,,,,,,,,,,,,,,,,,,,,,,,,,,,,,,,,,,,,,,,,,,,,
,8833,BAC,12/08/2004,001,2023-09-29_13h56.11.418,OS3_Mult_verification,2022.2.4,Win32,59.90176111,,,40,1.2492,1,"[""4"",""0"",""return""]","[0.7587000000178818,0.9557000000178846,1.2157000000178755]",0,6,6,20,1,40,,,,,,,,,,,,,,,,,,,,,,,,,,,,,,,,,,,,,,,,,,,,,,,,,,,,,,,,,,,,,,,,,,,,,,,,,,,,,,,,,,,,,,,,,,,,,,,,,,,,,,,,,,,,,,,,,,,,,,,,,,,,,,,,,,,,,,,,,,,,,,,,,,,,,,,,,,,,,,,,,
,8833,BAC,12/08/2004,001,2023-09-29_13h56.11.418,OS3_Mult_verification,2022.2.4,Win32,59.90176111,,,32,1.2178,1,"[""3"",""2"",""return""]","[0.7869000000059714,0.9946999999880859,1.183599999994044]",0,7,7,17,1,32,,,,,,,,,,,,,,,,,,,,,,,,,,,,,,,,,,,,,,,,,,,,,,,,,,,,,,,,,,,,,,,,,,,,,,,,,,,,,,,,,,,,,,,,,,,,,,,,,,,,,,,,,,,,,,,,,,,,,,,,,,,,,,,,,,,,,,,,,,,,,,,,,,,,,,,,,,,,,,,,,
,8833,BAC,12/08/2004,001,2023-09-29_13h56.11.418,OS3_Mult_verification,2022.2.4,Win32,59.90176111,,,6,1.118,1,"[""6"",""return""]","[0.9172000000178855,1.0829999999999984]",0,8,8,1,1,6,,,,,,,,,,,,,,,,,,,,,,,,,,,,,,,,,,,,,,,,,,,,,,,,,,,,,,,,,,,,,,,,,,,,,,,,,,,,,,,,,,,,,,,,,,,,,,,,,,,,,,,,,,,,,,,,,,,,,,,,,,,,,,,,,,,,,,,,,,,,,,,,,,,,,,,,,,,,,,,,,
,8833,BAC,12/08/2004,001,2023-09-29_13h56.11.418,OS3_Mult_verification,2022.2.4,Win32,59.90176111,,,9,0.9996,1,"[""9"",""return""]","[0.757000000000005,0.9632999999821124]",0,9,9,3,1,9,,,,,,,,,,,,,,,,,,,,,,,,,,,,,,,,,,,,,,,,,,,,,,,,,,,,,,,,,,,,,,,,,,,,,,,,,,,,,,,,,,,,,,,,,,,,,,,,,,,,,,,,,,,,,,,,,,,,,,,,,,,,,,,,,,,,,,,,,,,,,,,,,,,,,,,,,,,,,,,,,
,8833,BAC,12/08/2004,001,2023-09-29_13h56.11.418,OS3_Mult_verification,2022.2.4,Win32,59.90176111,,,30,1.2491,1,"[""3"",""0"",""return""]","[0.6775999999940439,0.8461999999880732,1.2028999999761538]",0,10,10,16,1,30,,,,,,,,,,,,,,,,,,,,,,,,,,,,,,,,,,,,,,,,,,,,,,,,,,,,,,,,,,,,,,,,,,,,,,,,,,,,,,,,,,,,,,,,,,,,,,,,,,,,,,,,,,,,,,,,,,,,,,,,,,,,,,,,,,,,,,,,,,,,,,,,,,,,,,,,,,,,,,,,,
,8833,BAC,12/08/2004,001,2023-09-29_13h56.11.418,OS3_Mult_verification,2022.2.4,Win32,59.90176111,,,16,1.4492,1,"[""1"",""6"",""return""]","[0.900700000017892,1.2440999999940487,1.40830000001192]",0,11,11,8,1,16,,,,,,,,,,,,,,,,,,,,,,,,,,,,,,,,,,,,,,,,,,,,,,,,,,,,,,,,,,,,,,,,,,,,,,,,,,,,,,,,,,,,,,,,,,,,,,,,,,,,,,,,,,,,,,,,,,,,,,,,,,,,,,,,,,,,,,,,,,,,,,,,,,,,,,,,,,,,,,,,,
,8833,BAC,12/08/2004,001,2023-09-29_13h56.11.418,OS3_Mult_verification,2022.2.4,Win32,59.90176111,,,36,1.2324,1,"[""3"",""6"",""return""]","[0.7612000000178796,1.0175999999940473,1.187599999994049]",0,12,12,19,1,36,,,,,,,,,,,,,,,,,,,,,,,,,,,,,,,,,,,,,,,,,,,,,,,,,,,,,,,,,,,,,,,,,,,,,,,,,,,,,,,,,,,,,,,,,,,,,,,,,,,,,,,,,,,,,,,,,,,,,,,,,,,,,,,,,,,,,,,,,,,,,,,,,,,,,,,,,,,,,,,,,
,8833,BAC,12/08/2004,001,2023-09-29_13h56.11.418,OS3_Mult_verification,2022.2.4,Win32,59.90176111,,,72,1.499,1,"[""7"",""2"",""return""]","[1.0549999999999926,1.283900000005957,1.4546999999880796]",0,13,13,29,1,72,,,,,,,,,,,,,,,,,,,,,,,,,,,,,,,,,,,,,,,,,,,,,,,,,,,,,,,,,,,,,,,,,,,,,,,,,,,,,,,,,,,,,,,,,,,,,,,,,,,,,,,,,,,,,,,,,,,,,,,,,,,,,,,,,,,,,,,,,,,,,,,,,,,,,,,,,,,,,,,,,
,8833,BAC,12/08/2004,001,2023-09-29_13h56.11.418,OS3_Mult_verification,2022.2.4,Win32,59.90176111,,,18,1.2827,1,"[""1"",""8"",""return""]","[0.6594000000059594,0.9755999999940457,1.2365000000000066]",0,14,14,9,1,18,,,,,,,,,,,,,,,,,,,,,,,,,,,,,,,,,,,,,,,,,,,,,,,,,,,,,,,,,,,,,,,,,,,,,,,,,,,,,,,,,,,,,,,,,,,,,,,,,,,,,,,,,,,,,,,,,,,,,,,,,,,,,,,,,,,,,,,,,,,,,,,,,,,,,,,,,,,,,,,,,
,8833,BAC,12/08/2004,001,2023-09-29_13h56.11.418,OS3_Mult_verification,2022.2.4,Win32,59.90176111,,,24,1.0829,1,"[""2"",""4"",""return""]","[0.6747999999821133,0.9102999999821151,1.0386999999880828]",0,15,15,12,1,24,,,,,,,,,,,,,,,,,,,,,,,,,,,,,,,,,,,,,,,,,,,,,,,,,,,,,,,,,,,,,,,,,,,,,,,,,,,,,,,,,,,,,,,,,,,,,,,,,,,,,,,,,,,,,,,,,,,,,,,,,,,,,,,,,,,,,,,,,,,,,,,,,,,,,,,,,,,,,,,,,
,8833,BAC,12/08/2004,001,2023-09-29_13h56.11.418,OS3_Mult_verification,2022.2.4,Win32,59.90176111,,,25,1.1181,1,"[""2"",""5"",""return""]","[0.6101000000238486,0.9070000000000107,1.0783000000119216]",0,16,16,13,1,25,,,,,,,,,,,,,,,,,,,,,,,,,,,,,,,,,,,,,,,,,,,,,,,,,,,,,,,,,,,,,,,,,,,,,,,,,,,,,,,,,,,,,,,,,,,,,,,,,,,,,,,,,,,,,,,,,,,,,,,,,,,,,,,,,,,,,,,,,,,,,,,,,,,,,,,,,,,,,,,,,
,8833,BAC,12/08/2004,001,2023-09-29_13h56.11.418,OS3_Mult_verification,2022.2.4,Win32,59.90176111,,,28,1.1154,1,"[""2"",""8"",""return""]","[0.5783999999761562,0.8210999999940327,1.0711999999880817]",0,17,17,15,1,28,,,,,,,,,,,,,,,,,,,,,,,,,,,,,,,,,,,,,,,,,,,,,,,,,,,,,,,,,,,,,,,,,,,,,,,,,,,,,,,,,,,,,,,,,,,,,,,,,,,,,,,,,,,,,,,,,,,,,,,,,,,,,,,,,,,,,,,,,,,,,,,,,,,,,,,,,,,,,,,,,
,8833,BAC,12/08/2004,001,2023-09-29_13h56.11.418,OS3_Mult_verification,2022.2.4,Win32,59.90176111,,,54,1.1497,1,"[""5"",""4"",""return""]","[0.7368000000119252,0.9511000000238425,1.108900000005974]",0,18,18,25,1,54,,,,,,,,,,,,,,,,,,,,,,,,,,,,,,,,,,,,,,,,,,,,,,,,,,,,,,,,,,,,,,,,,,,,,,,,,,,,,,,,,,,,,,,,,,,,,,,,,,,,,,,,,,,,,,,,,,,,,,,,,,,,,,,,,,,,,,,,,,,,,,,,,,,,,,,,,,,,,,,,,
,8833,BAC,12/08/2004,001,2023-09-29_13h56.11.418,OS3_Mult_verification,2022.2.4,Win32,59.90176111,,,81,1.3319,1,"[""8"",""1"",""return""]","[0.9254000000059648,1.0785000000000053,1.2929999999999922]",0,19,19,30,1,81,,,,,,,,,,,,,,,,,,,,,,,,,,,,,,,,,,,,,,,,,,,,,,,,,,,,,,,,,,,,,,,,,,,,,,,,,,,,,,,,,,,,,,,,,,,,,,,,,,,,,,,,,,,,,,,,,,,,,,,,,,,,,,,,,,,,,,,,,,,,,,,,,,,,,,,,,,,,,,,,,
,8833,BAC,12/08/2004,001,2023-09-29_13h56.11.418,OS3_Mult_verification,2022.2.4,Win32,59.90176111,,,45,1.1489,1,"[""4"",""5"",""return""]","[0.7179000000059546,0.9339999999999975,1.0998000000119248]",0,20,20,22,1,45,,,,,,,,,,,,,,,,,,,,,,,,,,,,,,,,,,,,,,,,,,,,,,,,,,,,,,,,,,,,,,,,,,,,,,,,,,,,,,,,,,,,,,,,,,,,,,,,,,,,,,,,,,,,,,,,,,,,,,,,,,,,,,,,,,,,,,,,,,,,,,,,,,,,,,,,,,,,,,,,,
,8833,BAC,12/08/2004,001,2023-09-29_13h56.11.418,OS3_Mult_verification,2022.2.4,Win32,59.90176111,,,64,1.3171,1,"[""6"",""4"",""return""]","[0.8495999999940409,1.0541999999880716,1.272400000005959]",0,21,21,28,1,64,,,,,,,,,,,,,,,,,,,,,,,,,,,,,,,,,,,,,,,,,,,,,,,,,,,,,,,,,,,,,,,,,,,,,,,,,,,,,,,,,,,,,,,,,,,,,,,,,,,,,,,,,,,,,,,,,,,,,,,,,,,,,,,,,,,,,,,,,,,,,,,,,,,,,,,,,,,,,,,,,
,8833,BAC,12/08/2004,001,2023-09-29_13h56.11.418,OS3_Mult_verification,2022.2.4,Win32,59.90176111,,,20,2.0484,1,"[""3"",""backspace"",""2"",""0"",""return""]","[0.8019999999999925,1.419700000017869,1.5930999999940383,1.7247000000178758,2.0129000000059563]",0,22,22,10,1,20,,,,,,,,,,,,,,,,,,,,,,,,,,,,,,,,,,,,,,,,,,,,,,,,,,,,,,,,,,,,,,,,,,,,,,,,,,,,,,,,,,,,,,,,,,,,,,,,,,,,,,,,,,,,,,,,,,,,,,,,,,,,,,,,,,,,,,,,,,,,,,,,,,,,,,,,,,,,,,,,,
,8833,BAC,12/08/2004,001,2023-09-29_13h56.11.418,OS3_Mult_verification,2022.2.4,Win32,59.90176111,,,4,0.8997,1,"[""4"",""return""]","[0.6875,0.8597000000178809]",0,23,23,0,1,4,,,,,,,,,,,,,,,,,,,,,,,,,,,,,,,,,,,,,,,,,,,,,,,,,,,,,,,,,,,,,,,,,,,,,,,,,,,,,,,,,,,,,,,,,,,,,,,,,,,,,,,,,,,,,,,,,,,,,,,,,,,,,,,,,,,,,,,,,,,,,,,,,,,,,,,,,,,,,,,,,
,8833,BAC,12/08/2004,001,2023-09-29_13h56.11.418,OS3_Mult_verification,2022.2.4,Win32,59.90176111,,,42,1.099,1,"[""4"",""2"",""return""]","[0.6341000000238353,0.8977000000178776,1.0516000000238392]",0,24,24,21,1,42,,,,,,,,,,,,,,,,,,,,,,,,,,,,,,,,,,,,,,,,,,,,,,,,,,,,,,,,,,,,,,,,,,,,,,,,,,,,,,,,,,,,,,,,,,,,,,,,,,,,,,,,,,,,,,,,,,,,,,,,,,,,,,,,,,,,,,,,,,,,,,,,,,,,,,,,,,,,,,,,,
,8833,BAC,12/08/2004,001,2023-09-29_13h56.11.418,OS3_Mult_verification,2022.2.4,Win32,59.90176111,,,10,1.0495,1,"[""1"",""0"",""return""]","[0.5607999999821232,0.7734999999999985,1.0047999999821116]",0,25,25,4,1,10,,,,,,,,,,,,,,,,,,,,,,,,,,,,,,,,,,,,,,,,,,,,,,,,,,,,,,,,,,,,,,,,,,,,,,,,,,,,,,,,,,,,,,,,,,,,,,,,,,,,,,,,,,,,,,,,,,,,,,,,,,,,,,,,,,,,,,,,,,,,,,,,,,,,,,,,,,,,,,,,,
,8833,BAC,12/08/2004,001,2023-09-29_13h56.11.418,OS3_Mult_verification,2022.2.4,Win32,59.90176111,,,35,1.2162,1,"[""3"",""5"",""return""]","[0.801800000011923,1.0172000000178798,1.1744999999999948]",0,26,26,18,1,35,,,,,,,,,,,,,,,,,,,,,,,,,,,,,,,,,,,,,,,,,,,,,,,,,,,,,,,,,,,,,,,,,,,,,,,,,,,,,,,,,,,,,,,,,,,,,,,,,,,,,,,,,,,,,,,,,,,,,,,,,,,,,,,,,,,,,,,,,,,,,,,,,,,,,,,,,,,,,,,,,
,8833,BAC,12/08/2004,001,2023-09-29_13h56.11.418,OS3_Mult_verification,2022.2.4,Win32,59.90176111,,,56,1.1986,1,"[""5"",""6"",""return""]","[0.7696999999880774,0.983699999988076,1.1501999999880752]",0,27,27,26,1,56,,,,,,,,,,,,,,,,,,,,,,,,,,,,,,,,,,,,,,,,,,,,,,,,,,,,,,,,,,,,,,,,,,,,,,,,,,,,,,,,,,,,,,,,,,,,,,,,,,,,,,,,,,,,,,,,,,,,,,,,,,,,,,,,,,,,,,,,,,,,,,,,,,,,,,,,,,,,,,,,,
,8833,BAC,12/08/2004,001,2023-09-29_13h56.11.418,OS3_Mult_verification,2022.2.4,Win32,59.90176111,,,8,1.4834,1,"[""8"",""return""]","[1.2110999999940475,1.449099999994047]",0,28,28,2,1,8,,,,,,,,,,,,,,,,,,,,,,,,,,,,,,,,,,,,,,,,,,,,,,,,,,,,,,,,,,,,,,,,,,,,,,,,,,,,,,,,,,,,,,,,,,,,,,,,,,,,,,,,,,,,,,,,,,,,,,,,,,,,,,,,,,,,,,,,,,,,,,,,,,,,,,,,,,,,,,,,,
,8833,BAC,12/08/2004,001,2023-09-29_13h56.11.418,OS3_Mult_verification,2022.2.4,Win32,59.90176111,,,12,1.1671,1,"[""1"",""2"",""return""]","[0.7474000000059675,0.9344999999999999,1.121200000017879]",0,29,29,5,1,12,,,,,,,,,,,,,,,,,,,,,,,,,,,,,,,,,,,,,,,,,,,,,,,,,,,,,,,,,,,,,,,,,,,,,,,,,,,,,,,,,,,,,,,,,,,,,,,,,,,,,,,,,,,,,,,,,,,,,,,,,,,,,,,,,,,,,,,,,,,,,,,,,,,,,,,,,,,,,,,,,
,8833,BAC,12/08/2004,001,2023-09-29_13h56.11.418,OS3_Mult_verification,2022.2.4,Win32,59.90176111,,,15,1.0991,1,"[""1"",""5"",""return""]","[0.5558999999761625,0.8798999999761605,1.0515000000000043]",0,30,30,7,1,15,,,,,,,,,,,,,,,,,,,,,,,,,,,,,,,,,,,,,,,,,,,,,,,,,,,,,,,,,,,,,,,,,,,,,,,,,,,,,,,,,,,,,,,,,,,,,,,,,,,,,,,,,,,,,,,,,,,,,,,,,,,,,,,,,,,,,,,,,,,,,,,,,,,,,,,,,,,,,,,,,
,8833,BAC,12/08/2004,001,2023-09-29_13h56.11.418,OS3_Mult_verification,2022.2.4,Win32,59.90176111,,,54,1.2827,1,"[""5"",""4"",""return""]","[0.8639000000059696,1.0730000000000075,1.2475000000000023]",1,0,31,25,1,54,,,,,,,,,,,,,,,,,,,,,,,,,,,,,,,,,,,,,,,,,,,,,,,,,,,,,,,,,,,,,,,,,,,,,,,,,,,,,,,,,,,,,,,,,,,,,,,,,,,,,,,,,,,,,,,,,,,,,,,,,,,,,,,,,,,,,,,,,,,,,,,,,,,,,,,,,,,,,,,,,
,8833,BAC,12/08/2004,001,2023-09-29_13h56.11.418,OS3_Mult_verification,2022.2.4,Win32,59.90176111,,,12,1.1661,1,"[""1"",""2"",""return""]","[0.7206999999880708,0.9344999999999857,1.1189999999999998]",1,1,32,5,1,12,,,,,,,,,,,,,,,,,,,,,,,,,,,,,,,,,,,,,,,,,,,,,,,,,,,,,,,,,,,,,,,,,,,,,,,,,,,,,,,,,,,,,,,,,,,,,,,,,,,,,,,,,,,,,,,,,,,,,,,,,,,,,,,,,,,,,,,,,,,,,,,,,,,,,,,,,,,,,,,,,
,8833,BAC,12/08/2004,001,2023-09-29_13h56.11.418,OS3_Mult_verification,2022.2.4,Win32,59.90176111,,,25,1.2841,1,"[""2"",""5"",""return""]","[0.6759999999999877,0.9789000000059502,1.24909999999403]",1,2,33,13,1,25,,,,,,,,,,,,,,,,,,,,,,,,,,,,,,,,,,,,,,,,,,,,,,,,,,,,,,,,,,,,,,,,,,,,,,,,,,,,,,,,,,,,,,,,,,,,,,,,,,,,,,,,,,,,,,,,,,,,,,,,,,,,,,,,,,,,,,,,,,,,,,,,,,,,,,,,,,,,,,,,,
,8833,BAC,12/08/2004,001,2023-09-29_13h56.11.418,OS3_Mult_verification,2022.2.4,Win32,59.90176111,,,49,1.2994,1,"[""4"",""9"",""return""]","[0.7007999999821379,1.0241999999880989,1.2499000000059652]",1,3,34,24,1,49,,,,,,,,,,,,,,,,,,,,,,,,,,,,,,,,,,,,,,,,,,,,,,,,,,,,,,,,,,,,,,,,,,,,,,,,,,,,,,,,,,,,,,,,,,,,,,,,,,,,,,,,,,,,,,,,,,,,,,,,,,,,,,,,,,,,,,,,,,,,,,,,,,,,,,,,,,,,,,,,,
,8833,BAC,12/08/2004,001,2023-09-29_13h56.11.418,OS3_Mult_verification,2022.2.4,Win32,59.90176111,,,56,1.135,1,"[""5"",""6"",""return""]","[0.7002999999821213,0.9130999999940457,1.0860999999940475]",1,4,35,26,1,56,,,,,,,,,,,,,,,,,,,,,,,,,,,,,,,,,,,,,,,,,,,,,,,,,,,,,,,,,,,,,,,,,,,,,,,,,,,,,,,,,,,,,,,,,,,,,,,,,,,,,,,,,,,,,,,,,,,,,,,,,,,,,,,,,,,,,,,,,,,,,,,,,,,,,,,,,,,,,,,,,
,8833,BAC,12/08/2004,001,2023-09-29_13h56.11.418,OS3_Mult_verification,2022.2.4,Win32,59.90176111,,,15,1.4158,1,"[""1"",""5"",""return""]","[0.8909000000059564,1.190299999982102,1.367299999982123]",1,5,36,7,1,15,,,,,,,,,,,,,,,,,,,,,,,,,,,,,,,,,,,,,,,,,,,,,,,,,,,,,,,,,,,,,,,,,,,,,,,,,,,,,,,,,,,,,,,,,,,,,,,,,,,,,,,,,,,,,,,,,,,,,,,,,,,,,,,,,,,,,,,,,,,,,,,,,,,,,,,,,,,,,,,,,
,8833,BAC,12/08/2004,001,2023-09-29_13h56.11.418,OS3_Mult_verification,2022.2.4,Win32,59.90176111,,,42,1.2492,1,"[""4"",""2"",""return""]","[0.7827999999821031,1.0336999999880732,1.2155999999940263]",1,6,37,21,1,42,,,,,,,,,,,,,,,,,,,,,,,,,,,,,,,,,,,,,,,,,,,,,,,,,,,,,,,,,,,,,,,,,,,,,,,,,,,,,,,,,,,,,,,,,,,,,,,,,,,,,,,,,,,,,,,,,,,,,,,,,,,,,,,,,,,,,,,,,,,,,,,,,,,,,,,,,,,,,,,,,
,8833,BAC,12/08/2004,001,2023-09-29_13h56.11.418,OS3_Mult_verification,2022.2.4,Win32,59.90176111,,,21,1.4995,1,"[""2"",""1"",""return""]","[0.890899999976142,1.1275999999940325,1.4502999999821213]",1,7,38,11,1,21,,,,,,,,,,,,,,,,,,,,,,,,,,,,,,,,,,,,,,,,,,,,,,,,,,,,,,,,,,,,,,,,,,,,,,,,,,,,,,,,,,,,,,,,,,,,,,,,,,,,,,,,,,,,,,,,,,,,,,,,,,,,,,,,,,,,,,,,,,,,,,,,,,,,,,,,,,,,,,,,,
,8833,BAC,12/08/2004,001,2023-09-29_13h56.11.418,OS3_Mult_verification,2022.2.4,Win32,59.90176111,,,81,1.9821,1,"[""9"",""backspace"",""8"",""1"",""return""]","[0.8619999999999948,1.3187000000178841,1.5515000000000043,1.7324000000059527,1.9427000000178793]",1,8,39,30,1,81,,,,,,,,,,,,,,,,,,,,,,,,,,,,,,,,,,,,,,,,,,,,,,,,,,,,,,,,,,,,,,,,,,,,,,,,,,,,,,,,,,,,,,,,,,,,,,,,,,,,,,,,,,,,,,,,,,,,,,,,,,,,,,,,,,,,,,,,,,,,,,,,,,,,,,,,,,,,,,,,,
,8833,BAC,12/08/2004,001,2023-09-29_13h56.11.418,OS3_Mult_verification,2022.2.4,Win32,59.90176111,,,20,1.1991,1,"[""2"",""0"",""return""]","[0.6616999999880591,0.8890999999940448,1.1561999999880754]",1,9,40,10,1,20,,,,,,,,,,,,,,,,,,,,,,,,,,,,,,,,,,,,,,,,,,,,,,,,,,,,,,,,,,,,,,,,,,,,,,,,,,,,,,,,,,,,,,,,,,,,,,,,,,,,,,,,,,,,,,,,,,,,,,,,,,,,,,,,,,,,,,,,,,,,,,,,,,,,,,,,,,,,,,,,,
,8833,BAC,12/08/2004,001,2023-09-29_13h56.11.418,OS3_Mult_verification,2022.2.4,Win32,59.90176111,,,27,1.3324,1,"[""2"",""7"",""return""]","[0.5878000000119243,1.0213000000119052,1.2919000000059668]",1,10,41,14,1,27,,,,,,,,,,,,,,,,,,,,,,,,,,,,,,,,,,,,,,,,,,,,,,,,,,,,,,,,,,,,,,,,,,,,,,,,,,,,,,,,,,,,,,,,,,,,,,,,,,,,,,,,,,,,,,,,,,,,,,,,,,,,,,,,,,,,,,,,,,,,,,,,,,,,,,,,,,,,,,,,,
,8833,BAC,12/08/2004,001,2023-09-29_13h56.11.418,OS3_Mult_verification,2022.2.4,Win32,59.90176111,,,28,1.2312,1,"[""2"",""8"",""return""]","[0.5748999999761679,0.9356999999880884,1.1976999999880888]",1,11,42,15,1,28,,,,,,,,,,,,,,,,,,,,,,,,,,,,,,,,,,,,,,,,,,,,,,,,,,,,,,,,,,,,,,,,,,,,,,,,,,,,,,,,,,,,,,,,,,,,,,,,,,,,,,,,,,,,,,,,,,,,,,,,,,,,,,,,,,,,,,,,,,,,,,,,,,,,,,,,,,,,,,,,,
,8833,BAC,12/08/2004,001,2023-09-29_13h56.11.418,OS3_Mult_verification,2022.2.4,Win32,59.90176111,,,63,1.6319,1,"[""6"",""3"",""return""]","[1.0644000000059464,1.4085999999940384,1.5914999999999964]",1,12,43,27,1,63,,,,,,,,,,,,,,,,,,,,,,,,,,,,,,,,,,,,,,,,,,,,,,,,,,,,,,,,,,,,,,,,,,,,,,,,,,,,,,,,,,,,,,,,,,,,,,,,,,,,,,,,,,,,,,,,,,,,,,,,,,,,,,,,,,,,,,,,,,,,,,,,,,,,,,,,,,,,,,,,,
,8833,BAC,12/08/2004,001,2023-09-29_13h56.11.418,OS3_Mult_verification,2022.2.4,Win32,59.90176111,,,6,0.999,1,"[""6"",""return""]","[0.7860000000000014,0.9642999999821029]",1,13,44,1,1,6,,,,,,,,,,,,,,,,,,,,,,,,,,,,,,,,,,,,,,,,,,,,,,,,,,,,,,,,,,,,,,,,,,,,,,,,,,,,,,,,,,,,,,,,,,,,,,,,,,,,,,,,,,,,,,,,,,,,,,,,,,,,,,,,,,,,,,,,,,,,,,,,,,,,,,,,,,,,,,,,,
,8833,BAC,12/08/2004,001,2023-09-29_13h56.11.418,OS3_Mult_verification,2022.2.4,Win32,59.90176111,,,48,1.3154,1,"[""4"",""8"",""return""]","[0.6849000000059675,1.059500000000014,1.2677000000178964]",1,14,45,23,1,48,,,,,,,,,,,,,,,,,,,,,,,,,,,,,,,,,,,,,,,,,,,,,,,,,,,,,,,,,,,,,,,,,,,,,,,,,,,,,,,,,,,,,,,,,,,,,,,,,,,,,,,,,,,,,,,,,,,,,,,,,,,,,,,,,,,,,,,,,,,,,,,,,,,,,,,,,,,,,,,,,
,8833,BAC,12/08/2004,001,2023-09-29_13h56.11.418,OS3_Mult_verification,2022.2.4,Win32,59.90176111,,,4,0.799,1,"[""4"",""return""]","[0.630900000005937,0.7620999999940352]",1,15,46,0,1,4,,,,,,,,,,,,,,,,,,,,,,,,,,,,,,,,,,,,,,,,,,,,,,,,,,,,,,,,,,,,,,,,,,,,,,,,,,,,,,,,,,,,,,,,,,,,,,,,,,,,,,,,,,,,,,,,,,,,,,,,,,,,,,,,,,,,,,,,,,,,,,,,,,,,,,,,,,,,,,,,,
,8833,BAC,12/08/2004,001,2023-09-29_13h56.11.418,OS3_Mult_verification,2022.2.4,Win32,59.90176111,,,64,1.9489,1,"[""6"",""4"",""return""]","[0.7964000000059457,1.6008000000119011,1.9027000000178589]",1,16,47,28,1,64,,,,,,,,,,,,,,,,,,,,,,,,,,,,,,,,,,,,,,,,,,,,,,,,,,,,,,,,,,,,,,,,,,,,,,,,,,,,,,,,,,,,,,,,,,,,,,,,,,,,,,,,,,,,,,,,,,,,,,,,,,,,,,,,,,,,,,,,,,,,,,,,,,,,,,,,,,,,,,,,,
,8833,BAC,12/08/2004,001,2023-09-29_13h56.11.418,OS3_Mult_verification,2022.2.4,Win32,59.90176111,,,24,1.3998,1,"[""2"",""4"",""return""]","[0.9794000000059668,1.1903000000119448,1.3513000000119177]",1,17,48,12,1,24,,,,,,,,,,,,,,,,,,,,,,,,,,,,,,,,,,,,,,,,,,,,,,,,,,,,,,,,,,,,,,,,,,,,,,,,,,,,,,,,,,,,,,,,,,,,,,,,,,,,,,,,,,,,,,,,,,,,,,,,,,,,,,,,,,,,,,,,,,,,,,,,,,,,,,,,,,,,,,,,,
,8833,BAC,12/08/2004,001,2023-09-29_13h56.11.418,OS3_Mult_verification,2022.2.4,Win32,59.90176111,,,14,1.0828,1,"[""1"",""4"",""return""]","[0.6410999999940543,0.8840000000000146,1.0345999999940432]",1,18,49,6,1,14,,,,,,,,,,,,,,,,,,,,,,,,,,,,,,,,,,,,,,,,,,,,,,,,,,,,,,,,,,,,,,,,,,,,,,,,,,,,,,,,,,,,,,,,,,,,,,,,,,,,,,,,,,,,,,,,,,,,,,,,,,,,,,,,,,,,,,,,,,,,,,,,,,,,,,,,,,,,,,,,,
,8833,BAC,12/08/2004,001,2023-09-29_13h56.11.418,OS3_Mult_verification,2022.2.4,Win32,59.90176111,,,8,1.0826,1,"[""8"",""return""]","[0.9050000000000011,1.043300000011925]",1,19,50,2,1,8,,,,,,,,,,,,,,,,,,,,,,,,,,,,,,,,,,,,,,,,,,,,,,,,,,,,,,,,,,,,,,,,,,,,,,,,,,,,,,,,,,,,,,,,,,,,,,,,,,,,,,,,,,,,,,,,,,,,,,,,,,,,,,,,,,,,,,,,,,,,,,,,,,,,,,,,,,,,,,,,,
,8833,BAC,12/08/2004,001,2023-09-29_13h56.11.418,OS3_Mult_verification,2022.2.4,Win32,59.90176111,,,18,1.4322,1,"[""1"",""8"",""return""]","[0.7500999999940348,1.2295000000000016,1.387300000011919]",1,20,51,9,1,18,,,,,,,,,,,,,,,,,,,,,,,,,,,,,,,,,,,,,,,,,,,,,,,,,,,,,,,,,,,,,,,,,,,,,,,,,,,,,,,,,,,,,,,,,,,,,,,,,,,,,,,,,,,,,,,,,,,,,,,,,,,,,,,,,,,,,,,,,,,,,,,,,,,,,,,,,,,,,,,,,
,8833,BAC,12/08/2004,001,2023-09-29_13h56.11.418,OS3_Mult_verification,2022.2.4,Win32,59.90176111,,,36,1.2495,1,"[""3"",""6"",""return""]","[0.817699999988065,1.0529000000059625,1.2065000000000055]",1,21,52,19,1,36,,,,,,,,,,,,,,,,,,,,,,,,,,,,,,,,,,,,,,,,,,,,,,,,,,,,,,,,,,,,,,,,,,,,,,,,,,,,,,,,,,,,,,,,,,,,,,,,,,,,,,,,,,,,,,,,,,,,,,,,,,,,,,,,,,,,,,,,,,,,,,,,,,,,,,,,,,,,,,,,,
,8833,BAC,12/08/2004,001,2023-09-29_13h56.11.418,OS3_Mult_verification,2022.2.4,Win32,59.90176111,,,72,1.9677,1,"[""7"",""3"",""backspace"",""2"",""return""]","[0.9255999999940627,1.1635999999940623,1.5490999999940414,1.7135999999940452,1.9164000000059787]",1,22,53,29,1,72,,,,,,,,,,,,,,,,,,,,,,,,,,,,,,,,,,,,,,,,,,,,,,,,,,,,,,,,,,,,,,,,,,,,,,,,,,,,,,,,,,,,,,,,,,,,,,,,,,,,,,,,,,,,,,,,,,,,,,,,,,,,,,,,,,,,,,,,,,,,,,,,,,,,,,,,,,,,,,,,,
,8833,BAC,12/08/2004,001,2023-09-29_13h56.11.418,OS3_Mult_verification,2022.2.4,Win32,59.90176111,,,3,1.216,0,"[""3"",""return""]","[0.82650000000001,1.1677999999821225]",1,23,54,18,1,35,,,,,,,,,,,,,,,,,,,,,,,,,,,,,,,,,,,,,,,,,,,,,,,,,,,,,,,,,,,,,,,,,,,,,,,,,,,,,,,,,,,,,,,,,,,,,,,,,,,,,,,,,,,,,,,,,,,,,,,,,,,,,,,,,,,,,,,,,,,,,,,,,,,,,,,,,,,,,,,,,
,8833,BAC,12/08/2004,001,2023-09-29_13h56.11.418,OS3_Mult_verification,2022.2.4,Win32,59.90176111,,,16,1.582,1,"[""1"",""6"",""return""]","[0.9300999999940416,1.345499999999987,1.5396999999880734]",1,24,55,8,1,16,,,,,,,,,,,,,,,,,,,,,,,,,,,,,,,,,,,,,,,,,,,,,,,,,,,,,,,,,,,,,,,,,,,,,,,,,,,,,,,,,,,,,,,,,,,,,,,,,,,,,,,,,,,,,,,,,,,,,,,,,,,,,,,,,,,,,,,,,,,,,,,,,,,,,,,,,,,,,,,,,
,8833,BAC,12/08/2004,001,2023-09-29_13h56.11.418,OS3_Mult_verification,2022.2.4,Win32,59.90176111,,,9,1.0323,1,"[""9"",""return""]","[0.7849999999999966,0.9936000000238323]",1,25,56,3,1,9,,,,,,,,,,,,,,,,,,,,,,,,,,,,,,,,,,,,,,,,,,,,,,,,,,,,,,,,,,,,,,,,,,,,,,,,,,,,,,,,,,,,,,,,,,,,,,,,,,,,,,,,,,,,,,,,,,,,,,,,,,,,,,,,,,,,,,,,,,,,,,,,,,,,,,,,,,,,,,,,,
,8833,BAC,12/08/2004,001,2023-09-29_13h56.11.418,OS3_Mult_verification,2022.2.4,Win32,59.90176111,,,45,1.0989,1,"[""4"",""5"",""return""]","[0.690600000023835,0.8845000000000027,1.0513000000119064]",1,26,57,22,1,45,,,,,,,,,,,,,,,,,,,,,,,,,,,,,,,,,,,,,,,,,,,,,,,,,,,,,,,,,,,,,,,,,,,,,,,,,,,,,,,,,,,,,,,,,,,,,,,,,,,,,,,,,,,,,,,,,,,,,,,,,,,,,,,,,,,,,,,,,,,,,,,,,,,,,,,,,,,,,,,,,
,8833,BAC,12/08/2004,001,2023-09-29_13h56.11.418,OS3_Mult_verification,2022.2.4,Win32,59.90176111,,,30,1.3161,1,"[""3"",""0"",""return""]","[0.9403000000119164,1.062700000017884,1.2786000000238573]",1,27,58,16,1,30,,,,,,,,,,,,,,,,,,,,,,,,,,,,,,,,,,,,,,,,,,,,,,,,,,,,,,,,,,,,,,,,,,,,,,,,,,,,,,,,,,,,,,,,,,,,,,,,,,,,,,,,,,,,,,,,,,,,,,,,,,,,,,,,,,,,,,,,,,,,,,,,,,,,,,,,,,,,,,,,,
,8833,BAC,12/08/2004,001,2023-09-29_13h56.11.418,OS3_Mult_verification,2022.2.4,Win32,59.90176111,,,32,1.1828,1,"[""3"",""2"",""return""]","[0.7532000000178698,0.9710999999940384,1.1425000000000125]",1,28,59,17,1,32,,,,,,,,,,,,,,,,,,,,,,,,,,,,,,,,,,,,,,,,,,,,,,,,,,,,,,,,,,,,,,,,,,,,,,,,,,,,,,,,,,,,,,,,,,,,,,,,,,,,,,,,,,,,,,,,,,,,,,,,,,,,,,,,,,,,,,,,,,,,,,,,,,,,,,,,,,,,,,,,,
,8833,BAC,12/08/2004,001,2023-09-29_13h56.11.418,OS3_Mult_verification,2022.2.4,Win32,59.90176111,,,10,1.1659,1,"[""1"",""0"",""return""]","[0.7611999999880936,0.9230999999940366,1.1252999999821327]",1,29,60,4,1,10,,,,,,,,,,,,,,,,,,,,,,,,,,,,,,,,,,,,,,,,,,,,,,,,,,,,,,,,,,,,,,,,,,,,,,,,,,,,,,,,,,,,,,,,,,,,,,,,,,,,,,,,,,,,,,,,,,,,,,,,,,,,,,,,,,,,,,,,,,,,,,,,,,,,,,,,,,,,,,,,,
,8833,BAC,12/08/2004,001,2023-09-29_13h56.11.418,OS3_Mult_verification,2022.2.4,Win32,59.90176111,,,40,1.1824,1,"[""4"",""0"",""return""]","[0.8287999999820954,0.9467999999821188,1.1431999999880702]",1,30,61,20,1,40,,,,,,,,,,,,,,,,,,,,,,,,,,,,,,,,,,,,,,,,,,,,,,,,,,,,,,,,,,,,,,,,,,,,,,,,,,,,,,,,,,,,,,,,,,,,,,,,,,,,,,,,,,,,,,,,,,,,,,,,,,,,,,,,,,,,,,,,,,,,,,,,,,,,,,,,,,,,,,,,,
,8833,BAC,12/08/2004,001,2023-09-29_13h56.11.418,OS3_Mult_verification,2022.2.4,Win32,59.90176111,,,,,,,,,,,,,,space,2.9582,,,,,,,,,,,,,,,,,,,,,,,,,,,,,,,,,,,,,,,,,,,,,,,,,,,,,,,,,,,,,,,,,,,,,,,,,,,,,,,,,,,,,,,,,,,,,,,,,,,,,,,,,,,,,,,,,,,,,,,,,,,,,,,,,,,,,,,,,,,,,,,,,,,,,,,,,,,,,,,
,8833,BAC,12/08/2004,001,2023-09-29_13h56.11.418,OS3_Mult_verification,2022.2.4,Win32,59.90176111,,,,,,,,,,,,,,,,,,,,,,,,,,,,,,,,,,,,,,,,,,,,,,,,,,,,,,,,,,,,,,,,,,,,,,,,,,,,,,,,,,,,,,,,,,,,,,,,,,,,,,,,,,,,,,,,,,,,,,,,,,,,,,,,,,,,,,,,,,,,,,,,,,,,,,,,,,,,,,,,,,,,,,,,,,,,,,
,8833,BAC,12/08/2004,001,2023-09-29_13h56.11.418,OS3_Mult_verification,2022.2.4,Win32,59.90176111,,,,,,,,,,,,,,,,space,4.5405,,,,,,,,,,,,,,,,,,,,,,,,,,,,,,,,,,,,,,,,,,,,,,,,,,,,,,,,,,,,,,,,,,,,,,,,,,,,,,,,,,,,,,,,,,,,,,,,,,,,,,,,,,,,,,,,,,,,,,,,,,,,,,,,,,,,,,,,,,,,,,,,,,,,,,,,,,,,,
,8833,BAC,12/08/2004,001,2023-09-29_13h56.11.418,OS3_Mult_verification,2022.2.4,Win32,59.90176111,,,,,,,,,,,,,,,,,,22,1.7702,1,"[""2"",""2"",""return""]","[1.185099999994037,1.341099999994043,1.482699999988057]",0,0,0,2,1,2 × 11 =,22,,,,,,,,,,,,,,,,,,,,,,,,,,,,,,,,,,,,,,,,,,,,,,,,,,,,,,,,,,,,,,,,,,,,,,,,,,,,,,,,,,,,,,,,,,,,,,,,,,,,,,,,,,,,,,,,,,,,,,,,,,,,,,,,,,,,,,,,,,,,,,,,,
,8833,BAC,12/08/2004,001,2023-09-29_13h56.11.418,OS3_Mult_verification,2022.2.4,Win32,59.90176111,,,,,,,,,,,,,,,,,,7,1.4961,1,"[""7"",""return""]","[1.078000000000003,1.2016999999880795]",0,1,1,0,1,1 × 7 =,7,,,,,,,,,,,,,,,,,,,,,,,,,,,,,,,,,,,,,,,,,,,,,,,,,,,,,,,,,,,,,,,,,,,,,,,,,,,,,,,,,,,,,,,,,,,,,,,,,,,,,,,,,,,,,,,,,,,,,,,,,,,,,,,,,,,,,,,,,,,,,,,,,
,8833,BAC,12/08/2004,001,2023-09-29_13h56.11.418,OS3_Mult_verification,2022.2.4,Win32,59.90176111,,,,,,,,,,,,,,,,,,20,1.5486,1,"[""2"",""0"",""return""]","[0.8992000000178848,1.0234000000059496,1.2378000000119016]",0,2,2,1,1,2 × 10 =,20,,,,,,,,,,,,,,,,,,,,,,,,,,,,,,,,,,,,,,,,,,,,,,,,,,,,,,,,,,,,,,,,,,,,,,,,,,,,,,,,,,,,,,,,,,,,,,,,,,,,,,,,,,,,,,,,,,,,,,,,,,,,,,,,,,,,,,,,,,,,,,,,,
,8833,BAC,12/08/2004,001,2023-09-29_13h56.11.418,OS3_Mult_verification,2022.2.4,Win32,59.90176111,,,,,,,,,,,,,,,,,,,,,,,,,,,,,,,,,,,,,,,,,,,,,,,,,,,,,,,,,,,,,,,,,,,,,,,,,,,,,,,,,,,,,,,,,,,,,,,,,,,,,,,,,,,,,,,,,,,,,,,,,,,,,,,,,,,,,,,,,,,,,,,,,,,,,,,,,,,,,,,,,,,,,,,,,,,,,,
,8833,BAC,12/08/2004,001,2023-09-29_13h56.11.418,OS3_Mult_verification,2022.2.4,Win32,59.90176111,,,,,,,,,,,,,,,,,,,,,,,,,,,,,,,,,,,,,,,,,,,,,,,,,,,,,,,,,,,,,,,,,,,,,,,,,,,,,,,,,,,,,,,,,,,,,,,,,,,,,,,,,,,,,,,,,,,,,,,,,,,,,,,,,,,,,,,,,,,,,,,,,,,,,,,,,,,,,,,,,,,,,,,,,,,,,,
,8833,BAC,12/08/2004,001,2023-09-29_13h56.11.418,OS3_Mult_verification,2022.2.4,Win32,59.90176111,,,,,,,,,,,,,,,,,,6,1.5351,1,"[""6"",""return""]","[1.0669000000059725,1.2334000000059575]",,,,,,2 × 3 =,6,0,0,0,0,1,,,,,,,,,,,,,,,,,,,,,,,,,,,,,,,,,,,,,,,,,,,,,,,,,,,,,,,,,,,,,,,,,,,,,,,,,,,,,,,,,,,,,,,,,,,,,,,,,,,,,,,,,,,,,,,,,,,,,,,,,,,,,,,,,,,,,,,,,,,,
,8833,BAC,12/08/2004,001,2023-09-29_13h56.11.418,OS3_Mult_verification,2022.2.4,Win32,59.90176111,,,,,,,,,,,,,,,,,,40,3.4495,1,"[""4"",""9"",""backspace"",""0"",""return""]","[1.9938000000119018,2.2005000000000052,2.6368000000119025,2.8600999999940484,3.148300000011915]",,,,,,5 × 8 =,40,0,1,1,1,1,,,,,,,,,,,,,,,,,,,,,,,,,,,,,,,,,,,,,,,,,,,,,,,,,,,,,,,,,,,,,,,,,,,,,,,,,,,,,,,,,,,,,,,,,,,,,,,,,,,,,,,,,,,,,,,,,,,,,,,,,,,,,,,,,,,,,,,,,,,,
,8833,BAC,12/08/2004,001,2023-09-29_13h56.11.418,OS3_Mult_verification,2022.2.4,Win32,59.90176111,,,,,,,,,,,,,,,,,,12,1.6064,1,"[""1"",""2"",""return""]","[0.971400000005957,1.1747000000178787,1.3131000000238373]",,,,,,3 × 4 =,12,0,2,2,2,1,,,,,,,,,,,,,,,,,,,,,,,,,,,,,,,,,,,,,,,,,,,,,,,,,,,,,,,,,,,,,,,,,,,,,,,,,,,,,,,,,,,,,,,,,,,,,,,,,,,,,,,,,,,,,,,,,,,,,,,,,,,,,,,,,,,,,,,,,,,,
,8833,BAC,12/08/2004,001,2023-09-29_13h56.11.418,OS3_Mult_verification,2022.2.4,Win32,59.90176111,,,,,,,,,,,,,,,,,,15,1.5494,1,"[""1"",""5"",""return""]","[0.8385999999940452,1.126299999982109,1.2446999999880575]",,,,,,5 × 3 =,15,0,3,3,3,1,,,,,,,,,,,,,,,,,,,,,,,,,,,,,,,,,,,,,,,,,,,,,,,,,,,,,,,,,,,,,,,,,,,,,,,,,,,,,,,,,,,,,,,,,,,,,,,,,,,,,,,,,,,,,,,,,,,,,,,,,,,,,,,,,,,,,,,,,,,,
,8833,BAC,12/08/2004,001,2023-09-29_13h56.11.418,OS3_Mult_verification,2022.2.4,Win32,59.90176111,,,,,,,,,,,,,,,,,,8,1.65,1,"[""8"",""return""]","[1.1577000000178828,1.3499999999999943]",,,,,,2 × 4 =,8,0,4,4,4,1,,,,,,,,,,,,,,,,,,,,,,,,,,,,,,,,,,,,,,,,,,,,,,,,,,,,,,,,,,,,,,,,,,,,,,,,,,,,,,,,,,,,,,,,,,,,,,,,,,,,,,,,,,,,,,,,,,,,,,,,,,,,,,,,,,,,,,,,,,,,
,8833,BAC,12/08/2004,001,2023-09-29_13h56.11.418,OS3_Mult_verification,2022.2.4,Win32,59.90176111,,,,,,,,,,,,,,,,,,4,1.2963,1,"[""4"",""return""]","[0.8174999999999955,0.992999999999995]",,,,,,2 × 2 =,4,0,5,5,5,1,,,,,,,,,,,,,,,,,,,,,,,,,,,,,,,,,,,,,,,,,,,,,,,,,,,,,,,,,,,,,,,,,,,,,,,,,,,,,,,,,,,,,,,,,,,,,,,,,,,,,,,,,,,,,,,,,,,,,,,,,,,,,,,,,,,,,,,,,,,,
,8833,BAC,12/08/2004,001,2023-09-29_13h56.11.418,OS3_Mult_verification,2022.2.4,Win32,59.90176111,,,,,,,,,,,,,,,,,,20,1.7819,1,"[""2"",""0"",""return""]","[1.1731999999880998,1.2750000000000057,1.4939999999999998]",,,,,,4 × 5 =,20,0,6,6,6,1,,,,,,,,,,,,,,,,,,,,,,,,,,,,,,,,,,,,,,,,,,,,,,,,,,,,,,,,,,,,,,,,,,,,,,,,,,,,,,,,,,,,,,,,,,,,,,,,,,,,,,,,,,,,,,,,,,,,,,,,,,,,,,,,,,,,,,,,,,,,
,8833,BAC,12/08/2004,001,2023-09-29_13h56.11.418,OS3_Mult_verification,2022.2.4,Win32,59.90176111,,,,,,,,,,,,,,,,,,9,1.4658,1,"[""9"",""return""]","[1.073400000005961,1.1508000000119125]",,,,,,3 × 3 =,9,0,7,7,7,1,,,,,,,,,,,,,,,,,,,,,,,,,,,,,,,,,,,,,,,,,,,,,,,,,,,,,,,,,,,,,,,,,,,,,,,,,,,,,,,,,,,,,,,,,,,,,,,,,,,,,,,,,,,,,,,,,,,,,,,,,,,,,,,,,,,,,,,,,,,,
,8833,BAC,12/08/2004,001,2023-09-29_13h56.11.418,OS3_Mult_verification,2022.2.4,Win32,59.90176111,,,,,,,,,,,,,,,,,,10,1.4821,1,"[""1"",""0"",""return""]","[0.8134000000059416,0.9544999999999959,1.1785999999940202]",,,,,,5 × 2 =,10,0,8,8,8,1,,,,,,,,,,,,,,,,,,,,,,,,,,,,,,,,,,,,,,,,,,,,,,,,,,,,,,,,,,,,,,,,,,,,,,,,,,,,,,,,,,,,,,,,,,,,,,,,,,,,,,,,,,,,,,,,,,,,,,,,,,,,,,,,,,,,,,,,,,,,
,8833,BAC,12/08/2004,001,2023-09-29_13h56.11.418,OS3_Mult_verification,2022.2.4,Win32,59.90176111,,,,,,,,,,,,,,,,,,16,1.5815,1,"[""1"",""6"",""return""]","[0.8602000000178975,1.0175000000000125,1.274499999999989]",,,,,,4 × 4 =,16,0,9,9,9,1,,,,,,,,,,,,,,,,,,,,,,,,,,,,,,,,,,,,,,,,,,,,,,,,,,,,,,,,,,,,,,,,,,,,,,,,,,,,,,,,,,,,,,,,,,,,,,,,,,,,,,,,,,,,,,,,,,,,,,,,,,,,,,,,,,,,,,,,,,,,
,8833,BAC,12/08/2004,001,2023-09-29_13h56.11.418,OS3_Mult_verification,2022.2.4,Win32,59.90176111,,,,,,,,,,,,,,,,,,24,1.9323,1,"[""2"",""4"",""return""]","[1.056400000005965,1.349699999988104,1.6305999999940468]",,,,,,8 × 3 =,24,0,10,10,10,1,,,,,,,,,,,,,,,,,,,,,,,,,,,,,,,,,,,,,,,,,,,,,,,,,,,,,,,,,,,,,,,,,,,,,,,,,,,,,,,,,,,,,,,,,,,,,,,,,,,,,,,,,,,,,,,,,,,,,,,,,,,,,,,,,,,,,,,,,,,,
,8833,BAC,12/08/2004,001,2023-09-29_13h56.11.418,OS3_Mult_verification,2022.2.4,Win32,59.90176111,,,,,,,,,,,,,,,,,,30,2.7973,1,"[""3"",""0"",""return""]","[2.1023000000119225,2.2493000000119423,2.4890000000000043]",,,,,,6 × 5 =,30,0,11,11,11,1,,,,,,,,,,,,,,,,,,,,,,,,,,,,,,,,,,,,,,,,,,,,,,,,,,,,,,,,,,,,,,,,,,,,,,,,,,,,,,,,,,,,,,,,,,,,,,,,,,,,,,,,,,,,,,,,,,,,,,,,,,,,,,,,,,,,,,,,,,,,
,8833,BAC,12/08/2004,001,2023-09-29_13h56.11.418,OS3_Mult_verification,2022.2.4,Win32,59.90176111,,,,,,,,,,,,,,,,,,14,2.6085,1,"[""1"",""4"",""4"",""backspace"",""return""]","[0.8010999999940509,1.120599999994056,1.3416999999880943,1.7837999999821363,2.309599999994049]",,,,,,7 × 2 =,14,0,12,12,12,1,,,,,,,,,,,,,,,,,,,,,,,,,,,,,,,,,,,,,,,,,,,,,,,,,,,,,,,,,,,,,,,,,,,,,,,,,,,,,,,,,,,,,,,,,,,,,,,,,,,,,,,,,,,,,,,,,,,,,,,,,,,,,,,,,,,,,,,,,,,,
,8833,BAC,12/08/2004,001,2023-09-29_13h56.11.418,OS3_Mult_verification,2022.2.4,Win32,59.90176111,,,,,,,,,,,,,,,,,,27,2.1322,1,"[""2"",""7"",""return""]","[1.0494999999999948,1.5347000000178923,1.8205000000000098]",,,,,,3 × 9 =,27,0,13,13,13,1,,,,,,,,,,,,,,,,,,,,,,,,,,,,,,,,,,,,,,,,,,,,,,,,,,,,,,,,,,,,,,,,,,,,,,,,,,,,,,,,,,,,,,,,,,,,,,,,,,,,,,,,,,,,,,,,,,,,,,,,,,,,,,,,,,,,,,,,,,,,
,8833,BAC,12/08/2004,001,2023-09-29_13h56.11.418,OS3_Mult_verification,2022.2.4,Win32,59.90176111,,,,,,,,,,,,,,,,,,16,1.6486,1,"[""1"",""6"",""return""]","[0.7513000000119234,1.0582000000178766,1.3364000000059661]",,,,,,2 × 8 =,16,0,14,14,14,1,,,,,,,,,,,,,,,,,,,,,,,,,,,,,,,,,,,,,,,,,,,,,,,,,,,,,,,,,,,,,,,,,,,,,,,,,,,,,,,,,,,,,,,,,,,,,,,,,,,,,,,,,,,,,,,,,,,,,,,,,,,,,,,,,,,,,,,,,,,,
,8833,BAC,12/08/2004,001,2023-09-29_13h56.11.418,OS3_Mult_verification,2022.2.4,Win32,59.90176111,,,,,,,,,,,,,,,,,,24,1.7319,1,"[""2"",""4"",""return""]","[1.0107999999821118,1.2360000000000184,1.4184999999999945]",,,,,,4 × 6 =,24,0,15,15,15,1,,,,,,,,,,,,,,,,,,,,,,,,,,,,,,,,,,,,,,,,,,,,,,,,,,,,,,,,,,,,,,,,,,,,,,,,,,,,,,,,,,,,,,,,,,,,,,,,,,,,,,,,,,,,,,,,,,,,,,,,,,,,,,,,,,,,,,,,,,,,
,8833,BAC,12/08/2004,001,2023-09-29_13h56.11.418,OS3_Mult_verification,2022.2.4,Win32,59.90176111,,,,,,,,,,,,,,,,,,21,1.8981,1,"[""3"",""backspace"",""2"",""1"",""return""]","[0.7940999999940459,1.0923000000119032,1.2849000000059618,1.4830999999940104,1.5958000000119341]",,,,,,7 × 3 =,21,0,16,16,16,1,,,,,,,,,,,,,,,,,,,,,,,,,,,,,,,,,,,,,,,,,,,,,,,,,,,,,,,,,,,,,,,,,,,,,,,,,,,,,,,,,,,,,,,,,,,,,,,,,,,,,,,,,,,,,,,,,,,,,,,,,,,,,,,,,,,,,,,,,,,,
,8833,BAC,12/08/2004,001,2023-09-29_13h56.11.418,OS3_Mult_verification,2022.2.4,Win32,59.90176111,,,,,,,,,,,,,,,,,,27,4.2472,1,"[""2"",""7"",""return""]","[3.2268000000119628,3.682699999988074,3.949199999988082]",,,,,,9 × 3 =,27,0,17,17,17,1,,,,,,,,,,,,,,,,,,,,,,,,,,,,,,,,,,,,,,,,,,,,,,,,,,,,,,,,,,,,,,,,,,,,,,,,,,,,,,,,,,,,,,,,,,,,,,,,,,,,,,,,,,,,,,,,,,,,,,,,,,,,,,,,,,,,,,,,,,,,
,8833,BAC,12/08/2004,001,2023-09-29_13h56.11.418,OS3_Mult_verification,2022.2.4,Win32,59.90176111,,,,,,,,,,,,,,,,,,28,3.8262,1,"[""2"",""8"",""return""]","[3.1078000000118777,3.2608000000118977,3.5313000000119246]",,,,,,4 × 7 =,28,0,18,18,18,1,,,,,,,,,,,,,,,,,,,,,,,,,,,,,,,,,,,,,,,,,,,,,,,,,,,,,,,,,,,,,,,,,,,,,,,,,,,,,,,,,,,,,,,,,,,,,,,,,,,,,,,,,,,,,,,,,,,,,,,,,,,,,,,,,,,,,,,,,,,,
,8833,BAC,12/08/2004,001,2023-09-29_13h56.11.418,OS3_Mult_verification,2022.2.4,Win32,59.90176111,,,,,,,,,,,,,,,,,,18,1.6411,1,"[""1"",""8"",""return""]","[0.8694000000059532,1.0836999999880845,1.3452999999821031]",,,,,,2 × 9 =,18,0,19,19,19,1,,,,,,,,,,,,,,,,,,,,,,,,,,,,,,,,,,,,,,,,,,,,,,,,,,,,,,,,,,,,,,,,,,,,,,,,,,,,,,,,,,,,,,,,,,,,,,,,,,,,,,,,,,,,,,,,,,,,,,,,,,,,,,,,,,,,,,,,,,,,
,8833,BAC,12/08/2004,001,2023-09-29_13h56.11.418,OS3_Mult_verification,2022.2.4,Win32,59.90176111,,,,,,,,,,,,,,,,,,72,3.3815,1,"[""7"",""2"",""return""]","[2.6759000000059245,2.894699999988063,3.066900000005944]",,,,,,9 × 8 =,72,0,20,20,20,1,,,,,,,,,,,,,,,,,,,,,,,,,,,,,,,,,,,,,,,,,,,,,,,,,,,,,,,,,,,,,,,,,,,,,,,,,,,,,,,,,,,,,,,,,,,,,,,,,,,,,,,,,,,,,,,,,,,,,,,,,,,,,,,,,,,,,,,,,,,,
,8833,BAC,12/08/2004,001,2023-09-29_13h56.11.418,OS3_Mult_verification,2022.2.4,Win32,59.90176111,,,,,,,,,,,,,,,,,,42,2.7243,1,"[""4"",""2"",""return""]","[2.0607000000179028,2.299900000005948,2.4238000000119087]",,,,,,7 × 6 =,42,0,21,21,21,1,,,,,,,,,,,,,,,,,,,,,,,,,,,,,,,,,,,,,,,,,,,,,,,,,,,,,,,,,,,,,,,,,,,,,,,,,,,,,,,,,,,,,,,,,,,,,,,,,,,,,,,,,,,,,,,,,,,,,,,,,,,,,,,,,,,,,,,,,,,,
,8833,BAC,12/08/2004,001,2023-09-29_13h56.11.418,OS3_Mult_verification,2022.2.4,Win32,59.90176111,,,,,,,,,,,,,,,,,,54,2.4831,1,"[""5"",""4"",""return""]","[1.7912999999820727,2.0100999999939972,2.1827999999820804]",,,,,,6 × 9 =,54,0,22,22,22,1,,,,,,,,,,,,,,,,,,,,,,,,,,,,,,,,,,,,,,,,,,,,,,,,,,,,,,,,,,,,,,,,,,,,,,,,,,,,,,,,,,,,,,,,,,,,,,,,,,,,,,,,,,,,,,,,,,,,,,,,,,,,,,,,,,,,,,,,,,,,
,8833,BAC,12/08/2004,001,2023-09-29_13h56.11.418,OS3_Mult_verification,2022.2.4,Win32,59.90176111,,,,,,,,,,,,,,,,,,45,1.5737,1,"[""4"",""5"",""return""]","[0.9442000000179291,1.1440999999940686,1.2704000000059636]",,,,,,9 × 5 =,45,0,23,23,23,1,,,,,,,,,,,,,,,,,,,,,,,,,,,,,,,,,,,,,,,,,,,,,,,,,,,,,,,,,,,,,,,,,,,,,,,,,,,,,,,,,,,,,,,,,,,,,,,,,,,,,,,,,,,,,,,,,,,,,,,,,,,,,,,,,,,,,,,,,,,,
,8833,BAC,12/08/2004,001,2023-09-29_13h56.11.418,OS3_Mult_verification,2022.2.4,Win32,59.90176111,,,,,,,,,,,,,,,,,,56,2.1816,1,"[""5"",""6"",""return""]","[1.349999999999966,1.667400000005955,1.867099999994025]",,,,,,8 × 7 =,56,0,24,24,24,1,,,,,,,,,,,,,,,,,,,,,,,,,,,,,,,,,,,,,,,,,,,,,,,,,,,,,,,,,,,,,,,,,,,,,,,,,,,,,,,,,,,,,,,,,,,,,,,,,,,,,,,,,,,,,,,,,,,,,,,,,,,,,,,,,,,,,,,,,,,,
,8833,BAC,12/08/2004,001,2023-09-29_13h56.11.418,OS3_Mult_verification,2022.2.4,Win32,59.90176111,,,,,,,,,,,,,,,,,,36,1.6092,1,"[""3"",""6"",""return""]","[0.8955999999940332,1.1465000000000032,1.3046999999880882]",,,,,,6 × 6 =,36,0,25,25,25,1,,,,,,,,,,,,,,,,,,,,,,,,,,,,,,,,,,,,,,,,,,,,,,,,,,,,,,,,,,,,,,,,,,,,,,,,,,,,,,,,,,,,,,,,,,,,,,,,,,,,,,,,,,,,,,,,,,,,,,,,,,,,,,,,,,,,,,,,,,,,
,8833,BAC,12/08/2004,001,2023-09-29_13h56.11.418,OS3_Mult_verification,2022.2.4,Win32,59.90176111,,,,,,,,,,,,,,,,,,35,2.0818,1,"[""3"",""5"",""return""]","[1.3998000000119077,1.5334000000059405,1.787599999994029]",,,,,,5 × 7 =,35,0,26,26,26,1,,,,,,,,,,,,,,,,,,,,,,,,,,,,,,,,,,,,,,,,,,,,,,,,,,,,,,,,,,,,,,,,,,,,,,,,,,,,,,,,,,,,,,,,,,,,,,,,,,,,,,,,,,,,,,,,,,,,,,,,,,,,,,,,,,,,,,,,,,,,
,8833,BAC,12/08/2004,001,2023-09-29_13h56.11.418,OS3_Mult_verification,2022.2.4,Win32,59.90176111,,,,,,,,,,,,,,,,,,36,2.6484,1,"[""3"",""6"",""return""]","[1.8620000000000232,2.1496999999880586,2.333099999994033]",,,,,,4 × 9 =,36,0,27,27,27,1,,,,,,,,,,,,,,,,,,,,,,,,,,,,,,,,,,,,,,,,,,,,,,,,,,,,,,,,,,,,,,,,,,,,,,,,,,,,,,,,,,,,,,,,,,,,,,,,,,,,,,,,,,,,,,,,,,,,,,,,,,,,,,,,,,,,,,,,,,,,
,8833,BAC,12/08/2004,001,2023-09-29_13h56.11.418,OS3_Mult_verification,2022.2.4,Win32,59.90176111,,,,,,,,,,,,,,,,,,48,2.9741,1,"[""4"",""8"",""return""]","[2.132900000005918,2.251699999988034,2.676599999994039]",,,,,,8 × 6 =,48,0,28,28,28,1,,,,,,,,,,,,,,,,,,,,,,,,,,,,,,,,,,,,,,,,,,,,,,,,,,,,,,,,,,,,,,,,,,,,,,,,,,,,,,,,,,,,,,,,,,,,,,,,,,,,,,,,,,,,,,,,,,,,,,,,,,,,,,,,,,,,,,,,,,,,
,8833,BAC,12/08/2004,001,2023-09-29_13h56.11.418,OS3_Mult_verification,2022.2.4,Win32,59.90176111,,,,,,,,,,,,,,,,,,63,1.8989,1,"[""6"",""3"",""return""]","[1.177900000005934,1.4453000000119118,1.5833000000118886]",,,,,,9 × 7 =,63,0,29,29,29,1,,,,,,,,,,,,,,,,,,,,,,,,,,,,,,,,,,,,,,,,,,,,,,,,,,,,,,,,,,,,,,,,,,,,,,,,,,,,,,,,,,,,,,,,,,,,,,,,,,,,,,,,,,,,,,,,,,,,,,,,,,,,,,,,,,,,,,,,,,,,
,8833,BAC,12/08/2004,001,2023-09-29_13h56.11.418,OS3_Mult_verification,2022.2.4,Win32,59.90176111,,,,,,,,,,,,,,,,,,12,1.7156,1,"[""1"",""2"",""return""]","[1.0445000000000277,1.2334999999999923,1.4050000000000296]",,,,,,4 × 3 =,12,0,30,30,30,1,,,,,,,,,,,,,,,,,,,,,,,,,,,,,,,,,,,,,,,,,,,,,,,,,,,,,,,,,,,,,,,,,,,,,,,,,,,,,,,,,,,,,,,,,,,,,,,,,,,,,,,,,,,,,,,,,,,,,,,,,,,,,,,,,,,,,,,,,,,,
,8833,BAC,12/08/2004,001,2023-09-29_13h56.11.418,OS3_Mult_verification,2022.2.4,Win32,59.90176111,,,,,,,,,,,,,,,,,,25,1.6647,1,"[""2"",""5"",""return""]","[0.9635000000000105,1.2165999999940595,1.3551999999880877]",,,,,,5 × 5 =,25,0,31,31,31,1,,,,,,,,,,,,,,,,,,,,,,,,,,,,,,,,,,,,,,,,,,,,,,,,,,,,,,,,,,,,,,,,,,,,,,,,,,,,,,,,,,,,,,,,,,,,,,,,,,,,,,,,,,,,,,,,,,,,,,,,,,,,,,,,,,,,,,,,,,,,
,8833,BAC,12/08/2004,001,2023-09-29_13h56.11.418,OS3_Mult_verification,2022.2.4,Win32,59.90176111,,,,,,,,,,,,,,,,,,6,1.518,1,"[""6"",""return""]","[1.0146999999880677,1.215899999976159]",,,,,,3 × 2 =,6,0,32,32,32,1,,,,,,,,,,,,,,,,,,,,,,,,,,,,,,,,,,,,,,,,,,,,,,,,,,,,,,,,,,,,,,,,,,,,,,,,,,,,,,,,,,,,,,,,,,,,,,,,,,,,,,,,,,,,,,,,,,,,,,,,,,,,,,,,,,,,,,,,,,,,
,8833,BAC,12/08/2004,001,2023-09-29_13h56.11.418,OS3_Mult_verification,2022.2.4,Win32,59.90176111,,,,,,,,,,,,,,,,,,20,1.5468,1,"[""2"",""0"",""return""]","[0.8877999999821213,1.0203999999761209,1.2351999999880832]",,,,,,5 × 4 =,20,0,33,33,33,1,,,,,,,,,,,,,,,,,,,,,,,,,,,,,,,,,,,,,,,,,,,,,,,,,,,,,,,,,,,,,,,,,,,,,,,,,,,,,,,,,,,,,,,,,,,,,,,,,,,,,,,,,,,,,,,,,,,,,,,,,,,,,,,,,,,,,,,,,,,,
,8833,BAC,12/08/2004,001,2023-09-29_13h56.11.418,OS3_Mult_verification,2022.2.4,Win32,59.90176111,,,,,,,,,,,,,,,,,,8,1.4487,1,"[""8"",""return""]","[0.9511999999880345,1.1465999999940095]",,,,,,4 × 2 =,8,0,34,34,34,1,,,,,,,,,,,,,,,,,,,,,,,,,,,,,,,,,,,,,,,,,,,,,,,,,,,,,,,,,,,,,,,,,,,,,,,,,,,,,,,,,,,,,,,,,,,,,,,,,,,,,,,,,,,,,,,,,,,,,,,,,,,,,,,,,,,,,,,,,,,,
,8833,BAC,12/08/2004,001,2023-09-29_13h56.11.418,OS3_Mult_verification,2022.2.4,Win32,59.90176111,,,,,,,,,,,,,,,,,,12,1.4319,1,"[""1"",""2"",""return""]","[0.8007000000179119,0.9860999999940532,1.120700000017905]",,,,,,2 × 6 =,12,0,35,35,35,1,,,,,,,,,,,,,,,,,,,,,,,,,,,,,,,,,,,,,,,,,,,,,,,,,,,,,,,,,,,,,,,,,,,,,,,,,,,,,,,,,,,,,,,,,,,,,,,,,,,,,,,,,,,,,,,,,,,,,,,,,,,,,,,,,,,,,,,,,,,,
,8833,BAC,12/08/2004,001,2023-09-29_13h56.11.418,OS3_Mult_verification,2022.2.4,Win32,59.90176111,,,,,,,,,,,,,,,,,,15,1.6647,1,"[""1"",""5"",""return""]","[0.9010000000000105,1.0758999999761727,1.35829999998208]",,,,,,3 × 5 =,15,0,36,36,36,1,,,,,,,,,,,,,,,,,,,,,,,,,,,,,,,,,,,,,,,,,,,,,,,,,,,,,,,,,,,,,,,,,,,,,,,,,,,,,,,,,,,,,,,,,,,,,,,,,,,,,,,,,,,,,,,,,,,,,,,,,,,,,,,,,,,,,,,,,,,,
,8833,BAC,12/08/2004,001,2023-09-29_13h56.11.418,OS3_Mult_verification,2022.2.4,Win32,59.90176111,,,,,,,,,,,,,,,,,,18,1.7153,1,"[""1"",""8"",""return""]","[0.8355999999940309,1.1440000000000055,1.4102999999821009]",,,,,,6 × 3 =,18,0,37,37,37,1,,,,,,,,,,,,,,,,,,,,,,,,,,,,,,,,,,,,,,,,,,,,,,,,,,,,,,,,,,,,,,,,,,,,,,,,,,,,,,,,,,,,,,,,,,,,,,,,,,,,,,,,,,,,,,,,,,,,,,,,,,,,,,,,,,,,,,,,,,,,
,8833,BAC,12/08/2004,001,2023-09-29_13h56.11.418,OS3_Mult_verification,2022.2.4,Win32,59.90176111,,,,,,,,,,,,,,,,,,10,1.449,1,"[""1"",""0"",""return""]","[0.7189999999999941,0.9334999999999809,1.1536999999880777]",,,,,,2 × 5 =,10,0,38,38,38,1,,,,,,,,,,,,,,,,,,,,,,,,,,,,,,,,,,,,,,,,,,,,,,,,,,,,,,,,,,,,,,,,,,,,,,,,,,,,,,,,,,,,,,,,,,,,,,,,,,,,,,,,,,,,,,,,,,,,,,,,,,,,,,,,,,,,,,,,,,,,
,8833,BAC,12/08/2004,001,2023-09-29_13h56.11.418,OS3_Mult_verification,2022.2.4,Win32,59.90176111,,,,,,,,,,,,,,,,,,32,2.1482,1,"[""3"",""2"",""return""]","[1.4617999999821336,1.6727999999821463,1.8470999999940432]",,,,,,4 × 8 =,32,0,39,39,39,1,,,,,,,,,,,,,,,,,,,,,,,,,,,,,,,,,,,,,,,,,,,,,,,,,,,,,,,,,,,,,,,,,,,,,,,,,,,,,,,,,,,,,,,,,,,,,,,,,,,,,,,,,,,,,,,,,,,,,,,,,,,,,,,,,,,,,,,,,,,,
,8833,BAC,12/08/2004,001,2023-09-29_13h56.11.418,OS3_Mult_verification,2022.2.4,Win32,59.90176111,,,,,,,,,,,,,,,,,,24,3.4482,1,"[""2"",""4"",""return""]","[2.766300000011938,2.9823000000119464,3.150000000000034]",,,,,,3 × 8 =,24,0,40,40,40,1,,,,,,,,,,,,,,,,,,,,,,,,,,,,,,,,,,,,,,,,,,,,,,,,,,,,,,,,,,,,,,,,,,,,,,,,,,,,,,,,,,,,,,,,,,,,,,,,,,,,,,,,,,,,,,,,,,,,,,,,,,,,,,,,,,,,,,,,,,,,
,8833,BAC,12/08/2004,001,2023-09-29_13h56.11.418,OS3_Mult_verification,2022.2.4,Win32,59.90176111,,,,,,,,,,,,,,,,,,30,2.1752,1,"[""5"",""backspace"",""3"",""0"",""return""]","[0.9612000000178682,1.3271000000238473,1.5161000000238118,1.6566000000238432,1.8666000000238228]",,,,,,5 × 6 =,30,0,41,41,41,1,,,,,,,,,,,,,,,,,,,,,,,,,,,,,,,,,,,,,,,,,,,,,,,,,,,,,,,,,,,,,,,,,,,,,,,,,,,,,,,,,,,,,,,,,,,,,,,,,,,,,,,,,,,,,,,,,,,,,,,,,,,,,,,,,,,,,,,,,,,,
,8833,BAC,12/08/2004,001,2023-09-29_13h56.11.418,OS3_Mult_verification,2022.2.4,Win32,59.90176111,,,,,,,,,,,,,,,,,,14,2.4644,1,"[""4"",""backspace"",""1"",""4"",""return""]","[1.1843000000118877,1.5792000000178632,1.7663000000118814,1.9839000000059173,2.1579000000059523]",,,,,,2 × 7 =,14,0,42,42,42,1,,,,,,,,,,,,,,,,,,,,,,,,,,,,,,,,,,,,,,,,,,,,,,,,,,,,,,,,,,,,,,,,,,,,,,,,,,,,,,,,,,,,,,,,,,,,,,,,,,,,,,,,,,,,,,,,,,,,,,,,,,,,,,,,,,,,,,,,,,,,
,8833,BAC,12/08/2004,001,2023-09-29_13h56.11.418,OS3_Mult_verification,2022.2.4,Win32,59.90176111,,,,,,,,,,,,,,,,,,,0.1184,0,,,,,,,,6 × 4 =,24,0,43,43,43,1,,,,,,,,,,,,,,,,,,,,,,,,,,,,,,,,,,,,,,,,,,,,,,,,,,,,,,,,,,,,,,,,,,,,,,,,,,,,,,,,,,,,,,,,,,,,,,,,,,,,,,,,,,,,,,,,,,,,,,,,,,,,,,,,,,,,,,,,,,,,
,8833,BAC,12/08/2004,001,2023-09-29_13h56.11.418,OS3_Mult_verification,2022.2.4,Win32,59.90176111,,,,,,,,,,,,,,,,space,3.1656,,,,,,,,,,,,,,,,,,TRUE,2.7802,0.040740797,-0.335185242,1,0,0,0,0,0,1,1,practice trial,,3,3,,,,,,,,,,,,,,,,,,,,,,,,,,,,,,,,,,,,,,,,,,,,,,,,,,,,,,,,,,,,,,,,,,,,,,,,,,,,,,,,,,,,,,,,,,,,,,,,,,,,,,,,,,,,,,,,,,,,,,,,,,,,
,8833,BAC,12/08/2004,001,2023-09-29_13h56.11.418,OS3_Mult_verification,2022.2.4,Win32,59.90176111,,,,,,,,,,,,,,,,,,,,,,,,,,,,,,,,,,,TRUE,3.6978,0.051851908,-0.385185242,1,0,0,0,1,1,0,1,practice trial,,3,3,,,,,,,,,,,,,,,,,,,,,,,,,,,,,,,,,,,,,,,,,,,,,,,,,,,,,,,,,,,,,,,,,,,,,,,,,,,,,,,,,,,,,,,,,,,,,,,,,,,,,,,,,,,,,,,,,,,,,,,,,,,,
,8833,BAC,12/08/2004,001,2023-09-29_13h56.11.418,OS3_Mult_verification,2022.2.4,Win32,59.90176111,,,,,,,,,,,,,,,,,,,,,,,,,,,,,,,,,,,TRUE,2.1468,0.054629686,-0.359259288,1,0,0,0,2,2,2,1,practice trial,,3,3,,,,,,,,,,,,,,,,,,,,,,,,,,,,,,,,,,,,,,,,,,,,,,,,,,,,,,,,,,,,,,,,,,,,,,,,,,,,,,,,,,,,,,,,,,,,,,,,,,,,,,,,,,,,,,,,,,,,,,,,,,,,
,8833,BAC,12/08/2004,001,2023-09-29_13h56.11.418,OS3_Mult_verification,2022.2.4,Win32,59.90176111,,,,,,,,,,,,,,,,,,,,,,,,,,,,,,,,,,,TRUE,1.3151,0.080555556,-0.334259288,1,0,0,,,,,,Trial #1,,2,2,0,0,0,0,1,2,,,,,,,,,,,,,,,,,,,,,,,,,,,,,,,,,,,,,,,,,,,,,,,,,,,,,,,,,,,,,,,,,,,,,,,,,,,,,,,,,,,,,,,,,,,,,,,,,,,,,,,,,,,,,,,,,,,,,,
,8833,BAC,12/08/2004,001,2023-09-29_13h56.11.418,OS3_Mult_verification,2022.2.4,Win32,59.90176111,,,,,,,,,,,,,,,,,,,,,,,,,,,,,,,,,,,TRUE,1.3666,0.094444444,-0.358333333,1,0,0,,,,,,Trial #1,,2,2,0,1,1,1,1,2,,,,,,,,,,,,,,,,,,,,,,,,,,,,,,,,,,,,,,,,,,,,,,,,,,,,,,,,,,,,,,,,,,,,,,,,,,,,,,,,,,,,,,,,,,,,,,,,,,,,,,,,,,,,,,,,,,,,,,
,8833,BAC,12/08/2004,001,2023-09-29_13h56.11.418,OS3_Mult_verification,2022.2.4,Win32,59.90176111,,,,,,,,,,,,,,,,,,,,,,,,,,,,,,,,,,,TRUE,1.5637,0.03148151,-0.352777778,1,0,0,,,,,,Trial #1,,2,2,0,2,2,2,1,2,,,,,,,,,,,,,,,,,,,,,,,,,,,,,,,,,,,,,,,,,,,,,,,,,,,,,,,,,,,,,,,,,,,,,,,,,,,,,,,,,,,,,,,,,,,,,,,,,,,,,,,,,,,,,,,,,,,,,,
,8833,BAC,12/08/2004,001,2023-09-29_13h56.11.418,OS3_Mult_verification,2022.2.4,Win32,59.90176111,,,,,,,,,,,,,,,,,,,,,,,,,,,,,,,,,,,TRUE,2.4796,0.086111111,-0.336111111,1,0,0,,,,,,Trial #2,,3,3,0,0,0,0,1,3,,,,,,,,,,,,,,,,,,,,,,,,,,,,,,,,,,,,,,,,,,,,,,,,,,,,,,,,,,,,,,,,,,,,,,,,,,,,,,,,,,,,,,,,,,,,,,,,,,,,,,,,,,,,,,,,,,,,,,
,8833,BAC,12/08/2004,001,2023-09-29_13h56.11.418,OS3_Mult_verification,2022.2.4,Win32,59.90176111,,,,,,,,,,,,,,,,,,,,,,,,,,,,,,,,,,,TRUE,1.7667,0.043518575,-0.339814843,1,0,0,,,,,,Trial #2,,3,3,0,1,1,1,1,3,,,,,,,,,,,,,,,,,,,,,,,,,,,,,,,,,,,,,,,,,,,,,,,,,,,,,,,,,,,,,,,,,,,,,,,,,,,,,,,,,,,,,,,,,,,,,,,,,,,,,,,,,,,,,,,,,,,,,,
,8833,BAC,12/08/2004,001,2023-09-29_13h56.11.418,OS3_Mult_verification,2022.2.4,Win32,59.90176111,,,,,,,,,,,,,,,,,,,,,,,,,,,,,,,,,,,TRUE,1.9487,0.086111111,-0.332407464,1,0,0,,,,,,Trial #2,,3,3,0,2,2,2,1,3,,,,,,,,,,,,,,,,,,,,,,,,,,,,,,,,,,,,,,,,,,,,,,,,,,,,,,,,,,,,,,,,,,,,,,,,,,,,,,,,,,,,,,,,,,,,,,,,,,,,,,,,,,,,,,,,,,,,,,
,8833,BAC,12/08/2004,001,2023-09-29_13h56.11.418,OS3_Mult_verification,2022.2.4,Win32,59.90176111,,,,,,,,,,,,,,,,,,,,,,,,,,,,,,,,,,,TRUE,3.1465,0.134259288,-0.358333333,1,0,0,,,,,,Trial #3,,3,3,0,0,0,0,1,4,,,,,,,,,,,,,,,,,,,,,,,,,,,,,,,,,,,,,,,,,,,,,,,,,,,,,,,,,,,,,,,,,,,,,,,,,,,,,,,,,,,,,,,,,,,,,,,,,,,,,,,,,,,,,,,,,,,,,,
,8833,BAC,12/08/2004,001,2023-09-29_13h56.11.418,OS3_Mult_verification,2022.2.4,Win32,59.90176111,,,,,,,,,,,,,,,,,,,,,,,,,,,,,,,,,,,TRUE,3.1818,0.076851908,-0.326851908,1,0,0,,,,,,Trial #3,,3,3,0,1,1,1,1,4,,,,,,,,,,,,,,,,,,,,,,,,,,,,,,,,,,,,,,,,,,,,,,,,,,,,,,,,,,,,,,,,,,,,,,,,,,,,,,,,,,,,,,,,,,,,,,,,,,,,,,,,,,,,,,,,,,,,,,
,8833,BAC,12/08/2004,001,2023-09-29_13h56.11.418,OS3_Mult_verification,2022.2.4,Win32,59.90176111,,,,,,,,,,,,,,,,,,,,,,,,,,,,,,,,,,,TRUE,2.1992,0.060185242,-0.365740797,1,0,0,,,,,,Trial #3,,3,3,0,2,2,2,1,4,,,,,,,,,,,,,,,,,,,,,,,,,,,,,,,,,,,,,,,,,,,,,,,,,,,,,,,,,,,,,,,,,,,,,,,,,,,,,,,,,,,,,,,,,,,,,,,,,,,,,,,,,,,,,,,,,,,,,,
,8833,BAC,12/08/2004,001,2023-09-29_13h56.11.418,OS3_Mult_verification,2022.2.4,Win32,59.90176111,,,,,,,,,,,,,,,,,,,,,,,,,,,,,,,,,,,TRUE,2.7146,0.05648151,-0.345370399,1,0,0,,,,,,Trial #4,,4,4,0,0,0,0,1,5,,,,,,,,,,,,,,,,,,,,,,,,,,,,,,,,,,,,,,,,,,,,,,,,,,,,,,,,,,,,,,,,,,,,,,,,,,,,,,,,,,,,,,,,,,,,,,,,,,,,,,,,,,,,,,,,,,,,,,
,8833,BAC,12/08/2004,001,2023-09-29_13h56.11.418,OS3_Mult_verification,2022.2.4,Win32,59.90176111,,,,,,,,,,,,,,,,,,,,,,,,,,,,,,,,,,,TRUE,2.6168,0.075,-0.327777778,1,0,0,,,,,,Trial #4,,4,4,0,1,1,1,1,5,,,,,,,,,,,,,,,,,,,,,,,,,,,,,,,,,,,,,,,,,,,,,,,,,,,,,,,,,,,,,,,,,,,,,,,,,,,,,,,,,,,,,,,,,,,,,,,,,,,,,,,,,,,,,,,,,,,,,,
,8833,BAC,12/08/2004,001,2023-09-29_13h56.11.418,OS3_Mult_verification,2022.2.4,Win32,59.90176111,,,,,,,,,,,,,,,,,,,,,,,,,,,,,,,,,,,TRUE,2.53,0.048148176,-0.343518575,1,0,0,,,,,,Trial #4,,4,4,0,2,2,2,1,5,,,,,,,,,,,,,,,,,,,,,,,,,,,,,,,,,,,,,,,,,,,,,,,,,,,,,,,,,,,,,,,,,,,,,,,,,,,,,,,,,,,,,,,,,,,,,,,,,,,,,,,,,,,,,,,,,,,,,,
,8833,BAC,12/08/2004,001,2023-09-29_13h56.11.418,OS3_Mult_verification,2022.2.4,Win32,59.90176111,,,,,,,,,,,,,,,,,,,,,,,,,,,,,,,,,,,TRUE,4.4287,0.026851908,-0.358333333,1,0,0,,,,,,Trial #5,,4,4,0,0,0,0,1,6,,,,,,,,,,,,,,,,,,,,,,,,,,,,,,,,,,,,,,,,,,,,,,,,,,,,,,,,,,,,,,,,,,,,,,,,,,,,,,,,,,,,,,,,,,,,,,,,,,,,,,,,,,,,,,,,,,,,,,
,8833,BAC,12/08/2004,001,2023-09-29_13h56.11.418,OS3_Mult_verification,2022.2.4,Win32,59.90176111,,,,,,,,,,,,,,,,,,,,,,,,,,,,,,,,,,,TRUE,3.4142,0.066666667,-0.323148176,1,0,0,,,,,,Trial #5,,4,4,0,1,1,1,1,6,,,,,,,,,,,,,,,,,,,,,,,,,,,,,,,,,,,,,,,,,,,,,,,,,,,,,,,,,,,,,,,,,,,,,,,,,,,,,,,,,,,,,,,,,,,,,,,,,,,,,,,,,,,,,,,,,,,,,,
,8833,BAC,12/08/2004,001,2023-09-29_13h56.11.418,OS3_Mult_verification,2022.2.4,Win32,59.90176111,,,,,,,,,,,,,,,,,,,,,,,,,,,,,,,,,,,TRUE,3.4472,0.051851908,-0.348148176,1,0,0,,,,,,Trial #5,,4,4,0,2,2,2,1,6,,,,,,,,,,,,,,,,,,,,,,,,,,,,,,,,,,,,,,,,,,,,,,,,,,,,,,,,,,,,,,,,,,,,,,,,,,,,,,,,,,,,,,,,,,,,,,,,,,,,,,,,,,,,,,,,,,,,,,
,8833,BAC,12/08/2004,001,2023-09-29_13h56.11.418,OS3_Mult_verification,2022.2.4,Win32,59.90176111,,,,,,,,,,,,,,,,,,,,,,,,,,,,,,,,,,,TRUE,3.5311,0.101851908,-0.324074131,1,0,0,,,,,,Trial #6,,4,4,0,0,0,0,1,7,,,,,,,,,,,,,,,,,,,,,,,,,,,,,,,,,,,,,,,,,,,,,,,,,,,,,,,,,,,,,,,,,,,,,,,,,,,,,,,,,,,,,,,,,,,,,,,,,,,,,,,,,,,,,,,,,,,,,,
,8833,BAC,12/08/2004,001,2023-09-29_13h56.11.418,OS3_Mult_verification,2022.2.4,Win32,59.90176111,,,,,,,,,,,,,,,,,,,,,,,,,,,,,,,,,,,TRUE,3.5307,0.020370399,-0.346296353,1,0,0,,,,,,Trial #6,,4,4,0,1,1,1,1,7,,,,,,,,,,,,,,,,,,,,,,,,,,,,,,,,,,,,,,,,,,,,,,,,,,,,,,,,,,,,,,,,,,,,,,,,,,,,,,,,,,,,,,,,,,,,,,,,,,,,,,,,,,,,,,,,,,,,,,
,8833,BAC,12/08/2004,001,2023-09-29_13h56.11.418,OS3_Mult_verification,2022.2.4,Win32,59.90176111,,,,,,,,,,,,,,,,,,,,,,,,,,,,,,,,,,,TRUE,4.0119,0.065740797,-0.344444444,1,0,0,,,,,,Trial #6,,4,4,0,2,2,2,1,7,,,,,,,,,,,,,,,,,,,,,,,,,,,,,,,,,,,,,,,,,,,,,,,,,,,,,,,,,,,,,,,,,,,,,,,,,,,,,,,,,,,,,,,,,,,,,,,,,,,,,,,,,,,,,,,,,,,,,,
,8833,BAC,12/08/2004,001,2023-09-29_13h56.11.418,OS3_Mult_verification,2022.2.4,Win32,59.90176111,,,,,,,,,,,,,,,,,,,,,,,,,,,,,,,,,,,TRUE,4.2479,0.058333333,-0.382407464,1,0,0,,,,,,Trial #7,,4,4,0,0,0,0,1,8,,,,,,,,,,,,,,,,,,,,,,,,,,,,,,,,,,,,,,,,,,,,,,,,,,,,,,,,,,,,,,,,,,,,,,,,,,,,,,,,,,,,,,,,,,,,,,,,,,,,,,,,,,,,,,,,,,,,,,
,8833,BAC,12/08/2004,001,2023-09-29_13h56.11.418,OS3_Mult_verification,2022.2.4,Win32,59.90176111,,,,,,,,,,,,,,,,,,,,,,,,,,,,,,,,,,,TRUE,4.2305,0.065740797,-0.353703732,1,0,0,,,,,,Trial #7,,4,4,0,1,1,1,1,8,,,,,,,,,,,,,,,,,,,,,,,,,,,,,,,,,,,,,,,,,,,,,,,,,,,,,,,,,,,,,,,,,,,,,,,,,,,,,,,,,,,,,,,,,,,,,,,,,,,,,,,,,,,,,,,,,,,,,,
,8833,BAC,12/08/2004,001,2023-09-29_13h56.11.418,OS3_Mult_verification,2022.2.4,Win32,59.90176111,,,,,,,,,,,,,,,,,,,,,,,,,,,,,,,,,,,TRUE,5.3297,0.082407464,-0.333333333,1,0,0,,,,,,Trial #7,,4,4,0,2,2,2,1,8,,,,,,,,,,,,,,,,,,,,,,,,,,,,,,,,,,,,,,,,,,,,,,,,,,,,,,,,,,,,,,,,,,,,,,,,,,,,,,,,,,,,,,,,,,,,,,,,,,,,,,,,,,,,,,,,,,,,,,
,8833,BAC,12/08/2004,001,2023-09-29_13h56.11.418,OS3_Mult_verification,2022.2.4,Win32,59.90176111,,,,,,,,,,,,,,,,,,,,,,,,,,,,,,,,,,,TRUE,4.0978,0.053703732,-0.349074131,1,0,0,,,,,,Trial #8,,5,5,0,0,0,0,1,9,,,,,,,,,,,,,,,,,,,,,,,,,,,,,,,,,,,,,,,,,,,,,,,,,,,,,,,,,,,,,,,,,,,,,,,,,,,,,,,,,,,,,,,,,,,,,,,,,,,,,,,,,,,,,,,,,,,,,,
,8833,BAC,12/08/2004,001,2023-09-29_13h56.11.418,OS3_Mult_verification,2022.2.4,Win32,59.90176111,,,,,,,,,,,,,,,,,,,,,,,,,,,,,,,,,,,TRUE,4.4635,0.093518575,-0.315740797,1,0,0,,,,,,Trial #8,,5,5,0,1,1,1,1,9,,,,,,,,,,,,,,,,,,,,,,,,,,,,,,,,,,,,,,,,,,,,,,,,,,,,,,,,,,,,,,,,,,,,,,,,,,,,,,,,,,,,,,,,,,,,,,,,,,,,,,,,,,,,,,,,,,,,,,
,8833,BAC,12/08/2004,001,2023-09-29_13h56.11.418,OS3_Mult_verification,2022.2.4,Win32,59.90176111,,,,,,,,,,,,,,,,,,,,,,,,,,,,,,,,,,,TRUE,4.2804,0.083333333,-0.334259288,1,0,0,,,,,,Trial #8,,5,5,0,2,2,2,1,9,,,,,,,,,,,,,,,,,,,,,,,,,,,,,,,,,,,,,,,,,,,,,,,,,,,,,,,,,,,,,,,,,,,,,,,,,,,,,,,,,,,,,,,,,,,,,,,,,,,,,,,,,,,,,,,,,,,,,,
,8833,BAC,12/08/2004,001,2023-09-29_13h56.11.418,OS3_Mult_verification,2022.2.4,Win32,59.90176111,,,,,,,,,,,,,,,,,,,,,,,,,,,,,,,,,,,TRUE,7.3138,-0.021296268,-0.373148176,1,0,0,,,,,,Trial #9,,5,5,0,0,0,0,1,10,,,,,,,,,,,,,,,,,,,,,,,,,,,,,,,,,,,,,,,,,,,,,,,,,,,,,,,,,,,,,,,,,,,,,,,,,,,,,,,,,,,,,,,,,,,,,,,,,,,,,,,,,,,,,,,,,,,,,,
,8833,BAC,12/08/2004,001,2023-09-29_13h56.11.418,OS3_Mult_verification,2022.2.4,Win32,59.90176111,,,,,,,,,,,,,,,,,,,,,,,,,,,,,,,,,,,TRUE,5.3283,0.080555556,-0.337963019,1,0,0,,,,,,Trial #9,,5,5,0,1,1,1,1,10,,,,,,,,,,,,,,,,,,,,,,,,,,,,,,,,,,,,,,,,,,,,,,,,,,,,,,,,,,,,,,,,,,,,,,,,,,,,,,,,,,,,,,,,,,,,,,,,,,,,,,,,,,,,,,,,,,,,,,
,8833,BAC,12/08/2004,001,2023-09-29_13h56.11.418,OS3_Mult_verification,2022.2.4,Win32,59.90176111,,,,,,,,,,,,,,,,,,,,,,,,,,,,,,,,,,,TRUE,5.6967,0.095370399,-0.337963019,1,0,0,,,,,,Trial #9,,5,5,0,2,2,2,1,10,,,,,,,,,,,,,,,,,,,,,,,,,,,,,,,,,,,,,,,,,,,,,,,,,,,,,,,,,,,,,,,,,,,,,,,,,,,,,,,,,,,,,,,,,,,,,,,,,,,,,,,,,,,,,,,,,,,,,,
,8833,BAC,12/08/2004,001,2023-09-29_13h56.11.418,OS3_Mult_verification,2022.2.4,Win32,59.90176111,,,,,,,,,,,,,,,,,,,,,,,,,,,,,,,,,,,FALSE,5.462,0.075,-0.346296353,1,0,0,,,,,,Trial #10,,5,5,0,0,0,0,1,11,,,,,,,,,,,,,,,,,,,,,,,,,,,,,,,,,,,,,,,,,,,,,,,,,,,,,,,,,,,,,,,,,,,,,,,,,,,,,,,,,,,,,,,,,,,,,,,,,,,,,,,,,,,,,,,,,,,,,,
,8833,BAC,12/08/2004,001,2023-09-29_13h56.11.418,OS3_Mult_verification,2022.2.4,Win32,59.90176111,,,,,,,,,,,,,,,,,,,,,,,,,,,,,,,,,,,TRUE,9.5266,0.072222222,-0.359259288,1,0,0,,,,,,Trial #10,,5,5,0,1,1,1,1,11,,,,,,,,,,,,,,,,,,,,,,,,,,,,,,,,,,,,,,,,,,,,,,,,,,,,,,,,,,,,,,,,,,,,,,,,,,,,,,,,,,,,,,,,,,,,,,,,,,,,,,,,,,,,,,,,,,,,,,
,8833,BAC,12/08/2004,001,2023-09-29_13h56.11.418,OS3_Mult_verification,2022.2.4,Win32,59.90176111,,,,,,,,,,,,,,,,,,,,,,,,,,,,,,,,,,,FALSE,12.7927,0.099074131,-0.338888889,1,0,0,,,,,,Trial #10,,5,5,0,2,2,2,1,11,,,,,,,,,,,,,,,,,,,,,,,,,,,,,,,,,,,,,,,,,,,,,,,,,,,,,,,,,,,,,,,,,,,,,,,,,,,,,,,,,,,,,,,,,,,,,,,,,,,,,,,,,,,,,,,,,,,,,,
,8833,BAC,12/08/2004,001,2023-09-29_13h56.11.418,OS3_Mult_verification,2022.2.4,Win32,59.90176111,,,,,,,,,,,,,,,,,,,,,,,,,,,,,,,,,,,,,,,,,,,,,,,,,,,,,,,,,0,0,0,0,1,,,,,,,,,,,,,,,,,,,,,,,,,,,,,,,,,,,,,,,,,,,,,,,,,,,,,,,,,,,,,,,,,,,,,,,,,,,,,,,,,,,,,,,,,,,,,,,,,,,,,,,,,,,,,,,,,
,8833,BAC,12/08/2004,001,2023-09-29_13h56.11.418,OS3_Mult_verification,2022.2.4,Win32,59.90176111,,,,,,,,,,,,,,,,,,,,,,,,,,,,,,,,,,,,,,,,,,,,,,,,,,,,,,,,,,,,,,0,0,0,0,1,0,1,0,,,,,,,,,,,,,,,,,,,,,,,,,,,,,,,,,,,,,,,,,,,,,,,,,,,,,,,,,,,,,,,,,,,,,,,,,,,,,,,,,,,,,,,,,,,,,,,,,,,,,,,,,
,8833,BAC,12/08/2004,001,2023-09-29_13h56.11.418,OS3_Mult_verification,2022.2.4,Win32,59.90176111,,,,,,,,,,,,,,,,space,1.7584,,,,,,,,,,,,,,,,,,,,,,,,,,,,,,,,,,,,,,,,,,,,,,,,,,,,,right,1,0.6913,0,0,0,2,1,practice,4,9,4 | 9,5,0.06,0.06,neutral,right,,,,,,,,,,,,,,,,,,,,,,,,,,,,,,,,,,,,,,,,,,,,,,,,,,,,,,,,,,,,,,,,,,,,,,,,,,,,,,,,,,,,,,,,
,8833,BAC,12/08/2004,001,2023-09-29_13h56.11.418,OS3_Mult_verification,2022.2.4,Win32,59.90176111,,,,,,,,,,,,,,,,,,,,,,,,,,,,,,,,,,,,,,,,,,,,,,,,,,,,,,,,,,,,,,,,,,,,,,right,1,0.6183,0,1,1,0,1,practice,1,2,1 | 2,1,0.05,0.065,congruent,right,,,,,,,,,,,,,,,,,,,,,,,,,,,,,,,,,,,,,,,,,,,,,,,,,,,,,,,,,,,,,,,,,,,,,,,,,,,,,,,,,,,,,,,,
,8833,BAC,12/08/2004,001,2023-09-29_13h56.11.418,OS3_Mult_verification,2022.2.4,Win32,59.90176111,,,,,,,,,,,,,,,,,,,,,,,,,,,,,,,,,,,,,,,,,,,,,,,,,,,,,,,,,,,,,,,,,,,,,,left,0,0.5433,0,2,2,1,1,practice,7,8,7 | 8,1,0.065,0.05,incongruent,right,,,,,,,,,,,,,,,,,,,,,,,,,,,,,,,,,,,,,,,,,,,,,,,,,,,,,,,,,,,,,,,,,,,,,,,,,,,,,,,,,,,,,,,,
,8833,BAC,12/08/2004,001,2023-09-29_13h56.11.418,OS3_Mult_verification,2022.2.4,Win32,59.90176111,,,,,,,,,,,,,,,,,,,,,,,,,,,,,,,,,,,,,,,,,,,,,,,,,,,,,,,,,,,,,,,,,,,,,,right,1,0.7362,,,,,,magnitude,4,9,4 | 9,5,0.065,0.05,incongruent,right,0,0,0,43,1,,,,,,,,,,,,,,,,,,,,,,,,,,,,,,,,,,,,,,,,,,,,,,,,,,,,,,,,,,,,,,,,,,,,,,,,,,,,,,,,,,,
,8833,BAC,12/08/2004,001,2023-09-29_13h56.11.418,OS3_Mult_verification,2022.2.4,Win32,59.90176111,,,,,,,,,,,,,,,,,,,,,,,,,,,,,,,,,,,,,,,,,,,,,,,,,,,,,,,,,,,,,,,,,,,,,,left,0,0.7315,,,,,,magnitude,2,4,2 | 4,2,0.065,0.05,incongruent,right,0,1,1,33,1,,,,,,,,,,,,,,,,,,,,,,,,,,,,,,,,,,,,,,,,,,,,,,,,,,,,,,,,,,,,,,,,,,,,,,,,,,,,,,,,,,,
,8833,BAC,12/08/2004,001,2023-09-29_13h56.11.418,OS3_Mult_verification,2022.2.4,Win32,59.90176111,,,,,,,,,,,,,,,,,,,,,,,,,,,,,,,,,,,,,,,,,,,,,,,,,,,,,,,,,,,,,,,,,,,,,,left,1,0.9961,,,,,,magnitude,7,6,7 | 6,1,0.065,0.05,congruent,left,0,2,2,6,1,,,,,,,,,,,,,,,,,,,,,,,,,,,,,,,,,,,,,,,,,,,,,,,,,,,,,,,,,,,,,,,,,,,,,,,,,,,,,,,,,,,
,8833,BAC,12/08/2004,001,2023-09-29_13h56.11.418,OS3_Mult_verification,2022.2.4,Win32,59.90176111,,,,,,,,,,,,,,,,,,,,,,,,,,,,,,,,,,,,,,,,,,,,,,,,,,,,,,,,,,,,,,,,,,,,,,right,1,0.648,,,,,,magnitude,3,4,3 | 4,1,0.06,0.06,neutral,right,0,3,3,49,1,,,,,,,,,,,,,,,,,,,,,,,,,,,,,,,,,,,,,,,,,,,,,,,,,,,,,,,,,,,,,,,,,,,,,,,,,,,,,,,,,,,
,8833,BAC,12/08/2004,001,2023-09-29_13h56.11.418,OS3_Mult_verification,2022.2.4,Win32,59.90176111,,,,,,,,,,,,,,,,,,,,,,,,,,,,,,,,,,,,,,,,,,,,,,,,,,,,,,,,,,,,,,,,,,,,,,right,1,0.7278,,,,,,magnitude,8,9,8 | 9,1,0.065,0.05,incongruent,right,0,4,4,27,1,,,,,,,,,,,,,,,,,,,,,,,,,,,,,,,,,,,,,,,,,,,,,,,,,,,,,,,,,,,,,,,,,,,,,,,,,,,,,,,,,,,
,8833,BAC,12/08/2004,001,2023-09-29_13h56.11.418,OS3_Mult_verification,2022.2.4,Win32,59.90176111,,,,,,,,,,,,,,,,,,,,,,,,,,,,,,,,,,,,,,,,,,,,,,,,,,,,,,,,,,,,,,,,,,,,,,left,1,0.6013,,,,,,magnitude,8,3,8 | 3,5,0.06,0.06,neutral,left,0,5,5,70,1,,,,,,,,,,,,,,,,,,,,,,,,,,,,,,,,,,,,,,,,,,,,,,,,,,,,,,,,,,,,,,,,,,,,,,,,,,,,,,,,,,,
,8833,BAC,12/08/2004,001,2023-09-29_13h56.11.418,OS3_Mult_verification,2022.2.4,Win32,59.90176111,,,,,,,,,,,,,,,,,,,,,,,,,,,,,,,,,,,,,,,,,,,,,,,,,,,,,,,,,,,,,,,,,,,,,,right,1,0.6439,,,,,,magnitude,3,4,3 | 4,1,0.05,0.065,congruent,right,0,6,6,1,1,,,,,,,,,,,,,,,,,,,,,,,,,,,,,,,,,,,,,,,,,,,,,,,,,,,,,,,,,,,,,,,,,,,,,,,,,,,,,,,,,,,
,8833,BAC,12/08/2004,001,2023-09-29_13h56.11.418,OS3_Mult_verification,2022.2.4,Win32,59.90176111,,,,,,,,,,,,,,,,,,,,,,,,,,,,,,,,,,,,,,,,,,,,,,,,,,,,,,,,,,,,,,,,,,,,,,right,1,0.6202,,,,,,magnitude,2,7,2 | 7,5,0.06,0.06,neutral,right,0,7,7,65,1,,,,,,,,,,,,,,,,,,,,,,,,,,,,,,,,,,,,,,,,,,,,,,,,,,,,,,,,,,,,,,,,,,,,,,,,,,,,,,,,,,,
,8833,BAC,12/08/2004,001,2023-09-29_13h56.11.418,OS3_Mult_verification,2022.2.4,Win32,59.90176111,,,,,,,,,,,,,,,,,,,,,,,,,,,,,,,,,,,,,,,,,,,,,,,,,,,,,,,,,,,,,,,,,,,,,,right,1,0.6461,,,,,,magnitude,2,7,2 | 7,5,0.065,0.05,incongruent,right,0,8,8,41,1,,,,,,,,,,,,,,,,,,,,,,,,,,,,,,,,,,,,,,,,,,,,,,,,,,,,,,,,,,,,,,,,,,,,,,,,,,,,,,,,,,,
,8833,BAC,12/08/2004,001,2023-09-29_13h56.11.418,OS3_Mult_verification,2022.2.4,Win32,59.90176111,,,,,,,,,,,,,,,,,,,,,,,,,,,,,,,,,,,,,,,,,,,,,,,,,,,,,,,,,,,,,,,,,,,,,,left,1,0.671,,,,,,magnitude,2,1,2 | 1,1,0.065,0.05,congruent,left,0,9,9,4,1,,,,,,,,,,,,,,,,,,,,,,,,,,,,,,,,,,,,,,,,,,,,,,,,,,,,,,,,,,,,,,,,,,,,,,,,,,,,,,,,,,,
,8833,BAC,12/08/2004,001,2023-09-29_13h56.11.418,OS3_Mult_verification,2022.2.4,Win32,59.90176111,,,,,,,,,,,,,,,,,,,,,,,,,,,,,,,,,,,,,,,,,,,,,,,,,,,,,,,,,,,,,,,,,,,,,,left,1,0.7095,,,,,,magnitude,4,2,4 | 2,2,0.065,0.05,congruent,left,0,10,10,13,1,,,,,,,,,,,,,,,,,,,,,,,,,,,,,,,,,,,,,,,,,,,,,,,,,,,,,,,,,,,,,,,,,,,,,,,,,,,,,,,,,,,
,8833,BAC,12/08/2004,001,2023-09-29_13h56.11.418,OS3_Mult_verification,2022.2.4,Win32,59.90176111,,,,,,,,,,,,,,,,,,,,,,,,,,,,,,,,,,,,,,,,,,,,,,,,,,,,,,,,,,,,,,,,,,,,,,left,1,0.7639,,,,,,magnitude,4,3,4 | 3,1,0.05,0.065,incongruent,left,0,11,11,29,1,,,,,,,,,,,,,,,,,,,,,,,,,,,,,,,,,,,,,,,,,,,,,,,,,,,,,,,,,,,,,,,,,,,,,,,,,,,,,,,,,,,
,8833,BAC,12/08/2004,001,2023-09-29_13h56.11.418,OS3_Mult_verification,2022.2.4,Win32,59.90176111,,,,,,,,,,,,,,,,,,,,,,,,,,,,,,,,,,,,,,,,,,,,,,,,,,,,,,,,,,,,,,,,,,,,,,right,1,0.6297,,,,,,magnitude,2,4,2 | 4,2,0.05,0.065,congruent,right,0,12,12,9,1,,,,,,,,,,,,,,,,,,,,,,,,,,,,,,,,,,,,,,,,,,,,,,,,,,,,,,,,,,,,,,,,,,,,,,,,,,,,,,,,,,,
,8833,BAC,12/08/2004,001,2023-09-29_13h56.11.418,OS3_Mult_verification,2022.2.4,Win32,59.90176111,,,,,,,,,,,,,,,,,,,,,,,,,,,,,,,,,,,,,,,,,,,,,,,,,,,,,,,,,,,,,,,,,,,,,,left,1,0.5672,,,,,,magnitude,6,1,6 | 1,5,0.06,0.06,neutral,left,0,13,13,68,1,,,,,,,,,,,,,,,,,,,,,,,,,,,,,,,,,,,,,,,,,,,,,,,,,,,,,,,,,,,,,,,,,,,,,,,,,,,,,,,,,,,
,8833,BAC,12/08/2004,001,2023-09-29_13h56.11.418,OS3_Mult_verification,2022.2.4,Win32,59.90176111,,,,,,,,,,,,,,,,,,,,,,,,,,,,,,,,,,,,,,,,,,,,,,,,,,,,,,,,,,,,,,,,,,,,,,right,1,0.6338,,,,,,magnitude,8,9,8 | 9,1,0.06,0.06,neutral,right,0,14,14,51,1,,,,,,,,,,,,,,,,,,,,,,,,,,,,,,,,,,,,,,,,,,,,,,,,,,,,,,,,,,,,,,,,,,,,,,,,,,,,,,,,,,,
,8833,BAC,12/08/2004,001,2023-09-29_13h56.11.418,OS3_Mult_verification,2022.2.4,Win32,59.90176111,,,,,,,,,,,,,,,,,,,,,,,,,,,,,,,,,,,,,,,,,,,,,,,,,,,,,,,,,,,,,,,,,,,,,,left,1,0.6068,,,,,,magnitude,9,7,9 | 7,2,0.065,0.05,congruent,left,0,15,15,15,1,,,,,,,,,,,,,,,,,,,,,,,,,,,,,,,,,,,,,,,,,,,,,,,,,,,,,,,,,,,,,,,,,,,,,,,,,,,,,,,,,,,
,8833,BAC,12/08/2004,001,2023-09-29_13h56.11.418,OS3_Mult_verification,2022.2.4,Win32,59.90176111,,,,,,,,,,,,,,,,,,,,,,,,,,,,,,,,,,,,,,,,,,,,,,,,,,,,,,,,,,,,,,,,,,,,,,right,1,0.5397,,,,,,magnitude,3,8,3 | 8,5,0.06,0.06,neutral,right,0,16,16,66,1,,,,,,,,,,,,,,,,,,,,,,,,,,,,,,,,,,,,,,,,,,,,,,,,,,,,,,,,,,,,,,,,,,,,,,,,,,,,,,,,,,,
,8833,BAC,12/08/2004,001,2023-09-29_13h56.11.418,OS3_Mult_verification,2022.2.4,Win32,59.90176111,,,,,,,,,,,,,,,,,,,,,,,,,,,,,,,,,,,,,,,,,,,,,,,,,,,,,,,,,,,,,,,,,,,,,,left,1,0.5337,,,,,,magnitude,9,7,9 | 7,2,0.06,0.06,neutral,left,0,17,17,63,1,,,,,,,,,,,,,,,,,,,,,,,,,,,,,,,,,,,,,,,,,,,,,,,,,,,,,,,,,,,,,,,,,,,,,,,,,,,,,,,,,,,
,8833,BAC,12/08/2004,001,2023-09-29_13h56.11.418,OS3_Mult_verification,2022.2.4,Win32,59.90176111,,,,,,,,,,,,,,,,,,,,,,,,,,,,,,,,,,,,,,,,,,,,,,,,,,,,,,,,,,,,,,,,,,,,,,left,1,0.8101,,,,,,magnitude,7,6,7 | 6,1,0.06,0.06,neutral,left,0,18,18,54,1,,,,,,,,,,,,,,,,,,,,,,,,,,,,,,,,,,,,,,,,,,,,,,,,,,,,,,,,,,,,,,,,,,,,,,,,,,,,,,,,,,,
,8833,BAC,12/08/2004,001,2023-09-29_13h56.11.418,OS3_Mult_verification,2022.2.4,Win32,59.90176111,,,,,,,,,,,,,,,,,,,,,,,,,,,,,,,,,,,,,,,,,,,,,,,,,,,,,,,,,,,,,,,,,,,,,,left,1,0.6244,,,,,,magnitude,9,8,9 | 8,1,0.065,0.05,congruent,left,0,19,19,7,1,,,,,,,,,,,,,,,,,,,,,,,,,,,,,,,,,,,,,,,,,,,,,,,,,,,,,,,,,,,,,,,,,,,,,,,,,,,,,,,,,,,
,8833,BAC,12/08/2004,001,2023-09-29_13h56.11.418,OS3_Mult_verification,2022.2.4,Win32,59.90176111,,,,,,,,,,,,,,,,,,,,,,,,,,,,,,,,,,,,,,,,,,,,,,,,,,,,,,,,,,,,,,,,,,,,,,right,1,0.6353,,,,,,magnitude,3,8,3 | 8,5,0.065,0.05,incongruent,right,0,20,20,42,1,,,,,,,,,,,,,,,,,,,,,,,,,,,,,,,,,,,,,,,,,,,,,,,,,,,,,,,,,,,,,,,,,,,,,,,,,,,,,,,,,,,
,8833,BAC,12/08/2004,001,2023-09-29_13h56.11.418,OS3_Mult_verification,2022.2.4,Win32,59.90176111,,,,,,,,,,,,,,,,,,,,,,,,,,,,,,,,,,,,,,,,,,,,,,,,,,,,,,,,,,,,,,,,,,,,,,right,0,0.7922,,,,,,magnitude,3,1,3 | 1,2,0.06,0.06,neutral,left,0,21,21,60,1,,,,,,,,,,,,,,,,,,,,,,,,,,,,,,,,,,,,,,,,,,,,,,,,,,,,,,,,,,,,,,,,,,,,,,,,,,,,,,,,,,,
,8833,BAC,12/08/2004,001,2023-09-29_13h56.11.418,OS3_Mult_verification,2022.2.4,Win32,59.90176111,,,,,,,,,,,,,,,,,,,,,,,,,,,,,,,,,,,,,,,,,,,,,,,,,,,,,,,,,,,,,,,,,,,,,,right,1,0.8977,,,,,,magnitude,6,8,6 | 8,2,0.065,0.05,incongruent,right,0,22,22,34,1,,,,,,,,,,,,,,,,,,,,,,,,,,,,,,,,,,,,,,,,,,,,,,,,,,,,,,,,,,,,,,,,,,,,,,,,,,,,,,,,,,,
,8833,BAC,12/08/2004,001,2023-09-29_13h56.11.418,OS3_Mult_verification,2022.2.4,Win32,59.90176111,,,,,,,,,,,,,,,,,,,,,,,,,,,,,,,,,,,,,,,,,,,,,,,,,,,,,,,,,,,,,,,,,,,,,,right,1,0.7759,,,,,,magnitude,6,7,6 | 7,1,0.05,0.065,congruent,right,0,23,23,2,1,,,,,,,,,,,,,,,,,,,,,,,,,,,,,,,,,,,,,,,,,,,,,,,,,,,,,,,,,,,,,,,,,,,,,,,,,,,,,,,,,,,
,8833,BAC,12/08/2004,001,2023-09-29_13h56.11.418,OS3_Mult_verification,2022.2.4,Win32,59.90176111,,,,,,,,,,,,,,,,,,,,,,,,,,,,,,,,,,,,,,,,,,,,,,,,,,,,,,,,,,,,,,,,,,,,,,right,1,1.134,,,,,,magnitude,3,4,3 | 4,1,0.065,0.05,incongruent,right,0,24,24,25,1,,,,,,,,,,,,,,,,,,,,,,,,,,,,,,,,,,,,,,,,,,,,,,,,,,,,,,,,,,,,,,,,,,,,,,,,,,,,,,,,,,,
,8833,BAC,12/08/2004,001,2023-09-29_13h56.11.418,OS3_Mult_verification,2022.2.4,Win32,59.90176111,,,,,,,,,,,,,,,,,,,,,,,,,,,,,,,,,,,,,,,,,,,,,,,,,,,,,,,,,,,,,,,,,,,,,,left,1,0.5703,,,,,,magnitude,8,3,8 | 3,5,0.065,0.05,congruent,left,0,25,25,22,1,,,,,,,,,,,,,,,,,,,,,,,,,,,,,,,,,,,,,,,,,,,,,,,,,,,,,,,,,,,,,,,,,,,,,,,,,,,,,,,,,,,
,8833,BAC,12/08/2004,001,2023-09-29_13h56.11.418,OS3_Mult_verification,2022.2.4,Win32,59.90176111,,,,,,,,,,,,,,,,,,,,,,,,,,,,,,,,,,,,,,,,,,,,,,,,,,,,,,,,,,,,,,,,,,,,,,right,0,0.6301,,,,,,magnitude,8,6,8 | 6,2,0.05,0.065,incongruent,left,0,26,26,38,1,,,,,,,,,,,,,,,,,,,,,,,,,,,,,,,,,,,,,,,,,,,,,,,,,,,,,,,,,,,,,,,,,,,,,,,,,,,,,,,,,,,
,8833,BAC,12/08/2004,001,2023-09-29_13h56.11.418,OS3_Mult_verification,2022.2.4,Win32,59.90176111,,,,,,,,,,,,,,,,,,,,,,,,,,,,,,,,,,,,,,,,,,,,,,,,,,,,,,,,,,,,,,,,,,,,,,right,1,1.1998,,,,,,magnitude,4,9,4 | 9,5,0.06,0.06,neutral,right,0,27,27,67,1,,,,,,,,,,,,,,,,,,,,,,,,,,,,,,,,,,,,,,,,,,,,,,,,,,,,,,,,,,,,,,,,,,,,,,,,,,,,,,,,,,,
,8833,BAC,12/08/2004,001,2023-09-29_13h56.11.418,OS3_Mult_verification,2022.2.4,Win32,59.90176111,,,,,,,,,,,,,,,,,,,,,,,,,,,,,,,,,,,,,,,,,,,,,,,,,,,,,,,,,,,,,,,,,,,,,,left,1,0.5621,,,,,,magnitude,7,2,7 | 2,5,0.065,0.05,congruent,left,0,28,28,21,1,,,,,,,,,,,,,,,,,,,,,,,,,,,,,,,,,,,,,,,,,,,,,,,,,,,,,,,,,,,,,,,,,,,,,,,,,,,,,,,,,,,
,8833,BAC,12/08/2004,001,2023-09-29_13h56.11.418,OS3_Mult_verification,2022.2.4,Win32,59.90176111,,,,,,,,,,,,,,,,,,,,,,,,,,,,,,,,,,,,,,,,,,,,,,,,,,,,,,,,,,,,,,,,,,,,,,right,0,0.614,,,,,,magnitude,3,1,3 | 1,2,0.05,0.065,incongruent,left,0,29,29,36,1,,,,,,,,,,,,,,,,,,,,,,,,,,,,,,,,,,,,,,,,,,,,,,,,,,,,,,,,,,,,,,,,,,,,,,,,,,,,,,,,,,,
,8833,BAC,12/08/2004,001,2023-09-29_13h56.11.418,OS3_Mult_verification,2022.2.4,Win32,59.90176111,,,,,,,,,,,,,,,,,,,,,,,,,,,,,,,,,,,,,,,,,,,,,,,,,,,,,,,,,,,,,,,,,,,,,,right,1,0.9834,,,,,,magnitude,6,7,6 | 7,1,0.065,0.05,incongruent,right,0,30,30,26,1,,,,,,,,,,,,,,,,,,,,,,,,,,,,,,,,,,,,,,,,,,,,,,,,,,,,,,,,,,,,,,,,,,,,,,,,,,,,,,,,,,,
,8833,BAC,12/08/2004,001,2023-09-29_13h56.11.418,OS3_Mult_verification,2022.2.4,Win32,59.90176111,,,,,,,,,,,,,,,,,,,,,,,,,,,,,,,,,,,,,,,,,,,,,,,,,,,,,,,,,,,,,,,,,,,,,,left,1,0.72,,,,,,magnitude,3,1,3 | 1,2,0.065,0.05,congruent,left,0,31,31,12,1,,,,,,,,,,,,,,,,,,,,,,,,,,,,,,,,,,,,,,,,,,,,,,,,,,,,,,,,,,,,,,,,,,,,,,,,,,,,,,,,,,,
,8833,BAC,12/08/2004,001,2023-09-29_13h56.11.418,OS3_Mult_verification,2022.2.4,Win32,59.90176111,,,,,,,,,,,,,,,,,,,,,,,,,,,,,,,,,,,,,,,,,,,,,,,,,,,,,,,,,,,,,,,,,,,,,,left,1,0.7706,,,,,,magnitude,8,6,8 | 6,2,0.06,0.06,neutral,left,0,32,32,62,1,,,,,,,,,,,,,,,,,,,,,,,,,,,,,,,,,,,,,,,,,,,,,,,,,,,,,,,,,,,,,,,,,,,,,,,,,,,,,,,,,,,
,8833,BAC,12/08/2004,001,2023-09-29_13h56.11.418,OS3_Mult_verification,2022.2.4,Win32,59.90176111,,,,,,,,,,,,,,,,,,,,,,,,,,,,,,,,,,,,,,,,,,,,,,,,,,,,,,,,,,,,,,,,,,,,,,left,1,1.0178,,,,,,magnitude,6,1,6 | 1,5,0.065,0.05,congruent,left,0,33,33,20,1,,,,,,,,,,,,,,,,,,,,,,,,,,,,,,,,,,,,,,,,,,,,,,,,,,,,,,,,,,,,,,,,,,,,,,,,,,,,,,,,,,,
,8833,BAC,12/08/2004,001,2023-09-29_13h56.11.418,OS3_Mult_verification,2022.2.4,Win32,59.90176111,,,,,,,,,,,,,,,,,,,,,,,,,,,,,,,,,,,,,,,,,,,,,,,,,,,,,,,,,,,,,,,,,,,,,,right,1,0.6924,,,,,,magnitude,7,9,7 | 9,2,0.06,0.06,neutral,right,0,34,34,59,1,,,,,,,,,,,,,,,,,,,,,,,,,,,,,,,,,,,,,,,,,,,,,,,,,,,,,,,,,,,,,,,,,,,,,,,,,,,,,,,,,,,
,8833,BAC,12/08/2004,001,2023-09-29_13h56.11.418,OS3_Mult_verification,2022.2.4,Win32,59.90176111,,,,,,,,,,,,,,,,,,,,,,,,,,,,,,,,,,,,,,,,,,,,,,,,,,,,,,,,,,,,,,,,,,,,,,left,1,1.0769,,,,,,magnitude,9,7,9 | 7,2,0.05,0.065,incongruent,left,0,35,35,39,1,,,,,,,,,,,,,,,,,,,,,,,,,,,,,,,,,,,,,,,,,,,,,,,,,,,,,,,,,,,,,,,,,,,,,,,,,,,,,,,,,,,
,8833,BAC,12/08/2004,001,2023-09-29_13h56.11.418,OS3_Mult_verification,2022.2.4,Win32,59.90176111,,,,,,,,,,,,,,,,,,,,,,,,,,,,,,,,,,,,,,,,,,,,,,,,,,,,,,,,,,,,,,,,,,,,,,right,1,0.6181,,,,,,magnitude,1,6,1 | 6,5,0.065,0.05,incongruent,right,0,36,36,40,1,,,,,,,,,,,,,,,,,,,,,,,,,,,,,,,,,,,,,,,,,,,,,,,,,,,,,,,,,,,,,,,,,,,,,,,,,,,,,,,,,,,
,8833,BAC,12/08/2004,001,2023-09-29_13h56.11.418,OS3_Mult_verification,2022.2.4,Win32,59.90176111,,,,,,,,,,,,,,,,,,,,,,,,,,,,,,,,,,,,,,,,,,,,,,,,,,,,,,,,,,,,,,,,,,,,,,left,1,0.6689,,,,,,magnitude,2,1,2 | 1,1,0.05,0.065,incongruent,left,0,37,37,28,1,,,,,,,,,,,,,,,,,,,,,,,,,,,,,,,,,,,,,,,,,,,,,,,,,,,,,,,,,,,,,,,,,,,,,,,,,,,,,,,,,,,
,8833,BAC,12/08/2004,001,2023-09-29_13h56.11.418,OS3_Mult_verification,2022.2.4,Win32,59.90176111,,,,,,,,,,,,,,,,,,,,,,,,,,,,,,,,,,,,,,,,,,,,,,,,,,,,,,,,,,,,,,,,,,,,,,left,1,0.683,,,,,,magnitude,7,2,7 | 2,5,0.06,0.06,neutral,left,0,38,38,69,1,,,,,,,,,,,,,,,,,,,,,,,,,,,,,,,,,,,,,,,,,,,,,,,,,,,,,,,,,,,,,,,,,,,,,,,,,,,,,,,,,,,
,8833,BAC,12/08/2004,001,2023-09-29_13h56.11.418,OS3_Mult_verification,2022.2.4,Win32,59.90176111,,,,,,,,,,,,,,,,,,,,,,,,,,,,,,,,,,,,,,,,,,,,,,,,,,,,,,,,,,,,,,,,,,,,,,left,1,0.6176,,,,,,magnitude,2,1,2 | 1,1,0.06,0.06,neutral,left,0,39,39,52,1,,,,,,,,,,,,,,,,,,,,,,,,,,,,,,,,,,,,,,,,,,,,,,,,,,,,,,,,,,,,,,,,,,,,,,,,,,,,,,,,,,,
,8833,BAC,12/08/2004,001,2023-09-29_13h56.11.418,OS3_Mult_verification,2022.2.4,Win32,59.90176111,,,,,,,,,,,,,,,,,,,,,,,,,,,,,,,,,,,,,,,,,,,,,,,,,,,,,,,,,,,,,,,,,,,,,,right,1,0.6037,,,,,,magnitude,1,2,1 | 2,1,0.05,0.065,congruent,right,0,40,40,0,1,,,,,,,,,,,,,,,,,,,,,,,,,,,,,,,,,,,,,,,,,,,,,,,,,,,,,,,,,,,,,,,,,,,,,,,,,,,,,,,,,,,
,8833,BAC,12/08/2004,001,2023-09-29_13h56.11.418,OS3_Mult_verification,2022.2.4,Win32,59.90176111,,,,,,,,,,,,,,,,,,,,,,,,,,,,,,,,,,,,,,,,,,,,,,,,,,,,,,,,,,,,,,,,,,,,,,right,1,0.6917,,,,,,magnitude,6,8,6 | 8,2,0.06,0.06,neutral,right,0,41,41,58,1,,,,,,,,,,,,,,,,,,,,,,,,,,,,,,,,,,,,,,,,,,,,,,,,,,,,,,,,,,,,,,,,,,,,,,,,,,,,,,,,,,,
,8833,BAC,12/08/2004,001,2023-09-29_13h56.11.418,OS3_Mult_verification,2022.2.4,Win32,59.90176111,,,,,,,,,,,,,,,,,,,,,,,,,,,,,,,,,,,,,,,,,,,,,,,,,,,,,,,,,,,,,,,,,,,,,,left,1,0.64,,,,,,magnitude,9,4,9 | 4,5,0.05,0.065,incongruent,left,0,42,42,47,1,,,,,,,,,,,,,,,,,,,,,,,,,,,,,,,,,,,,,,,,,,,,,,,,,,,,,,,,,,,,,,,,,,,,,,,,,,,,,,,,,,,
,8833,BAC,12/08/2004,001,2023-09-29_13h56.11.418,OS3_Mult_verification,2022.2.4,Win32,59.90176111,,,,,,,,,,,,,,,,,,,,,,,,,,,,,,,,,,,,,,,,,,,,,,,,,,,,,,,,,,,,,,,,,,,,,,left,1,0.5501,,,,,,magnitude,9,4,9 | 4,5,0.065,0.05,congruent,left,0,43,43,23,1,,,,,,,,,,,,,,,,,,,,,,,,,,,,,,,,,,,,,,,,,,,,,,,,,,,,,,,,,,,,,,,,,,,,,,,,,,,,,,,,,,,
,8833,BAC,12/08/2004,001,2023-09-29_13h56.11.418,OS3_Mult_verification,2022.2.4,Win32,59.90176111,,,,,,,,,,,,,,,,,,,,,,,,,,,,,,,,,,,,,,,,,,,,,,,,,,,,,,,,,,,,,,,,,,,,,,right,1,0.716,,,,,,magnitude,1,2,1 | 2,1,0.065,0.05,incongruent,right,0,44,44,24,1,,,,,,,,,,,,,,,,,,,,,,,,,,,,,,,,,,,,,,,,,,,,,,,,,,,,,,,,,,,,,,,,,,,,,,,,,,,,,,,,,,,
,8833,BAC,12/08/2004,001,2023-09-29_13h56.11.418,OS3_Mult_verification,2022.2.4,Win32,59.90176111,,,,,,,,,,,,,,,,,,,,,,,,,,,,,,,,,,,,,,,,,,,,,,,,,,,,,,,,,,,,,,,,,,,,,,right,1,0.8343,,,,,,magnitude,1,3,1 | 3,2,0.065,0.05,incongruent,right,0,45,45,32,1,,,,,,,,,,,,,,,,,,,,,,,,,,,,,,,,,,,,,,,,,,,,,,,,,,,,,,,,,,,,,,,,,,,,,,,,,,,,,,,,,,,
,8833,BAC,12/08/2004,001,2023-09-29_13h56.11.418,OS3_Mult_verification,2022.2.4,Win32,59.90176111,,,,,,,,,,,,,,,,,,,,,,,,,,,,,,,,,,,,,,,,,,,,,,,,,,,,,,,,,,,,,,,,,,,,,,left,1,0.7791,,,,,,magnitude,9,8,9 | 8,1,0.06,0.06,neutral,left,0,46,46,55,1,,,,,,,,,,,,,,,,,,,,,,,,,,,,,,,,,,,,,,,,,,,,,,,,,,,,,,,,,,,,,,,,,,,,,,,,,,,,,,,,,,,
,8833,BAC,12/08/2004,001,2023-09-29_13h56.11.418,OS3_Mult_verification,2022.2.4,Win32,59.90176111,,,,,,,,,,,,,,,,,,,,,,,,,,,,,,,,,,,,,,,,,,,,,,,,,,,,,,,,,,,,,,,,,,,,,,left,1,0.9105,,,,,,magnitude,9,4,9 | 4,5,0.06,0.06,neutral,left,0,47,47,71,1,,,,,,,,,,,,,,,,,,,,,,,,,,,,,,,,,,,,,,,,,,,,,,,,,,,,,,,,,,,,,,,,,,,,,,,,,,,,,,,,,,,
,8833,BAC,12/08/2004,001,2023-09-29_13h56.11.418,OS3_Mult_verification,2022.2.4,Win32,59.90176111,,,,,,,,,,,,,,,,,,,,,,,,,,,,,,,,,,,,,,,,,,,,,,,,,,,,,,,,,,,,,,,,,,,,,,right,1,0.6286,,,,,,magnitude,7,9,7 | 9,2,0.065,0.05,incongruent,right,0,48,48,35,1,,,,,,,,,,,,,,,,,,,,,,,,,,,,,,,,,,,,,,,,,,,,,,,,,,,,,,,,,,,,,,,,,,,,,,,,,,,,,,,,,,,
,8833,BAC,12/08/2004,001,2023-09-29_13h56.11.418,OS3_Mult_verification,2022.2.4,Win32,59.90176111,,,,,,,,,,,,,,,,,,,,,,,,,,,,,,,,,,,,,,,,,,,,,,,,,,,,,,,,,,,,,,,,,,,,,,right,1,0.8254,,,,,,magnitude,6,7,6 | 7,1,0.06,0.06,neutral,right,0,49,49,50,1,,,,,,,,,,,,,,,,,,,,,,,,,,,,,,,,,,,,,,,,,,,,,,,,,,,,,,,,,,,,,,,,,,,,,,,,,,,,,,,,,,,
,8833,BAC,12/08/2004,001,2023-09-29_13h56.11.418,OS3_Mult_verification,2022.2.4,Win32,59.90176111,,,,,,,,,,,,,,,,,,,,,,,,,,,,,,,,,,,,,,,,,,,,,,,,,,,,,,,,,,,,,,,,,,,,,,left,1,0.7133,,,,,,magnitude,8,6,8 | 6,2,0.065,0.05,congruent,left,0,50,50,14,1,,,,,,,,,,,,,,,,,,,,,,,,,,,,,,,,,,,,,,,,,,,,,,,,,,,,,,,,,,,,,,,,,,,,,,,,,,,,,,,,,,,
,8833,BAC,12/08/2004,001,2023-09-29_13h56.11.418,OS3_Mult_verification,2022.2.4,Win32,59.90176111,,,,,,,,,,,,,,,,,,,,,,,,,,,,,,,,,,,,,,,,,,,,,,,,,,,,,,,,,,,,,,,,,,,,,,right,1,0.5856,,,,,,magnitude,1,6,1 | 6,5,0.05,0.065,congruent,right,0,51,51,16,1,,,,,,,,,,,,,,,,,,,,,,,,,,,,,,,,,,,,,,,,,,,,,,,,,,,,,,,,,,,,,,,,,,,,,,,,,,,,,,,,,,,
,8833,BAC,12/08/2004,001,2023-09-29_13h56.11.418,OS3_Mult_verification,2022.2.4,Win32,59.90176111,,,,,,,,,,,,,,,,,,,,,,,,,,,,,,,,,,,,,,,,,,,,,,,,,,,,,,,,,,,,,,,,,,,,,,left,1,0.7615,,,,,,magnitude,9,8,9 | 8,1,0.05,0.065,incongruent,left,0,52,52,31,1,,,,,,,,,,,,,,,,,,,,,,,,,,,,,,,,,,,,,,,,,,,,,,,,,,,,,,,,,,,,,,,,,,,,,,,,,,,,,,,,,,,
,8833,BAC,12/08/2004,001,2023-09-29_13h56.11.418,OS3_Mult_verification,2022.2.4,Win32,59.90176111,,,,,,,,,,,,,,,,,,,,,,,,,,,,,,,,,,,,,,,,,,,,,,,,,,,,,,,,,,,,,,,,,,,,,,right,1,0.7499,,,,,,magnitude,3,8,3 | 8,5,0.05,0.065,congruent,right,0,53,53,18,1,,,,,,,,,,,,,,,,,,,,,,,,,,,,,,,,,,,,,,,,,,,,,,,,,,,,,,,,,,,,,,,,,,,,,,,,,,,,,,,,,,,
,8833,BAC,12/08/2004,001,2023-09-29_13h56.11.418,OS3_Mult_verification,2022.2.4,Win32,59.90176111,,,,,,,,,,,,,,,,,,,,,,,,,,,,,,,,,,,,,,,,,,,,,,,,,,,,,,,,,,,,,,,,,,,,,,left,1,0.7364,,,,,,magnitude,4,3,4 | 3,1,0.065,0.05,congruent,left,0,54,54,5,1,,,,,,,,,,,,,,,,,,,,,,,,,,,,,,,,,,,,,,,,,,,,,,,,,,,,,,,,,,,,,,,,,,,,,,,,,,,,,,,,,,,
,8833,BAC,12/08/2004,001,2023-09-29_13h56.11.418,OS3_Mult_verification,2022.2.4,Win32,59.90176111,,,,,,,,,,,,,,,,,,,,,,,,,,,,,,,,,,,,,,,,,,,,,,,,,,,,,,,,,,,,,,,,,,,,,,right,0,0.5862,,,,,,magnitude,4,2,4 | 2,2,0.05,0.065,incongruent,left,0,55,55,37,1,,,,,,,,,,,,,,,,,,,,,,,,,,,,,,,,,,,,,,,,,,,,,,,,,,,,,,,,,,,,,,,,,,,,,,,,,,,,,,,,,,,
,8833,BAC,12/08/2004,001,2023-09-29_13h56.11.418,OS3_Mult_verification,2022.2.4,Win32,59.90176111,,,,,,,,,,,,,,,,,,,,,,,,,,,,,,,,,,,,,,,,,,,,,,,,,,,,,,,,,,,,,,,,,,,,,,right,1,0.8636,,,,,,magnitude,2,7,2 | 7,5,0.05,0.065,congruent,right,0,56,56,17,1,,,,,,,,,,,,,,,,,,,,,,,,,,,,,,,,,,,,,,,,,,,,,,,,,,,,,,,,,,,,,,,,,,,,,,,,,,,,,,,,,,,
,8833,BAC,12/08/2004,001,2023-09-29_13h56.11.418,OS3_Mult_verification,2022.2.4,Win32,59.90176111,,,,,,,,,,,,,,,,,,,,,,,,,,,,,,,,,,,,,,,,,,,,,,,,,,,,,,,,,,,,,,,,,,,,,,right,1,0.7991,,,,,,magnitude,8,9,8 | 9,1,0.05,0.065,congruent,right,0,57,57,3,1,,,,,,,,,,,,,,,,,,,,,,,,,,,,,,,,,,,,,,,,,,,,,,,,,,,,,,,,,,,,,,,,,,,,,,,,,,,,,,,,,,,
,8833,BAC,12/08/2004,001,2023-09-29_13h56.11.418,OS3_Mult_verification,2022.2.4,Win32,59.90176111,,,,,,,,,,,,,,,,,,,,,,,,,,,,,,,,,,,,,,,,,,,,,,,,,,,,,,,,,,,,,,,,,,,,,,left,1,0.6103,,,,,,magnitude,4,2,4 | 2,2,0.06,0.06,neutral,left,0,58,58,61,1,,,,,,,,,,,,,,,,,,,,,,,,,,,,,,,,,,,,,,,,,,,,,,,,,,,,,,,,,,,,,,,,,,,,,,,,,,,,,,,,,,,
,8833,BAC,12/08/2004,001,2023-09-29_13h56.11.418,OS3_Mult_verification,2022.2.4,Win32,59.90176111,,,,,,,,,,,,,,,,,,,,,,,,,,,,,,,,,,,,,,,,,,,,,,,,,,,,,,,,,,,,,,,,,,,,,,left,1,0.6168,,,,,,magnitude,4,3,4 | 3,1,0.06,0.06,neutral,left,0,59,59,53,1,,,,,,,,,,,,,,,,,,,,,,,,,,,,,,,,,,,,,,,,,,,,,,,,,,,,,,,,,,,,,,,,,,,,,,,,,,,,,,,,,,,
,8833,BAC,12/08/2004,001,2023-09-29_13h56.11.418,OS3_Mult_verification,2022.2.4,Win32,59.90176111,,,,,,,,,,,,,,,,,,,,,,,,,,,,,,,,,,,,,,,,,,,,,,,,,,,,,,,,,,,,,,,,,,,,,,right,1,0.9004,,,,,,magnitude,7,9,7 | 9,2,0.05,0.065,congruent,right,0,60,60,11,1,,,,,,,,,,,,,,,,,,,,,,,,,,,,,,,,,,,,,,,,,,,,,,,,,,,,,,,,,,,,,,,,,,,,,,,,,,,,,,,,,,,
,8833,BAC,12/08/2004,001,2023-09-29_13h56.11.418,OS3_Mult_verification,2022.2.4,Win32,59.90176111,,,,,,,,,,,,,,,,,,,,,,,,,,,,,,,,,,,,,,,,,,,,,,,,,,,,,,,,,,,,,,,,,,,,,,left,1,0.6504,,,,,,magnitude,8,3,8 | 3,5,0.05,0.065,incongruent,left,0,61,61,46,1,,,,,,,,,,,,,,,,,,,,,,,,,,,,,,,,,,,,,,,,,,,,,,,,,,,,,,,,,,,,,,,,,,,,,,,,,,,,,,,,,,,
,8833,BAC,12/08/2004,001,2023-09-29_13h56.11.418,OS3_Mult_verification,2022.2.4,Win32,59.90176111,,,,,,,,,,,,,,,,,,,,,,,,,,,,,,,,,,,,,,,,,,,,,,,,,,,,,,,,,,,,,,,,,,,,,,right,1,0.6556,,,,,,magnitude,2,4,2 | 4,2,0.06,0.06,neutral,right,0,62,62,57,1,,,,,,,,,,,,,,,,,,,,,,,,,,,,,,,,,,,,,,,,,,,,,,,,,,,,,,,,,,,,,,,,,,,,,,,,,,,,,,,,,,,
,8833,BAC,12/08/2004,001,2023-09-29_13h56.11.418,OS3_Mult_verification,2022.2.4,Win32,59.90176111,,,,,,,,,,,,,,,,,,,,,,,,,,,,,,,,,,,,,,,,,,,,,,,,,,,,,,,,,,,,,,,,,,,,,,left,0,0.684,,,,,,magnitude,1,2,1 | 2,1,0.06,0.06,neutral,right,0,63,63,48,1,,,,,,,,,,,,,,,,,,,,,,,,,,,,,,,,,,,,,,,,,,,,,,,,,,,,,,,,,,,,,,,,,,,,,,,,,,,,,,,,,,,
,8833,BAC,12/08/2004,001,2023-09-29_13h56.11.418,OS3_Mult_verification,2022.2.4,Win32,59.90176111,,,,,,,,,,,,,,,,,,,,,,,,,,,,,,,,,,,,,,,,,,,,,,,,,,,,,,,,,,,,,,,,,,,,,,right,1,0.8529,,,,,,magnitude,1,6,1 | 6,5,0.06,0.06,neutral,right,0,64,64,64,1,,,,,,,,,,,,,,,,,,,,,,,,,,,,,,,,,,,,,,,,,,,,,,,,,,,,,,,,,,,,,,,,,,,,,,,,,,,,,,,,,,,
,8833,BAC,12/08/2004,001,2023-09-29_13h56.11.418,OS3_Mult_verification,2022.2.4,Win32,59.90176111,,,,,,,,,,,,,,,,,,,,,,,,,,,,,,,,,,,,,,,,,,,,,,,,,,,,,,,,,,,,,,,,,,,,,,right,1,0.7181,,,,,,magnitude,1,3,1 | 3,2,0.06,0.06,neutral,right,0,65,65,56,1,,,,,,,,,,,,,,,,,,,,,,,,,,,,,,,,,,,,,,,,,,,,,,,,,,,,,,,,,,,,,,,,,,,,,,,,,,,,,,,,,,,
,8833,BAC,12/08/2004,001,2023-09-29_13h56.11.418,OS3_Mult_verification,2022.2.4,Win32,59.90176111,,,,,,,,,,,,,,,,,,,,,,,,,,,,,,,,,,,,,,,,,,,,,,,,,,,,,,,,,,,,,,,,,,,,,,left,1,0.7861,,,,,,magnitude,7,6,7 | 6,1,0.05,0.065,incongruent,left,0,66,66,30,1,,,,,,,,,,,,,,,,,,,,,,,,,,,,,,,,,,,,,,,,,,,,,,,,,,,,,,,,,,,,,,,,,,,,,,,,,,,,,,,,,,,
,8833,BAC,12/08/2004,001,2023-09-29_13h56.11.418,OS3_Mult_verification,2022.2.4,Win32,59.90176111,,,,,,,,,,,,,,,,,,,,,,,,,,,,,,,,,,,,,,,,,,,,,,,,,,,,,,,,,,,,,,,,,,,,,,right,1,0.6073,,,,,,magnitude,1,3,1 | 3,2,0.05,0.065,congruent,right,0,67,67,8,1,,,,,,,,,,,,,,,,,,,,,,,,,,,,,,,,,,,,,,,,,,,,,,,,,,,,,,,,,,,,,,,,,,,,,,,,,,,,,,,,,,,
,8833,BAC,12/08/2004,001,2023-09-29_13h56.11.418,OS3_Mult_verification,2022.2.4,Win32,59.90176111,,,,,,,,,,,,,,,,,,,,,,,,,,,,,,,,,,,,,,,,,,,,,,,,,,,,,,,,,,,,,,,,,,,,,,left,1,0.6646,,,,,,magnitude,6,1,6 | 1,5,0.05,0.065,incongruent,left,0,68,68,44,1,,,,,,,,,,,,,,,,,,,,,,,,,,,,,,,,,,,,,,,,,,,,,,,,,,,,,,,,,,,,,,,,,,,,,,,,,,,,,,,,,,,
,8833,BAC,12/08/2004,001,2023-09-29_13h56.11.418,OS3_Mult_verification,2022.2.4,Win32,59.90176111,,,,,,,,,,,,,,,,,,,,,,,,,,,,,,,,,,,,,,,,,,,,,,,,,,,,,,,,,,,,,,,,,,,,,,right,1,0.6381,,,,,,magnitude,4,9,4 | 9,5,0.05,0.065,congruent,right,0,69,69,19,1,,,,,,,,,,,,,,,,,,,,,,,,,,,,,,,,,,,,,,,,,,,,,,,,,,,,,,,,,,,,,,,,,,,,,,,,,,,,,,,,,,,
,8833,BAC,12/08/2004,001,2023-09-29_13h56.11.418,OS3_Mult_verification,2022.2.4,Win32,59.90176111,,,,,,,,,,,,,,,,,,,,,,,,,,,,,,,,,,,,,,,,,,,,,,,,,,,,,,,,,,,,,,,,,,,,,,left,1,0.7279,,,,,,magnitude,7,2,7 | 2,5,0.05,0.065,incongruent,left,0,70,70,45,1,,,,,,,,,,,,,,,,,,,,,,,,,,,,,,,,,,,,,,,,,,,,,,,,,,,,,,,,,,,,,,,,,,,,,,,,,,,,,,,,,,,
,8833,BAC,12/08/2004,001,2023-09-29_13h56.11.418,OS3_Mult_verification,2022.2.4,Win32,59.90176111,,,,,,,,,,,,,,,,,,,,,,,,,,,,,,,,,,,,,,,,,,,,,,,,,,,,,,,,,,,,,,,,,,,,,,right,1,0.5581,,,,,,magnitude,6,8,6 | 8,2,0.05,0.065,congruent,right,0,71,71,10,1,,,,,,,,,,,,,,,,,,,,,,,,,,,,,,,,,,,,,,,,,,,,,,,,,,,,,,,,,,,,,,,,,,,,,,,,,,,,,,,,,,,
,8833,BAC,12/08/2004,001,2023-09-29_13h56.11.418,OS3_Mult_verification,2022.2.4,Win32,59.90176111,,,,,,,,,,,,,,,,,,,,,,,,,,,,,,,,,,,,,,,,,,,,,,,,,,,,,,,,,,,,,,,,,,,,,,,,,,,,,,,,,,,,,,,,,,,,0,0,0,0,1,stroop_stim/magnitude.xlsx,stroop_stim/prac_magnitude.xlsx,NUMERICALLY larger (larger coefficient).,images/numericallyLarger.png,,,,,,,,,,,,,,,,,,,,,,,,,,,,,,,,,,,,,,,,,,,,,,,,,,,,,,,,,,,,,,,,,,,,,,,,,,
,8833,BAC,12/08/2004,001,2023-09-29_13h56.11.418,OS3_Mult_verification,2022.2.4,Win32,59.90176111,,,,,,,,,,,,,,,,space,1.3308,,,,,,,,,,,,,,,,,,,,,,,,,,,,,,,,,,,,,,,,,,,,,,,,,,,,,right,1,0.7436,0,0,0,1,1,practice,4,3,4 | 3,1,0.05,0.065,incongruent,right,,,,,,,,,,,,,,,,,,,,,,,,,,,,,,,,,,,,,,,,,,,,,,,,,,,,,,,,,,,,,,,,,,,,,,,,,,,,,,,,,,,,,,,,
,8833,BAC,12/08/2004,001,2023-09-29_13h56.11.418,OS3_Mult_verification,2022.2.4,Win32,59.90176111,,,,,,,,,,,,,,,,,,,,,,,,,,,,,,,,,,,,,,,,,,,,,,,,,,,,,,,,,,,,,,,,,,,,,,right,1,0.6414,0,1,1,2,1,practice,9,9,9 | 9,0,0.05,0.065,neutral,right,,,,,,,,,,,,,,,,,,,,,,,,,,,,,,,,,,,,,,,,,,,,,,,,,,,,,,,,,,,,,,,,,,,,,,,,,,,,,,,,,,,,,,,,
,8833,BAC,12/08/2004,001,2023-09-29_13h56.11.418,OS3_Mult_verification,2022.2.4,Win32,59.90176111,,,,,,,,,,,,,,,,,,,,,,,,,,,,,,,,,,,,,,,,,,,,,,,,,,,,,,,,,,,,,,,,,,,,,,left,1,0.6125,0,2,2,0,1,practice,9,8,9 | 8,1,0.065,0.05,congruent,left,,,,,,,,,,,,,,,,,,,,,,,,,,,,,,,,,,,,,,,,,,,,,,,,,,,,,,,,,,,,,,,,,,,,,,,,,,,,,,,,,,,,,,,,
,8833,BAC,12/08/2004,001,2023-09-29_13h56.11.418,OS3_Mult_verification,2022.2.4,Win32,59.90176111,,,,,,,,,,,,,,,,,,,,,,,,,,,,,,,,,,,,,,,,,,,,,,,,,,,,,,,,,,,,,,,,,,,,,,left,1,0.5508,,,,,,physical,6,1,6 | 1,5,0.065,0.05,congruent,left,0,0,0,20,1,,,,,,,,,,,,,,,,,,,,,,,,,,,,,,,,,,,,,,,,,,,,,,,,,,,,,,,,,,,,,,,,,,,,,,,,,,,,,,,,,,,
,8833,BAC,12/08/2004,001,2023-09-29_13h56.11.418,OS3_Mult_verification,2022.2.4,Win32,59.90176111,,,,,,,,,,,,,,,,,,,,,,,,,,,,,,,,,,,,,,,,,,,,,,,,,,,,,,,,,,,,,,,,,,,,,,left,1,0.555,,,,,,physical,4,9,4 | 9,5,0.065,0.05,incongruent,left,0,1,1,43,1,,,,,,,,,,,,,,,,,,,,,,,,,,,,,,,,,,,,,,,,,,,,,,,,,,,,,,,,,,,,,,,,,,,,,,,,,,,,,,,,,,,
,8833,BAC,12/08/2004,001,2023-09-29_13h56.11.418,OS3_Mult_verification,2022.2.4,Win32,59.90176111,,,,,,,,,,,,,,,,,,,,,,,,,,,,,,,,,,,,,,,,,,,,,,,,,,,,,,,,,,,,,,,,,,,,,,right,1,0.5171,,,,,,physical,4,3,4 | 3,1,0.05,0.065,incongruent,right,0,2,2,29,1,,,,,,,,,,,,,,,,,,,,,,,,,,,,,,,,,,,,,,,,,,,,,,,,,,,,,,,,,,,,,,,,,,,,,,,,,,,,,,,,,,,
,8833,BAC,12/08/2004,001,2023-09-29_13h56.11.418,OS3_Mult_verification,2022.2.4,Win32,59.90176111,,,,,,,,,,,,,,,,,,,,,,,,,,,,,,,,,,,,,,,,,,,,,,,,,,,,,,,,,,,,,,,,,,,,,,right,1,0.5613,,,,,,physical,7,7,7 | 7,0,0.05,0.065,neutral,right,0,3,3,59,1,,,,,,,,,,,,,,,,,,,,,,,,,,,,,,,,,,,,,,,,,,,,,,,,,,,,,,,,,,,,,,,,,,,,,,,,,,,,,,,,,,,
,8833,BAC,12/08/2004,001,2023-09-29_13h56.11.418,OS3_Mult_verification,2022.2.4,Win32,59.90176111,,,,,,,,,,,,,,,,,,,,,,,,,,,,,,,,,,,,,,,,,,,,,,,,,,,,,,,,,,,,,,,,,,,,,,right,1,0.5426,,,,,,physical,9,9,9 | 9,0,0.05,0.065,neutral,right,0,4,4,71,1,,,,,,,,,,,,,,,,,,,,,,,,,,,,,,,,,,,,,,,,,,,,,,,,,,,,,,,,,,,,,,,,,,,,,,,,,,,,,,,,,,,
,8833,BAC,12/08/2004,001,2023-09-29_13h56.11.418,OS3_Mult_verification,2022.2.4,Win32,59.90176111,,,,,,,,,,,,,,,,,,,,,,,,,,,,,,,,,,,,,,,,,,,,,,,,,,,,,,,,,,,,,,,,,,,,,,left,1,0.5258,,,,,,physical,4,4,4 | 4,0,0.065,0.05,neutral,left,0,5,5,53,1,,,,,,,,,,,,,,,,,,,,,,,,,,,,,,,,,,,,,,,,,,,,,,,,,,,,,,,,,,,,,,,,,,,,,,,,,,,,,,,,,,,
,8833,BAC,12/08/2004,001,2023-09-29_13h56.11.418,OS3_Mult_verification,2022.2.4,Win32,59.90176111,,,,,,,,,,,,,,,,,,,,,,,,,,,,,,,,,,,,,,,,,,,,,,,,,,,,,,,,,,,,,,,,,,,,,,left,1,0.5337,,,,,,physical,3,3,3 | 3,0,0.065,0.05,neutral,left,0,6,6,49,1,,,,,,,,,,,,,,,,,,,,,,,,,,,,,,,,,,,,,,,,,,,,,,,,,,,,,,,,,,,,,,,,,,,,,,,,,,,,,,,,,,,
,8833,BAC,12/08/2004,001,2023-09-29_13h56.11.418,OS3_Mult_verification,2022.2.4,Win32,59.90176111,,,,,,,,,,,,,,,,,,,,,,,,,,,,,,,,,,,,,,,,,,,,,,,,,,,,,,,,,,,,,,,,,,,,,,right,1,0.5129,,,,,,physical,8,3,8 | 3,5,0.05,0.065,incongruent,right,0,7,7,46,1,,,,,,,,,,,,,,,,,,,,,,,,,,,,,,,,,,,,,,,,,,,,,,,,,,,,,,,,,,,,,,,,,,,,,,,,,,,,,,,,,,,
,8833,BAC,12/08/2004,001,2023-09-29_13h56.11.418,OS3_Mult_verification,2022.2.4,Win32,59.90176111,,,,,,,,,,,,,,,,,,,,,,,,,,,,,,,,,,,,,,,,,,,,,,,,,,,,,,,,,,,,,,,,,,,,,,left,1,0.5002,,,,,,physical,1,1,1 | 1,0,0.065,0.05,neutral,left,0,8,8,48,1,,,,,,,,,,,,,,,,,,,,,,,,,,,,,,,,,,,,,,,,,,,,,,,,,,,,,,,,,,,,,,,,,,,,,,,,,,,,,,,,,,,
,8833,BAC,12/08/2004,001,2023-09-29_13h56.11.418,OS3_Mult_verification,2022.2.4,Win32,59.90176111,,,,,,,,,,,,,,,,,,,,,,,,,,,,,,,,,,,,,,,,,,,,,,,,,,,,,,,,,,,,,,,,,,,,,,left,1,0.5187,,,,,,physical,8,6,8 | 6,2,0.065,0.05,congruent,left,0,9,9,14,1,,,,,,,,,,,,,,,,,,,,,,,,,,,,,,,,,,,,,,,,,,,,,,,,,,,,,,,,,,,,,,,,,,,,,,,,,,,,,,,,,,,
,8833,BAC,12/08/2004,001,2023-09-29_13h56.11.418,OS3_Mult_verification,2022.2.4,Win32,59.90176111,,,,,,,,,,,,,,,,,,,,,,,,,,,,,,,,,,,,,,,,,,,,,,,,,,,,,,,,,,,,,,,,,,,,,,left,1,0.4667,,,,,,physical,2,7,2 | 7,5,0.065,0.05,incongruent,left,0,10,10,41,1,,,,,,,,,,,,,,,,,,,,,,,,,,,,,,,,,,,,,,,,,,,,,,,,,,,,,,,,,,,,,,,,,,,,,,,,,,,,,,,,,,,
,8833,BAC,12/08/2004,001,2023-09-29_13h56.11.418,OS3_Mult_verification,2022.2.4,Win32,59.90176111,,,,,,,,,,,,,,,,,,,,,,,,,,,,,,,,,,,,,,,,,,,,,,,,,,,,,,,,,,,,,,,,,,,,,,left,1,0.6335,,,,,,physical,7,6,7 | 6,1,0.065,0.05,congruent,left,0,11,11,6,1,,,,,,,,,,,,,,,,,,,,,,,,,,,,,,,,,,,,,,,,,,,,,,,,,,,,,,,,,,,,,,,,,,,,,,,,,,,,,,,,,,,
,8833,BAC,12/08/2004,001,2023-09-29_13h56.11.418,OS3_Mult_verification,2022.2.4,Win32,59.90176111,,,,,,,,,,,,,,,,,,,,,,,,,,,,,,,,,,,,,,,,,,,,,,,,,,,,,,,,,,,,,,,,,,,,,,right,1,0.5108,,,,,,physical,2,2,2 | 2,0,0.05,0.065,neutral,right,0,12,12,57,1,,,,,,,,,,,,,,,,,,,,,,,,,,,,,,,,,,,,,,,,,,,,,,,,,,,,,,,,,,,,,,,,,,,,,,,,,,,,,,,,,,,
,8833,BAC,12/08/2004,001,2023-09-29_13h56.11.418,OS3_Mult_verification,2022.2.4,Win32,59.90176111,,,,,,,,,,,,,,,,,,,,,,,,,,,,,,,,,,,,,,,,,,,,,,,,,,,,,,,,,,,,,,,,,,,,,,left,1,0.5175,,,,,,physical,9,8,9 | 8,1,0.065,0.05,congruent,left,0,13,13,7,1,,,,,,,,,,,,,,,,,,,,,,,,,,,,,,,,,,,,,,,,,,,,,,,,,,,,,,,,,,,,,,,,,,,,,,,,,,,,,,,,,,,
,8833,BAC,12/08/2004,001,2023-09-29_13h56.11.418,OS3_Mult_verification,2022.2.4,Win32,59.90176111,,,,,,,,,,,,,,,,,,,,,,,,,,,,,,,,,,,,,,,,,,,,,,,,,,,,,,,,,,,,,,,,,,,,,,left,1,0.5106,,,,,,physical,8,3,8 | 3,5,0.065,0.05,congruent,left,0,14,14,22,1,,,,,,,,,,,,,,,,,,,,,,,,,,,,,,,,,,,,,,,,,,,,,,,,,,,,,,,,,,,,,,,,,,,,,,,,,,,,,,,,,,,
,8833,BAC,12/08/2004,001,2023-09-29_13h56.11.418,OS3_Mult_verification,2022.2.4,Win32,59.90176111,,,,,,,,,,,,,,,,,,,,,,,,,,,,,,,,,,,,,,,,,,,,,,,,,,,,,,,,,,,,,,,,,,,,,,right,1,0.633,,,,,,physical,7,6,7 | 6,1,0.05,0.065,incongruent,right,0,15,15,30,1,,,,,,,,,,,,,,,,,,,,,,,,,,,,,,,,,,,,,,,,,,,,,,,,,,,,,,,,,,,,,,,,,,,,,,,,,,,,,,,,,,,
,8833,BAC,12/08/2004,001,2023-09-29_13h56.11.418,OS3_Mult_verification,2022.2.4,Win32,59.90176111,,,,,,,,,,,,,,,,,,,,,,,,,,,,,,,,,,,,,,,,,,,,,,,,,,,,,,,,,,,,,,,,,,,,,,left,1,0.5245,,,,,,physical,1,1,1 | 1,0,0.065,0.05,neutral,left,0,16,16,64,1,,,,,,,,,,,,,,,,,,,,,,,,,,,,,,,,,,,,,,,,,,,,,,,,,,,,,,,,,,,,,,,,,,,,,,,,,,,,,,,,,,,
,8833,BAC,12/08/2004,001,2023-09-29_13h56.11.418,OS3_Mult_verification,2022.2.4,Win32,59.90176111,,,,,,,,,,,,,,,,,,,,,,,,,,,,,,,,,,,,,,,,,,,,,,,,,,,,,,,,,,,,,,,,,,,,,,left,1,0.6568,,,,,,physical,6,6,6 | 6,0,0.065,0.05,neutral,left,0,17,17,50,1,,,,,,,,,,,,,,,,,,,,,,,,,,,,,,,,,,,,,,,,,,,,,,,,,,,,,,,,,,,,,,,,,,,,,,,,,,,,,,,,,,,
,8833,BAC,12/08/2004,001,2023-09-29_13h56.11.418,OS3_Mult_verification,2022.2.4,Win32,59.90176111,,,,,,,,,,,,,,,,,,,,,,,,,,,,,,,,,,,,,,,,,,,,,,,,,,,,,,,,,,,,,,,,,,,,,,left,1,0.5147,,,,,,physical,3,3,3 | 3,0,0.065,0.05,neutral,left,0,18,18,66,1,,,,,,,,,,,,,,,,,,,,,,,,,,,,,,,,,,,,,,,,,,,,,,,,,,,,,,,,,,,,,,,,,,,,,,,,,,,,,,,,,,,
,8833,BAC,12/08/2004,001,2023-09-29_13h56.11.418,OS3_Mult_verification,2022.2.4,Win32,59.90176111,,,,,,,,,,,,,,,,,,,,,,,,,,,,,,,,,,,,,,,,,,,,,,,,,,,,,,,,,,,,,,,,,,,,,,left,1,0.6007,,,,,,physical,3,8,3 | 8,5,0.065,0.05,incongruent,left,0,19,19,42,1,,,,,,,,,,,,,,,,,,,,,,,,,,,,,,,,,,,,,,,,,,,,,,,,,,,,,,,,,,,,,,,,,,,,,,,,,,,,,,,,,,,
,8833,BAC,12/08/2004,001,2023-09-29_13h56.11.418,OS3_Mult_verification,2022.2.4,Win32,59.90176111,,,,,,,,,,,,,,,,,,,,,,,,,,,,,,,,,,,,,,,,,,,,,,,,,,,,,,,,,,,,,,,,,,,,,,right,1,0.5176,,,,,,physical,1,6,1 | 6,5,0.05,0.065,congruent,right,0,20,20,16,1,,,,,,,,,,,,,,,,,,,,,,,,,,,,,,,,,,,,,,,,,,,,,,,,,,,,,,,,,,,,,,,,,,,,,,,,,,,,,,,,,,,
,8833,BAC,12/08/2004,001,2023-09-29_13h56.11.418,OS3_Mult_verification,2022.2.4,Win32,59.90176111,,,,,,,,,,,,,,,,,,,,,,,,,,,,,,,,,,,,,,,,,,,,,,,,,,,,,,,,,,,,,,,,,,,,,,left,1,0.5149,,,,,,physical,8,9,8 | 9,1,0.065,0.05,incongruent,left,0,21,21,27,1,,,,,,,,,,,,,,,,,,,,,,,,,,,,,,,,,,,,,,,,,,,,,,,,,,,,,,,,,,,,,,,,,,,,,,,,,,,,,,,,,,,
,8833,BAC,12/08/2004,001,2023-09-29_13h56.11.418,OS3_Mult_verification,2022.2.4,Win32,59.90176111,,,,,,,,,,,,,,,,,,,,,,,,,,,,,,,,,,,,,,,,,,,,,,,,,,,,,,,,,,,,,,,,,,,,,,left,1,0.4859,,,,,,physical,6,7,6 | 7,1,0.065,0.05,incongruent,left,0,22,22,26,1,,,,,,,,,,,,,,,,,,,,,,,,,,,,,,,,,,,,,,,,,,,,,,,,,,,,,,,,,,,,,,,,,,,,,,,,,,,,,,,,,,,
,8833,BAC,12/08/2004,001,2023-09-29_13h56.11.418,OS3_Mult_verification,2022.2.4,Win32,59.90176111,,,,,,,,,,,,,,,,,,,,,,,,,,,,,,,,,,,,,,,,,,,,,,,,,,,,,,,,,,,,,,,,,,,,,,right,1,0.5334,,,,,,physical,7,2,7 | 2,5,0.05,0.065,incongruent,right,0,23,23,45,1,,,,,,,,,,,,,,,,,,,,,,,,,,,,,,,,,,,,,,,,,,,,,,,,,,,,,,,,,,,,,,,,,,,,,,,,,,,,,,,,,,,
,8833,BAC,12/08/2004,001,2023-09-29_13h56.11.418,OS3_Mult_verification,2022.2.4,Win32,59.90176111,,,,,,,,,,,,,,,,,,,,,,,,,,,,,,,,,,,,,,,,,,,,,,,,,,,,,,,,,,,,,,,,,,,,,,right,1,0.5252,,,,,,physical,1,3,1 | 3,2,0.05,0.065,congruent,right,0,24,24,8,1,,,,,,,,,,,,,,,,,,,,,,,,,,,,,,,,,,,,,,,,,,,,,,,,,,,,,,,,,,,,,,,,,,,,,,,,,,,,,,,,,,,
,8833,BAC,12/08/2004,001,2023-09-29_13h56.11.418,OS3_Mult_verification,2022.2.4,Win32,59.90176111,,,,,,,,,,,,,,,,,,,,,,,,,,,,,,,,,,,,,,,,,,,,,,,,,,,,,,,,,,,,,,,,,,,,,,right,1,0.5498,,,,,,physical,6,6,6 | 6,0,0.05,0.065,neutral,right,0,25,25,58,1,,,,,,,,,,,,,,,,,,,,,,,,,,,,,,,,,,,,,,,,,,,,,,,,,,,,,,,,,,,,,,,,,,,,,,,,,,,,,,,,,,,
,8833,BAC,12/08/2004,001,2023-09-29_13h56.11.418,OS3_Mult_verification,2022.2.4,Win32,59.90176111,,,,,,,,,,,,,,,,,,,,,,,,,,,,,,,,,,,,,,,,,,,,,,,,,,,,,,,,,,,,,,,,,,,,,,right,1,0.5176,,,,,,physical,9,8,9 | 8,1,0.05,0.065,incongruent,right,0,26,26,31,1,,,,,,,,,,,,,,,,,,,,,,,,,,,,,,,,,,,,,,,,,,,,,,,,,,,,,,,,,,,,,,,,,,,,,,,,,,,,,,,,,,,
,8833,BAC,12/08/2004,001,2023-09-29_13h56.11.418,OS3_Mult_verification,2022.2.4,Win32,59.90176111,,,,,,,,,,,,,,,,,,,,,,,,,,,,,,,,,,,,,,,,,,,,,,,,,,,,,,,,,,,,,,,,,,,,,,left,1,0.5173,,,,,,physical,9,9,9 | 9,0,0.065,0.05,neutral,left,0,27,27,55,1,,,,,,,,,,,,,,,,,,,,,,,,,,,,,,,,,,,,,,,,,,,,,,,,,,,,,,,,,,,,,,,,,,,,,,,,,,,,,,,,,,,
,8833,BAC,12/08/2004,001,2023-09-29_13h56.11.418,OS3_Mult_verification,2022.2.4,Win32,59.90176111,,,,,,,,,,,,,,,,,,,,,,,,,,,,,,,,,,,,,,,,,,,,,,,,,,,,,,,,,,,,,,,,,,,,,,right,1,0.5395,,,,,,physical,7,7,7 | 7,0,0.05,0.065,neutral,right,0,28,28,69,1,,,,,,,,,,,,,,,,,,,,,,,,,,,,,,,,,,,,,,,,,,,,,,,,,,,,,,,,,,,,,,,,,,,,,,,,,,,,,,,,,,,
,8833,BAC,12/08/2004,001,2023-09-29_13h56.11.418,OS3_Mult_verification,2022.2.4,Win32,59.90176111,,,,,,,,,,,,,,,,,,,,,,,,,,,,,,,,,,,,,,,,,,,,,,,,,,,,,,,,,,,,,,,,,,,,,,left,1,0.4129,,,,,,physical,1,6,1 | 6,5,0.065,0.05,incongruent,left,0,29,29,40,1,,,,,,,,,,,,,,,,,,,,,,,,,,,,,,,,,,,,,,,,,,,,,,,,,,,,,,,,,,,,,,,,,,,,,,,,,,,,,,,,,,,
,8833,BAC,12/08/2004,001,2023-09-29_13h56.11.418,OS3_Mult_verification,2022.2.4,Win32,59.90176111,,,,,,,,,,,,,,,,,,,,,,,,,,,,,,,,,,,,,,,,,,,,,,,,,,,,,,,,,,,,,,,,,,,,,,left,1,0.5334,,,,,,physical,6,8,6 | 8,2,0.065,0.05,incongruent,left,0,30,30,34,1,,,,,,,,,,,,,,,,,,,,,,,,,,,,,,,,,,,,,,,,,,,,,,,,,,,,,,,,,,,,,,,,,,,,,,,,,,,,,,,,,,,
,8833,BAC,12/08/2004,001,2023-09-29_13h56.11.418,OS3_Mult_verification,2022.2.4,Win32,59.90176111,,,,,,,,,,,,,,,,,,,,,,,,,,,,,,,,,,,,,,,,,,,,,,,,,,,,,,,,,,,,,,,,,,,,,,right,1,0.474,,,,,,physical,8,8,8 | 8,0,0.05,0.065,neutral,right,0,31,31,62,1,,,,,,,,,,,,,,,,,,,,,,,,,,,,,,,,,,,,,,,,,,,,,,,,,,,,,,,,,,,,,,,,,,,,,,,,,,,,,,,,,,,
,8833,BAC,12/08/2004,001,2023-09-29_13h56.11.418,OS3_Mult_verification,2022.2.4,Win32,59.90176111,,,,,,,,,,,,,,,,,,,,,,,,,,,,,,,,,,,,,,,,,,,,,,,,,,,,,,,,,,,,,,,,,,,,,,left,1,0.4781,,,,,,physical,1,2,1 | 2,1,0.065,0.05,incongruent,left,0,32,32,24,1,,,,,,,,,,,,,,,,,,,,,,,,,,,,,,,,,,,,,,,,,,,,,,,,,,,,,,,,,,,,,,,,,,,,,,,,,,,,,,,,,,,
,8833,BAC,12/08/2004,001,2023-09-29_13h56.11.418,OS3_Mult_verification,2022.2.4,Win32,59.90176111,,,,,,,,,,,,,,,,,,,,,,,,,,,,,,,,,,,,,,,,,,,,,,,,,,,,,,,,,,,,,,,,,,,,,,left,1,0.5005,,,,,,physical,1,3,1 | 3,2,0.065,0.05,incongruent,left,0,33,33,32,1,,,,,,,,,,,,,,,,,,,,,,,,,,,,,,,,,,,,,,,,,,,,,,,,,,,,,,,,,,,,,,,,,,,,,,,,,,,,,,,,,,,
,8833,BAC,12/08/2004,001,2023-09-29_13h56.11.418,OS3_Mult_verification,2022.2.4,Win32,59.90176111,,,,,,,,,,,,,,,,,,,,,,,,,,,,,,,,,,,,,,,,,,,,,,,,,,,,,,,,,,,,,,,,,,,,,,right,1,0.5,,,,,,physical,2,7,2 | 7,5,0.05,0.065,congruent,right,0,34,34,17,1,,,,,,,,,,,,,,,,,,,,,,,,,,,,,,,,,,,,,,,,,,,,,,,,,,,,,,,,,,,,,,,,,,,,,,,,,,,,,,,,,,,
,8833,BAC,12/08/2004,001,2023-09-29_13h56.11.418,OS3_Mult_verification,2022.2.4,Win32,59.90176111,,,,,,,,,,,,,,,,,,,,,,,,,,,,,,,,,,,,,,,,,,,,,,,,,,,,,,,,,,,,,,,,,,,,,,right,1,0.4481,,,,,,physical,3,4,3 | 4,1,0.05,0.065,congruent,right,0,35,35,1,1,,,,,,,,,,,,,,,,,,,,,,,,,,,,,,,,,,,,,,,,,,,,,,,,,,,,,,,,,,,,,,,,,,,,,,,,,,,,,,,,,,,
,8833,BAC,12/08/2004,001,2023-09-29_13h56.11.418,OS3_Mult_verification,2022.2.4,Win32,59.90176111,,,,,,,,,,,,,,,,,,,,,,,,,,,,,,,,,,,,,,,,,,,,,,,,,,,,,,,,,,,,,,,,,,,,,,left,1,0.5665,,,,,,physical,9,4,9 | 4,5,0.065,0.05,congruent,left,0,36,36,23,1,,,,,,,,,,,,,,,,,,,,,,,,,,,,,,,,,,,,,,,,,,,,,,,,,,,,,,,,,,,,,,,,,,,,,,,,,,,,,,,,,,,
,8833,BAC,12/08/2004,001,2023-09-29_13h56.11.418,OS3_Mult_verification,2022.2.4,Win32,59.90176111,,,,,,,,,,,,,,,,,,,,,,,,,,,,,,,,,,,,,,,,,,,,,,,,,,,,,,,,,,,,,,,,,,,,,,left,1,0.5004,,,,,,physical,8,8,8 | 8,0,0.065,0.05,neutral,left,0,37,37,70,1,,,,,,,,,,,,,,,,,,,,,,,,,,,,,,,,,,,,,,,,,,,,,,,,,,,,,,,,,,,,,,,,,,,,,,,,,,,,,,,,,,,
,8833,BAC,12/08/2004,001,2023-09-29_13h56.11.418,OS3_Mult_verification,2022.2.4,Win32,59.90176111,,,,,,,,,,,,,,,,,,,,,,,,,,,,,,,,,,,,,,,,,,,,,,,,,,,,,,,,,,,,,,,,,,,,,,right,1,0.4073,,,,,,physical,7,9,7 | 9,2,0.05,0.065,congruent,right,0,38,38,11,1,,,,,,,,,,,,,,,,,,,,,,,,,,,,,,,,,,,,,,,,,,,,,,,,,,,,,,,,,,,,,,,,,,,,,,,,,,,,,,,,,,,
,8833,BAC,12/08/2004,001,2023-09-29_13h56.11.418,OS3_Mult_verification,2022.2.4,Win32,59.90176111,,,,,,,,,,,,,,,,,,,,,,,,,,,,,,,,,,,,,,,,,,,,,,,,,,,,,,,,,,,,,,,,,,,,,,left,1,0.4746,,,,,,physical,4,3,4 | 3,1,0.065,0.05,congruent,left,0,39,39,5,1,,,,,,,,,,,,,,,,,,,,,,,,,,,,,,,,,,,,,,,,,,,,,,,,,,,,,,,,,,,,,,,,,,,,,,,,,,,,,,,,,,,
,8833,BAC,12/08/2004,001,2023-09-29_13h56.11.418,OS3_Mult_verification,2022.2.4,Win32,59.90176111,,,,,,,,,,,,,,,,,,,,,,,,,,,,,,,,,,,,,,,,,,,,,,,,,,,,,,,,,,,,,,,,,,,,,,right,1,0.4504,,,,,,physical,9,7,9 | 7,2,0.05,0.065,incongruent,right,0,40,40,39,1,,,,,,,,,,,,,,,,,,,,,,,,,,,,,,,,,,,,,,,,,,,,,,,,,,,,,,,,,,,,,,,,,,,,,,,,,,,,,,,,,,,
,8833,BAC,12/08/2004,001,2023-09-29_13h56.11.418,OS3_Mult_verification,2022.2.4,Win32,59.90176111,,,,,,,,,,,,,,,,,,,,,,,,,,,,,,,,,,,,,,,,,,,,,,,,,,,,,,,,,,,,,,,,,,,,,,left,1,0.4518,,,,,,physical,2,4,2 | 4,2,0.065,0.05,incongruent,left,0,41,41,33,1,,,,,,,,,,,,,,,,,,,,,,,,,,,,,,,,,,,,,,,,,,,,,,,,,,,,,,,,,,,,,,,,,,,,,,,,,,,,,,,,,,,
,8833,BAC,12/08/2004,001,2023-09-29_13h56.11.418,OS3_Mult_verification,2022.2.4,Win32,59.90176111,,,,,,,,,,,,,,,,,,,,,,,,,,,,,,,,,,,,,,,,,,,,,,,,,,,,,,,,,,,,,,,,,,,,,,right,1,0.4086,,,,,,physical,6,7,6 | 7,1,0.05,0.065,congruent,right,0,42,42,2,1,,,,,,,,,,,,,,,,,,,,,,,,,,,,,,,,,,,,,,,,,,,,,,,,,,,,,,,,,,,,,,,,,,,,,,,,,,,,,,,,,,,
,8833,BAC,12/08/2004,001,2023-09-29_13h56.11.418,OS3_Mult_verification,2022.2.4,Win32,59.90176111,,,,,,,,,,,,,,,,,,,,,,,,,,,,,,,,,,,,,,,,,,,,,,,,,,,,,,,,,,,,,,,,,,,,,,right,1,0.5085,,,,,,physical,8,9,8 | 9,1,0.05,0.065,congruent,right,0,43,43,3,1,,,,,,,,,,,,,,,,,,,,,,,,,,,,,,,,,,,,,,,,,,,,,,,,,,,,,,,,,,,,,,,,,,,,,,,,,,,,,,,,,,,
,8833,BAC,12/08/2004,001,2023-09-29_13h56.11.418,OS3_Mult_verification,2022.2.4,Win32,59.90176111,,,,,,,,,,,,,,,,,,,,,,,,,,,,,,,,,,,,,,,,,,,,,,,,,,,,,,,,,,,,,,,,,,,,,,right,1,0.4461,,,,,,physical,3,3,3 | 3,0,0.05,0.065,neutral,right,0,44,44,60,1,,,,,,,,,,,,,,,,,,,,,,,,,,,,,,,,,,,,,,,,,,,,,,,,,,,,,,,,,,,,,,,,,,,,,,,,,,,,,,,,,,,
,8833,BAC,12/08/2004,001,2023-09-29_13h56.11.418,OS3_Mult_verification,2022.2.4,Win32,59.90176111,,,,,,,,,,,,,,,,,,,,,,,,,,,,,,,,,,,,,,,,,,,,,,,,,,,,,,,,,,,,,,,,,,,,,,left,1,0.4781,,,,,,physical,3,4,3 | 4,1,0.065,0.05,incongruent,left,0,45,45,25,1,,,,,,,,,,,,,,,,,,,,,,,,,,,,,,,,,,,,,,,,,,,,,,,,,,,,,,,,,,,,,,,,,,,,,,,,,,,,,,,,,,,
,8833,BAC,12/08/2004,001,2023-09-29_13h56.11.418,OS3_Mult_verification,2022.2.4,Win32,59.90176111,,,,,,,,,,,,,,,,,,,,,,,,,,,,,,,,,,,,,,,,,,,,,,,,,,,,,,,,,,,,,,,,,,,,,,right,1,0.4672,,,,,,physical,1,1,1 | 1,0,0.05,0.065,neutral,right,0,46,46,56,1,,,,,,,,,,,,,,,,,,,,,,,,,,,,,,,,,,,,,,,,,,,,,,,,,,,,,,,,,,,,,,,,,,,,,,,,,,,,,,,,,,,
,8833,BAC,12/08/2004,001,2023-09-29_13h56.11.418,OS3_Mult_verification,2022.2.4,Win32,59.90176111,,,,,,,,,,,,,,,,,,,,,,,,,,,,,,,,,,,,,,,,,,,,,,,,,,,,,,,,,,,,,,,,,,,,,,right,1,0.4713,,,,,,physical,4,4,4 | 4,0,0.05,0.065,neutral,right,0,47,47,61,1,,,,,,,,,,,,,,,,,,,,,,,,,,,,,,,,,,,,,,,,,,,,,,,,,,,,,,,,,,,,,,,,,,,,,,,,,,,,,,,,,,,
