windowSize,participant,group,DOB (DD/MM/YEAR),session,date,expName,psychopyVersion,OS,frameRate,typing_instr_resp.keys,typing_instr_resp.rt,typing_response,typing_rt,typing_score,typingSpeed_input_resp.keys,typingSpeed_input_resp.rt,typing_speed_trials.thisRepN,typing_speed_trials.thisTrialN,typing_speed_trials.thisN,typing_speed_trials.thisIndex,typing_speed_trials.ran,typing_speed_stim,typing_report_resp.keys,typing_report_resp.rt,vpt_trial_resp1.keys,vpt_trial_resp1.rt,typedResponse,fluency_rt,fluency_score,fluencyInputResp.keys,fluencyInputResp.rt,fluencyPracLoop.thisRepN,fluencyPracLoop.thisTrialN,fluencyPracLoop.thisN,fluencyPracLoop.thisIndex,fluencyPracLoop.ran,problem,answers,fluencyLoop.thisRepN,fluencyLoop.thisTrialN,fluencyLoop.thisN,fluencyLoop.thisIndex,fluencyLoop.ran,vptCorrect,vpt_rt,respMouse.x,respMouse.y,respMouse.leftButton,respMouse.midButton,respMouse.rightButton,vptPracticeLoop.thisRepN,vptPracticeLoop.thisTrialN,vptPracticeLoop.thisN,vptPracticeLoop.thisIndex,vptPracticeLoop.ran,trialType,tiles,rows,cols,vptTrialLoop.thisRepN,vptTrialLoop.thisTrialN,vptTrialLoop.thisN,vptTrialLoop.thisIndex,vptTrialLoop.ran,noOfBlocks,TASK_B.thisRepN,TASK_B.thisTrialN,TASK_B.thisN,TASK_B.thisIndex,TASK_B.ran,controlTaskOrder.thisRepN,controlTaskOrder.thisTrialN,controlTaskOrder.thisN,controlTaskOrder.thisIndex,controlTaskOrder.ran,nRepsTask1,nRepsTask2,nRepsTask3,sampleAudio_resp.keys,sampleAudio_resp.rt,subjResponse,audio_rt,DS_score,inputResp.keys,inputResp.rt,audioPracticeLoop.thisRepN,audioPracticeLoop.thisTrialN,audioPracticeLoop.thisN,audioPracticeLoop.thisIndex,audioPracticeLoop.ran,digitSpan,digits_audioStim,soundsFile,typeDS,audioTrials_Loop.thisRepN,audioTrials_Loop.thisTrialN,audioTrials_Loop.thisN,audioTrials_Loop.thisIndex,audioTrials_Loop.ran,audioBlocks_loop.thisRepN,audioBlocks_loop.thisTrialN,audioBlocks_loop.thisN,audioBlocks_loop.thisIndex,audioBlocks_loop.ran,ConditionFile,digitSpanTask_loop.thisRepN,digitSpanTask_loop.thisTrialN,digitSpanTask_loop.thisN,digitSpanTask_loop.thisIndex,digitSpanTask_loop.ran,dsFile,TASK_C.thisRepN,TASK_C.thisTrialN,TASK_C.thisN,TASK_C.thisIndex,TASK_C.ran,stroopResp.keys,stroopResp.corr,stroopResp.rt,stroopPracLoop.thisRepN,stroopPracLoop.thisTrialN,stroopPracLoop.thisN,stroopPracLoop.thisIndex,stroopPracLoop.ran,stroopCond,leftNo,rightNo,displayProblem,numDistance,leftNo_size,rightNo_size,Dims,keyAnswer,stroopLoop.thisRepN,stroopLoop.thisTrialN,stroopLoop.thisN,stroopLoop.thisIndex,stroopLoop.ran,stroopBlocks.thisRepN,stroopBlocks.thisTrialN,stroopBlocks.thisN,stroopBlocks.thisIndex,stroopBlocks.ran,stroop_condition,stroop_pracFile,ActionInst,instrImage,TASK_A.thisRepN,TASK_A.thisTrialN,TASK_A.thisN,TASK_A.thisIndex,TASK_A.ran,veriStim_resp.keys,veriStim_resp.corr,veriStim_resp.rt,verificationPracLoop.thisRepN,verificationPracLoop.thisTrialN,verificationPracLoop.thisN,verificationPracLoop.thisIndex,verificationPracLoop.ran,mult_problem,mult_answer,mult_type,error_distance,interferenceScore,problemType,interferenceLevel,problemSize,img_leftButton,img_rightButton,veriLoop.thisRepN,veriLoop.thisTrialN,veriLoop.thisN,veriLoop.thisIndex,veriLoop.ran,veriBlock.thisRepN,veriBlock.thisTrialN,veriBlock.thisN,veriBlock.thisIndex,veriBlock.ran,verificationFiles,end_resp.keys,end_resp.rt
"[1280,569]",392002593306,BCA,21/06/2000,001,2023-04-05_16h54.51.758,OS3_Mult_verification,2022.2.4,Win32,60.17571308,,,,,,,,,,,,,,,,,,,,,,,,,,,,,,,,,,,,,,,,,,,,,,,,,,,,,,,,,,,,,,,,,,,,,,,,,,,,,,,,,,,,,,,,,,,,,,,,,,,,,,,,,,,,,,,,,,,,,,,,,,,,,,,,,,,,,,,,,,,,,,,,,,,,,,,,,,,,,,,,,,,,,,,,,,,,,,
,392002593306,BCA,21/06/2000,001,2023-04-05_16h54.51.758,OS3_Mult_verification,2022.2.4,Win32,60.17571308,,,,,,,,,,,,,,,,,,,,,,,,,,,,,,,,,,,,,,,,,,,,,,,,,,,,,,,,,,,,,,,,,,,,,,,,,,,,,,,,,,,,,,,,,,,,,,,,,,,,,,,,,,,,,,,,,,,,,,,,,,,,,,,,,,,,,,,,,,,,,,,,,,,,,,,,,,,,,,,,,,,,,,,,,,,,,,
,392002593306,BCA,21/06/2000,001,2023-04-05_16h54.51.758,OS3_Mult_verification,2022.2.4,Win32,60.17571308,space,11.3938,,,,,,,,,,,,,,,,,,,,,,,,,,,,,,,,,,,,,,,,,,,,,,,,,,,,,,,,,,,,,,,,,,,,,,,,,,,,,,,,,,,,,,,,,,,,,,,,,,,,,,,,,,,,,,,,,,,,,,,,,,,,,,,,,,,,,,,,,,,,,,,,,,,,,,,,,,,,,,,,,,,,,,,,,,,,
,392002593306,BCA,21/06/2000,001,2023-04-05_16h54.51.758,OS3_Mult_verification,2022.2.4,Win32,60.17571308,,,15,1.5159,1,"[""1"",""5"",""return""]","[0.8533999999761477,1.2507000000476864,1.4664999999999964]",0,0,0,7,1,15,,,,,,,,,,,,,,,,,,,,,,,,,,,,,,,,,,,,,,,,,,,,,,,,,,,,,,,,,,,,,,,,,,,,,,,,,,,,,,,,,,,,,,,,,,,,,,,,,,,,,,,,,,,,,,,,,,,,,,,,,,,,,,,,,,,,,,,,,,,,,,,,,,,,,,,,,,,,,,,,,
,392002593306,BCA,21/06/2000,001,2023-04-05_16h54.51.758,OS3_Mult_verification,2022.2.4,Win32,60.17571308,,,25,1.3221,1,"[""2"",""5"",""return""]","[0.8208999999761772,1.1198999999761696,1.2761999999284939]",0,1,1,13,1,25,,,,,,,,,,,,,,,,,,,,,,,,,,,,,,,,,,,,,,,,,,,,,,,,,,,,,,,,,,,,,,,,,,,,,,,,,,,,,,,,,,,,,,,,,,,,,,,,,,,,,,,,,,,,,,,,,,,,,,,,,,,,,,,,,,,,,,,,,,,,,,,,,,,,,,,,,,,,,,,,,
,392002593306,BCA,21/06/2000,001,2023-04-05_16h54.51.758,OS3_Mult_verification,2022.2.4,Win32,60.17571308,,,4,0.9048,1,"[""4"",""return""]","[0.7535000000000025,0.8666000000238512]",0,2,2,0,1,4,,,,,,,,,,,,,,,,,,,,,,,,,,,,,,,,,,,,,,,,,,,,,,,,,,,,,,,,,,,,,,,,,,,,,,,,,,,,,,,,,,,,,,,,,,,,,,,,,,,,,,,,,,,,,,,,,,,,,,,,,,,,,,,,,,,,,,,,,,,,,,,,,,,,,,,,,,,,,,,,,
,392002593306,BCA,21/06/2000,001,2023-04-05_16h54.51.758,OS3_Mult_verification,2022.2.4,Win32,60.17571308,,,6,1.1721,1,"[""6"",""return""]","[0.9906999999284665,1.133899999976137]",0,3,3,1,1,6,,,,,,,,,,,,,,,,,,,,,,,,,,,,,,,,,,,,,,,,,,,,,,,,,,,,,,,,,,,,,,,,,,,,,,,,,,,,,,,,,,,,,,,,,,,,,,,,,,,,,,,,,,,,,,,,,,,,,,,,,,,,,,,,,,,,,,,,,,,,,,,,,,,,,,,,,,,,,,,,,
,392002593306,BCA,21/06/2000,001,2023-04-05_16h54.51.758,OS3_Mult_verification,2022.2.4,Win32,60.17571308,,,30,1.2445,1,"[""3"",""0"",""return""]","[0.8717000000476673,1.0449999999999875,1.2032000000476728]",0,4,4,16,1,30,,,,,,,,,,,,,,,,,,,,,,,,,,,,,,,,,,,,,,,,,,,,,,,,,,,,,,,,,,,,,,,,,,,,,,,,,,,,,,,,,,,,,,,,,,,,,,,,,,,,,,,,,,,,,,,,,,,,,,,,,,,,,,,,,,,,,,,,,,,,,,,,,,,,,,,,,,,,,,,,,
,392002593306,BCA,21/06/2000,001,2023-04-05_16h54.51.758,OS3_Mult_verification,2022.2.4,Win32,60.17571308,,,20,1.1721,1,"[""2"",""0"",""return""]","[0.7757000000476637,0.9342000000476673,1.1244999999999834]",0,5,5,10,1,20,,,,,,,,,,,,,,,,,,,,,,,,,,,,,,,,,,,,,,,,,,,,,,,,,,,,,,,,,,,,,,,,,,,,,,,,,,,,,,,,,,,,,,,,,,,,,,,,,,,,,,,,,,,,,,,,,,,,,,,,,,,,,,,,,,,,,,,,,,,,,,,,,,,,,,,,,,,,,,,,,
,392002593306,BCA,21/06/2000,001,2023-04-05_16h54.51.758,OS3_Mult_verification,2022.2.4,Win32,60.17571308,,,64,1.4384,1,"[""6"",""4"",""return""]","[1.0080000000000098,1.276899999976166,1.3998999999761566]",0,6,6,28,1,64,,,,,,,,,,,,,,,,,,,,,,,,,,,,,,,,,,,,,,,,,,,,,,,,,,,,,,,,,,,,,,,,,,,,,,,,,,,,,,,,,,,,,,,,,,,,,,,,,,,,,,,,,,,,,,,,,,,,,,,,,,,,,,,,,,,,,,,,,,,,,,,,,,,,,,,,,,,,,,,,,
,392002593306,BCA,21/06/2000,001,2023-04-05_16h54.51.758,OS3_Mult_verification,2022.2.4,Win32,60.17571308,,,49,1.4711,1,"[""4"",""9"",""return""]","[0.7668999999761468,1.291100000023846,1.433299999952311]",0,7,7,24,1,49,,,,,,,,,,,,,,,,,,,,,,,,,,,,,,,,,,,,,,,,,,,,,,,,,,,,,,,,,,,,,,,,,,,,,,,,,,,,,,,,,,,,,,,,,,,,,,,,,,,,,,,,,,,,,,,,,,,,,,,,,,,,,,,,,,,,,,,,,,,,,,,,,,,,,,,,,,,,,,,,,
,392002593306,BCA,21/06/2000,001,2023-04-05_16h54.51.758,OS3_Mult_verification,2022.2.4,Win32,60.17571308,,,10,1.0329,1,"[""1"",""0"",""return""]","[0.6169999999999902,0.8170000000000073,0.9865999999046267]",0,8,8,4,1,10,,,,,,,,,,,,,,,,,,,,,,,,,,,,,,,,,,,,,,,,,,,,,,,,,,,,,,,,,,,,,,,,,,,,,,,,,,,,,,,,,,,,,,,,,,,,,,,,,,,,,,,,,,,,,,,,,,,,,,,,,,,,,,,,,,,,,,,,,,,,,,,,,,,,,,,,,,,,,,,,,
,392002593306,BCA,21/06/2000,001,2023-04-05_16h54.51.758,OS3_Mult_verification,2022.2.4,Win32,60.17571308,,,14,0.9495,1,"[""1"",""4"",""return""]","[0.5501000000238605,0.8063000000715306,0.9108000000715322]",0,9,9,6,1,14,,,,,,,,,,,,,,,,,,,,,,,,,,,,,,,,,,,,,,,,,,,,,,,,,,,,,,,,,,,,,,,,,,,,,,,,,,,,,,,,,,,,,,,,,,,,,,,,,,,,,,,,,,,,,,,,,,,,,,,,,,,,,,,,,,,,,,,,,,,,,,,,,,,,,,,,,,,,,,,,,
,392002593306,BCA,21/06/2000,001,2023-04-05_16h54.51.758,OS3_Mult_verification,2022.2.4,Win32,60.17571308,,,28,1.2663,1,"[""2"",""8"",""return""]","[0.7185000000000059,1.1104000000953533,1.2334999999999923]",0,10,10,15,1,28,,,,,,,,,,,,,,,,,,,,,,,,,,,,,,,,,,,,,,,,,,,,,,,,,,,,,,,,,,,,,,,,,,,,,,,,,,,,,,,,,,,,,,,,,,,,,,,,,,,,,,,,,,,,,,,,,,,,,,,,,,,,,,,,,,,,,,,,,,,,,,,,,,,,,,,,,,,,,,,,,
,392002593306,BCA,21/06/2000,001,2023-04-05_16h54.51.758,OS3_Mult_verification,2022.2.4,Win32,60.17571308,,,18,1.1883,1,"[""1"",""8"",""return""]","[0.5687000000476985,1.033899999976171,1.1503999999761731]",0,11,11,9,1,18,,,,,,,,,,,,,,,,,,,,,,,,,,,,,,,,,,,,,,,,,,,,,,,,,,,,,,,,,,,,,,,,,,,,,,,,,,,,,,,,,,,,,,,,,,,,,,,,,,,,,,,,,,,,,,,,,,,,,,,,,,,,,,,,,,,,,,,,,,,,,,,,,,,,,,,,,,,,,,,,,
,392002593306,BCA,21/06/2000,001,2023-04-05_16h54.51.758,OS3_Mult_verification,2022.2.4,Win32,60.17571308,,,48,1.4998,1,"[""4"",""8"",""return""]","[0.8336999999284558,1.305899999976134,1.450299999952307]",0,12,12,23,1,48,,,,,,,,,,,,,,,,,,,,,,,,,,,,,,,,,,,,,,,,,,,,,,,,,,,,,,,,,,,,,,,,,,,,,,,,,,,,,,,,,,,,,,,,,,,,,,,,,,,,,,,,,,,,,,,,,,,,,,,,,,,,,,,,,,,,,,,,,,,,,,,,,,,,,,,,,,,,,,,,,
,392002593306,BCA,21/06/2000,001,2023-04-05_16h54.51.758,OS3_Mult_verification,2022.2.4,Win32,60.17571308,,,32,0.9046,1,"[""3"",""2"",""return""]","[0.6670999999046217,0.7335999999046408,0.8675000000000068]",0,13,13,17,1,32,,,,,,,,,,,,,,,,,,,,,,,,,,,,,,,,,,,,,,,,,,,,,,,,,,,,,,,,,,,,,,,,,,,,,,,,,,,,,,,,,,,,,,,,,,,,,,,,,,,,,,,,,,,,,,,,,,,,,,,,,,,,,,,,,,,,,,,,,,,,,,,,,,,,,,,,,,,,,,,,,
,392002593306,BCA,21/06/2000,001,2023-04-05_16h54.51.758,OS3_Mult_verification,2022.2.4,Win32,60.17571308,,,35,1.3659,1,"[""3"",""5"",""return""]","[1.0334000000953836,1.193300000071531,1.333500000000015]",0,14,14,18,1,35,,,,,,,,,,,,,,,,,,,,,,,,,,,,,,,,,,,,,,,,,,,,,,,,,,,,,,,,,,,,,,,,,,,,,,,,,,,,,,,,,,,,,,,,,,,,,,,,,,,,,,,,,,,,,,,,,,,,,,,,,,,,,,,,,,,,,,,,,,,,,,,,,,,,,,,,,,,,,,,,,
,392002593306,BCA,21/06/2000,001,2023-04-05_16h54.51.758,OS3_Mult_verification,2022.2.4,Win32,60.17571308,,,9,1.5387,1,"[""9"",""return""]","[1.3588000000715112,1.4908000000715163]",0,15,15,3,1,9,,,,,,,,,,,,,,,,,,,,,,,,,,,,,,,,,,,,,,,,,,,,,,,,,,,,,,,,,,,,,,,,,,,,,,,,,,,,,,,,,,,,,,,,,,,,,,,,,,,,,,,,,,,,,,,,,,,,,,,,,,,,,,,,,,,,,,,,,,,,,,,,,,,,,,,,,,,,,,,,,
,392002593306,BCA,21/06/2000,001,2023-04-05_16h54.51.758,OS3_Mult_verification,2022.2.4,Win32,60.17571308,,,54,1.2546,1,"[""5"",""4"",""return""]","[1.002699999928467,1.0711000000238187,1.216299999952298]",0,16,16,25,1,54,,,,,,,,,,,,,,,,,,,,,,,,,,,,,,,,,,,,,,,,,,,,,,,,,,,,,,,,,,,,,,,,,,,,,,,,,,,,,,,,,,,,,,,,,,,,,,,,,,,,,,,,,,,,,,,,,,,,,,,,,,,,,,,,,,,,,,,,,,,,,,,,,,,,,,,,,,,,,,,,,
,392002593306,BCA,21/06/2000,001,2023-04-05_16h54.51.758,OS3_Mult_verification,2022.2.4,Win32,60.17571308,,,36,1.4047,1,"[""3"",""6"",""return""]","[0.8166000000238398,1.2688000000715363,1.366500000000002]",0,17,17,19,1,36,,,,,,,,,,,,,,,,,,,,,,,,,,,,,,,,,,,,,,,,,,,,,,,,,,,,,,,,,,,,,,,,,,,,,,,,,,,,,,,,,,,,,,,,,,,,,,,,,,,,,,,,,,,,,,,,,,,,,,,,,,,,,,,,,,,,,,,,,,,,,,,,,,,,,,,,,,,,,,,,,
,392002593306,BCA,21/06/2000,001,2023-04-05_16h54.51.758,OS3_Mult_verification,2022.2.4,Win32,60.17571308,,,24,1.2552,1,"[""2"",""4"",""return""]","[0.8528000000715394,1.089300000071546,1.2161000000238573]",0,18,18,12,1,24,,,,,,,,,,,,,,,,,,,,,,,,,,,,,,,,,,,,,,,,,,,,,,,,,,,,,,,,,,,,,,,,,,,,,,,,,,,,,,,,,,,,,,,,,,,,,,,,,,,,,,,,,,,,,,,,,,,,,,,,,,,,,,,,,,,,,,,,,,,,,,,,,,,,,,,,,,,,,,,,,
,392002593306,BCA,21/06/2000,001,2023-04-05_16h54.51.758,OS3_Mult_verification,2022.2.4,Win32,60.17571308,,,63,1.4053,1,"[""6"",""3"",""return""]","[0.8518000000715062,1.266999999999996,1.3674999999999784]",0,19,19,27,1,63,,,,,,,,,,,,,,,,,,,,,,,,,,,,,,,,,,,,,,,,,,,,,,,,,,,,,,,,,,,,,,,,,,,,,,,,,,,,,,,,,,,,,,,,,,,,,,,,,,,,,,,,,,,,,,,,,,,,,,,,,,,,,,,,,,,,,,,,,,,,,,,,,,,,,,,,,,,,,,,,,
,392002593306,BCA,21/06/2000,001,2023-04-05_16h54.51.758,OS3_Mult_verification,2022.2.4,Win32,60.17571308,,,42,1.2614,1,"[""4"",""2"",""return""]","[0.8845000000000027,1.1011999999284683,1.2218999999761593]",0,20,20,21,1,42,,,,,,,,,,,,,,,,,,,,,,,,,,,,,,,,,,,,,,,,,,,,,,,,,,,,,,,,,,,,,,,,,,,,,,,,,,,,,,,,,,,,,,,,,,,,,,,,,,,,,,,,,,,,,,,,,,,,,,,,,,,,,,,,,,,,,,,,,,,,,,,,,,,,,,,,,,,,,,,,,
,392002593306,BCA,21/06/2000,001,2023-04-05_16h54.51.758,OS3_Mult_verification,2022.2.4,Win32,60.17571308,,,81,1.3998,1,"[""8"",""1"",""return""]","[0.8722000000476839,1.2090000000000032,1.3538999999761643]",0,21,21,30,1,81,,,,,,,,,,,,,,,,,,,,,,,,,,,,,,,,,,,,,,,,,,,,,,,,,,,,,,,,,,,,,,,,,,,,,,,,,,,,,,,,,,,,,,,,,,,,,,,,,,,,,,,,,,,,,,,,,,,,,,,,,,,,,,,,,,,,,,,,,,,,,,,,,,,,,,,,,,,,,,,,,
,392002593306,BCA,21/06/2000,001,2023-04-05_16h54.51.758,OS3_Mult_verification,2022.2.4,Win32,60.17571308,,,21,0.9663,1,"[""2"",""1"",""return""]","[0.6548999999761804,0.7331000000238532,0.9186000000238437]",0,22,22,11,1,21,,,,,,,,,,,,,,,,,,,,,,,,,,,,,,,,,,,,,,,,,,,,,,,,,,,,,,,,,,,,,,,,,,,,,,,,,,,,,,,,,,,,,,,,,,,,,,,,,,,,,,,,,,,,,,,,,,,,,,,,,,,,,,,,,,,,,,,,,,,,,,,,,,,,,,,,,,,,,,,,,
,392002593306,BCA,21/06/2000,001,2023-04-05_16h54.51.758,OS3_Mult_verification,2022.2.4,Win32,60.17571308,,,8,1.2389,1,"[""8"",""return""]","[1.0733999999761465,1.1992999999523022]",0,23,23,2,1,8,,,,,,,,,,,,,,,,,,,,,,,,,,,,,,,,,,,,,,,,,,,,,,,,,,,,,,,,,,,,,,,,,,,,,,,,,,,,,,,,,,,,,,,,,,,,,,,,,,,,,,,,,,,,,,,,,,,,,,,,,,,,,,,,,,,,,,,,,,,,,,,,,,,,,,,,,,,,,,,,,
,392002593306,BCA,21/06/2000,001,2023-04-05_16h54.51.758,OS3_Mult_verification,2022.2.4,Win32,60.17571308,,,16,1.2139,1,"[""1"",""6"",""return""]","[0.6163999999761529,1.0013999999761722,1.1666000000238341]",0,24,24,8,1,16,,,,,,,,,,,,,,,,,,,,,,,,,,,,,,,,,,,,,,,,,,,,,,,,,,,,,,,,,,,,,,,,,,,,,,,,,,,,,,,,,,,,,,,,,,,,,,,,,,,,,,,,,,,,,,,,,,,,,,,,,,,,,,,,,,,,,,,,,,,,,,,,,,,,,,,,,,,,,,,,,
,392002593306,BCA,21/06/2000,001,2023-04-05_16h54.51.758,OS3_Mult_verification,2022.2.4,Win32,60.17571308,,,12,0.8721,1,"[""1"",""2"",""return""]","[0.5840000000000032,0.6836999999284785,0.833500000000015]",0,25,25,5,1,12,,,,,,,,,,,,,,,,,,,,,,,,,,,,,,,,,,,,,,,,,,,,,,,,,,,,,,,,,,,,,,,,,,,,,,,,,,,,,,,,,,,,,,,,,,,,,,,,,,,,,,,,,,,,,,,,,,,,,,,,,,,,,,,,,,,,,,,,,,,,,,,,,,,,,,,,,,,,,,,,,
,392002593306,BCA,21/06/2000,001,2023-04-05_16h54.51.758,OS3_Mult_verification,2022.2.4,Win32,60.17571308,,,72,1.6052,1,"[""7"",""2"",""return""]","[0.8985000000000127,1.318000000000012,1.5669000000953872]",0,26,26,29,1,72,,,,,,,,,,,,,,,,,,,,,,,,,,,,,,,,,,,,,,,,,,,,,,,,,,,,,,,,,,,,,,,,,,,,,,,,,,,,,,,,,,,,,,,,,,,,,,,,,,,,,,,,,,,,,,,,,,,,,,,,,,,,,,,,,,,,,,,,,,,,,,,,,,,,,,,,,,,,,,,,,
,392002593306,BCA,21/06/2000,001,2023-04-05_16h54.51.758,OS3_Mult_verification,2022.2.4,Win32,60.17571308,,,40,1.3665,1,"[""4"",""0"",""return""]","[1.009999999999991,1.1328000000715122,1.3188000000715192]",0,27,27,20,1,40,,,,,,,,,,,,,,,,,,,,,,,,,,,,,,,,,,,,,,,,,,,,,,,,,,,,,,,,,,,,,,,,,,,,,,,,,,,,,,,,,,,,,,,,,,,,,,,,,,,,,,,,,,,,,,,,,,,,,,,,,,,,,,,,,,,,,,,,,,,,,,,,,,,,,,,,,,,,,,,,,
,392002593306,BCA,21/06/2000,001,2023-04-05_16h54.51.758,OS3_Mult_verification,2022.2.4,Win32,60.17571308,,,56,1.0493,1,"[""5"",""6"",""return""]","[0.8617999999523249,0.9408999999761534,1.0066000000238375]",0,28,28,26,1,56,,,,,,,,,,,,,,,,,,,,,,,,,,,,,,,,,,,,,,,,,,,,,,,,,,,,,,,,,,,,,,,,,,,,,,,,,,,,,,,,,,,,,,,,,,,,,,,,,,,,,,,,,,,,,,,,,,,,,,,,,,,,,,,,,,,,,,,,,,,,,,,,,,,,,,,,,,,,,,,,,
,392002593306,BCA,21/06/2000,001,2023-04-05_16h54.51.758,OS3_Mult_verification,2022.2.4,Win32,60.17571308,,,45,1.0333,1,"[""4"",""5"",""return""]","[0.8022999999523108,0.8836000000238471,0.9925000000000068]",0,29,29,22,1,45,,,,,,,,,,,,,,,,,,,,,,,,,,,,,,,,,,,,,,,,,,,,,,,,,,,,,,,,,,,,,,,,,,,,,,,,,,,,,,,,,,,,,,,,,,,,,,,,,,,,,,,,,,,,,,,,,,,,,,,,,,,,,,,,,,,,,,,,,,,,,,,,,,,,,,,,,,,,,,,,,
,392002593306,BCA,21/06/2000,001,2023-04-05_16h54.51.758,OS3_Mult_verification,2022.2.4,Win32,60.17571308,,,27,1.5385,1,"[""2"",""7"",""return""]","[0.900600000023843,1.2406000000238464,1.5001000000238491]",0,30,30,14,1,27,,,,,,,,,,,,,,,,,,,,,,,,,,,,,,,,,,,,,,,,,,,,,,,,,,,,,,,,,,,,,,,,,,,,,,,,,,,,,,,,,,,,,,,,,,,,,,,,,,,,,,,,,,,,,,,,,,,,,,,,,,,,,,,,,,,,,,,,,,,,,,,,,,,,,,,,,,,,,,,,,
,392002593306,BCA,21/06/2000,001,2023-04-05_16h54.51.758,OS3_Mult_verification,2022.2.4,Win32,60.17571308,,,14,0.9637,1,"[""1"",""4"",""return""]","[0.6341999999284553,0.8441000000238432,0.9211000000238414]",1,0,31,6,1,14,,,,,,,,,,,,,,,,,,,,,,,,,,,,,,,,,,,,,,,,,,,,,,,,,,,,,,,,,,,,,,,,,,,,,,,,,,,,,,,,,,,,,,,,,,,,,,,,,,,,,,,,,,,,,,,,,,,,,,,,,,,,,,,,,,,,,,,,,,,,,,,,,,,,,,,,,,,,,,,,,
,392002593306,BCA,21/06/2000,001,2023-04-05_16h54.51.758,OS3_Mult_verification,2022.2.4,Win32,60.17571308,,,32,1.1662,1,"[""3"",""2"",""return""]","[0.8882000000476751,0.9671000000238337,1.1169999999999902]",1,1,32,17,1,32,,,,,,,,,,,,,,,,,,,,,,,,,,,,,,,,,,,,,,,,,,,,,,,,,,,,,,,,,,,,,,,,,,,,,,,,,,,,,,,,,,,,,,,,,,,,,,,,,,,,,,,,,,,,,,,,,,,,,,,,,,,,,,,,,,,,,,,,,,,,,,,,,,,,,,,,,,,,,,,,,
,392002593306,BCA,21/06/2000,001,2023-04-05_16h54.51.758,OS3_Mult_verification,2022.2.4,Win32,60.17571308,,,27,1.1827,1,"[""2"",""7"",""return""]","[0.749699999928481,1.0666999999284883,1.1500000000000057]",1,2,33,14,1,27,,,,,,,,,,,,,,,,,,,,,,,,,,,,,,,,,,,,,,,,,,,,,,,,,,,,,,,,,,,,,,,,,,,,,,,,,,,,,,,,,,,,,,,,,,,,,,,,,,,,,,,,,,,,,,,,,,,,,,,,,,,,,,,,,,,,,,,,,,,,,,,,,,,,,,,,,,,,,,,,,
,392002593306,BCA,21/06/2000,001,2023-04-05_16h54.51.758,OS3_Mult_verification,2022.2.4,Win32,60.17571308,,,49,2.0663,1,"[""4"",""9"",""return""]","[1.2506999999284574,1.8497999999523245,2.0331999999284847]",1,3,34,24,1,49,,,,,,,,,,,,,,,,,,,,,,,,,,,,,,,,,,,,,,,,,,,,,,,,,,,,,,,,,,,,,,,,,,,,,,,,,,,,,,,,,,,,,,,,,,,,,,,,,,,,,,,,,,,,,,,,,,,,,,,,,,,,,,,,,,,,,,,,,,,,,,,,,,,,,,,,,,,,,,,,,
,392002593306,BCA,21/06/2000,001,2023-04-05_16h54.51.758,OS3_Mult_verification,2022.2.4,Win32,60.17571308,,,40,1.6661,1,"[""4"",""0"",""return""]","[1.2845000000000084,1.384700000047701,1.6333999999761772]",1,4,35,20,1,40,,,,,,,,,,,,,,,,,,,,,,,,,,,,,,,,,,,,,,,,,,,,,,,,,,,,,,,,,,,,,,,,,,,,,,,,,,,,,,,,,,,,,,,,,,,,,,,,,,,,,,,,,,,,,,,,,,,,,,,,,,,,,,,,,,,,,,,,,,,,,,,,,,,,,,,,,,,,,,,,,
,392002593306,BCA,21/06/2000,001,2023-04-05_16h54.51.758,OS3_Mult_verification,2022.2.4,Win32,60.17571308,,,4,1.2665,1,"[""4"",""return""]","[1.0677000000476653,1.2337999999523106]",1,5,36,0,1,4,,,,,,,,,,,,,,,,,,,,,,,,,,,,,,,,,,,,,,,,,,,,,,,,,,,,,,,,,,,,,,,,,,,,,,,,,,,,,,,,,,,,,,,,,,,,,,,,,,,,,,,,,,,,,,,,,,,,,,,,,,,,,,,,,,,,,,,,,,,,,,,,,,,,,,,,,,,,,,,,,
,392002593306,BCA,21/06/2000,001,2023-04-05_16h54.51.758,OS3_Mult_verification,2022.2.4,Win32,60.17571308,,,56,1.3497,1,"[""5"",""6"",""return""]","[1.0668999999761581,1.1665999999046335,1.3164999999999907]",1,6,37,26,1,56,,,,,,,,,,,,,,,,,,,,,,,,,,,,,,,,,,,,,,,,,,,,,,,,,,,,,,,,,,,,,,,,,,,,,,,,,,,,,,,,,,,,,,,,,,,,,,,,,,,,,,,,,,,,,,,,,,,,,,,,,,,,,,,,,,,,,,,,,,,,,,,,,,,,,,,,,,,,,,,,,
,392002593306,BCA,21/06/2000,001,2023-04-05_16h54.51.758,OS3_Mult_verification,2022.2.4,Win32,60.17571308,,,20,1.2996,1,"[""2"",""0"",""return""]","[0.8667000000477003,1.0832000000476967,1.2662000000476894]",1,7,38,10,1,20,,,,,,,,,,,,,,,,,,,,,,,,,,,,,,,,,,,,,,,,,,,,,,,,,,,,,,,,,,,,,,,,,,,,,,,,,,,,,,,,,,,,,,,,,,,,,,,,,,,,,,,,,,,,,,,,,,,,,,,,,,,,,,,,,,,,,,,,,,,,,,,,,,,,,,,,,,,,,,,,,
,392002593306,BCA,21/06/2000,001,2023-04-05_16h54.51.758,OS3_Mult_verification,2022.2.4,Win32,60.17571308,,,45,1.0831,1,"[""4"",""5"",""return""]","[0.883499999999998,0.9499000000953686,1.0497000000476646]",1,8,39,22,1,45,,,,,,,,,,,,,,,,,,,,,,,,,,,,,,,,,,,,,,,,,,,,,,,,,,,,,,,,,,,,,,,,,,,,,,,,,,,,,,,,,,,,,,,,,,,,,,,,,,,,,,,,,,,,,,,,,,,,,,,,,,,,,,,,,,,,,,,,,,,,,,,,,,,,,,,,,,,,,,,,,
,392002593306,BCA,21/06/2000,001,2023-04-05_16h54.51.758,OS3_Mult_verification,2022.2.4,Win32,60.17571308,,,54,1.1308,1,"[""5"",""4"",""return""]","[0.7849999999999966,0.9677999999523195,1.0998999999761736]",1,9,40,25,1,54,,,,,,,,,,,,,,,,,,,,,,,,,,,,,,,,,,,,,,,,,,,,,,,,,,,,,,,,,,,,,,,,,,,,,,,,,,,,,,,,,,,,,,,,,,,,,,,,,,,,,,,,,,,,,,,,,,,,,,,,,,,,,,,,,,,,,,,,,,,,,,,,,,,,,,,,,,,,,,,,,
,392002593306,BCA,21/06/2000,001,2023-04-05_16h54.51.758,OS3_Mult_verification,2022.2.4,Win32,60.17571308,,,42,1.4997,1,"[""4"",""2"",""return""]","[0.7498999999761509,1.1498999999761566,1.4664999999999964]",1,10,41,21,1,42,,,,,,,,,,,,,,,,,,,,,,,,,,,,,,,,,,,,,,,,,,,,,,,,,,,,,,,,,,,,,,,,,,,,,,,,,,,,,,,,,,,,,,,,,,,,,,,,,,,,,,,,,,,,,,,,,,,,,,,,,,,,,,,,,,,,,,,,,,,,,,,,,,,,,,,,,,,,,,,,,
,392002593306,BCA,21/06/2000,001,2023-04-05_16h54.51.758,OS3_Mult_verification,2022.2.4,Win32,60.17571308,,,72,1.6169,1,"[""7"",""2"",""return""]","[0.9512999999523117,1.4336999999284785,1.5845999999046398]",1,11,42,29,1,72,,,,,,,,,,,,,,,,,,,,,,,,,,,,,,,,,,,,,,,,,,,,,,,,,,,,,,,,,,,,,,,,,,,,,,,,,,,,,,,,,,,,,,,,,,,,,,,,,,,,,,,,,,,,,,,,,,,,,,,,,,,,,,,,,,,,,,,,,,,,,,,,,,,,,,,,,,,,,,,,,
,392002593306,BCA,21/06/2000,001,2023-04-05_16h54.51.758,OS3_Mult_verification,2022.2.4,Win32,60.17571308,,,30,1.266,1,"[""3"",""0"",""return""]","[0.9011999999284512,1.068299999952302,1.2336000000238414]",1,12,43,16,1,30,,,,,,,,,,,,,,,,,,,,,,,,,,,,,,,,,,,,,,,,,,,,,,,,,,,,,,,,,,,,,,,,,,,,,,,,,,,,,,,,,,,,,,,,,,,,,,,,,,,,,,,,,,,,,,,,,,,,,,,,,,,,,,,,,,,,,,,,,,,,,,,,,,,,,,,,,,,,,,,,,
,392002593306,BCA,21/06/2000,001,2023-04-05_16h54.51.758,OS3_Mult_verification,2022.2.4,Win32,60.17571308,,,10,1.0166,1,"[""1"",""0"",""return""]","[0.600900000095379,0.7332000000477024,0.9825000000000159]",1,13,44,4,1,10,,,,,,,,,,,,,,,,,,,,,,,,,,,,,,,,,,,,,,,,,,,,,,,,,,,,,,,,,,,,,,,,,,,,,,,,,,,,,,,,,,,,,,,,,,,,,,,,,,,,,,,,,,,,,,,,,,,,,,,,,,,,,,,,,,,,,,,,,,,,,,,,,,,,,,,,,,,,,,,,,
,392002593306,BCA,21/06/2000,001,2023-04-05_16h54.51.758,OS3_Mult_verification,2022.2.4,Win32,60.17571308,,,21,0.9673,1,"[""2"",""1"",""return""]","[0.7034999999999911,0.7853000000715156,0.9343000000715165]",1,14,45,11,1,21,,,,,,,,,,,,,,,,,,,,,,,,,,,,,,,,,,,,,,,,,,,,,,,,,,,,,,,,,,,,,,,,,,,,,,,,,,,,,,,,,,,,,,,,,,,,,,,,,,,,,,,,,,,,,,,,,,,,,,,,,,,,,,,,,,,,,,,,,,,,,,,,,,,,,,,,,,,,,,,,,
,392002593306,BCA,21/06/2000,001,2023-04-05_16h54.51.758,OS3_Mult_verification,2022.2.4,Win32,60.17571308,,,15,1.0665,1,"[""1"",""5"",""return""]","[0.6175000000000068,0.9173000000715206,1.03420000004769]",1,15,46,7,1,15,,,,,,,,,,,,,,,,,,,,,,,,,,,,,,,,,,,,,,,,,,,,,,,,,,,,,,,,,,,,,,,,,,,,,,,,,,,,,,,,,,,,,,,,,,,,,,,,,,,,,,,,,,,,,,,,,,,,,,,,,,,,,,,,,,,,,,,,,,,,,,,,,,,,,,,,,,,,,,,,,
,392002593306,BCA,21/06/2000,001,2023-04-05_16h54.51.758,OS3_Mult_verification,2022.2.4,Win32,60.17571308,,,6,1.0493,1,"[""6"",""return""]","[0.9003000000715247,1.0166000000238284]",1,16,47,1,1,6,,,,,,,,,,,,,,,,,,,,,,,,,,,,,,,,,,,,,,,,,,,,,,,,,,,,,,,,,,,,,,,,,,,,,,,,,,,,,,,,,,,,,,,,,,,,,,,,,,,,,,,,,,,,,,,,,,,,,,,,,,,,,,,,,,,,,,,,,,,,,,,,,,,,,,,,,,,,,,,,,
,392002593306,BCA,21/06/2000,001,2023-04-05_16h54.51.758,OS3_Mult_verification,2022.2.4,Win32,60.17571308,,,16,1.1161,1,"[""1"",""6"",""return""]","[0.6337999999523163,0.9668999999761638,1.0837000000476849]",1,17,48,8,1,16,,,,,,,,,,,,,,,,,,,,,,,,,,,,,,,,,,,,,,,,,,,,,,,,,,,,,,,,,,,,,,,,,,,,,,,,,,,,,,,,,,,,,,,,,,,,,,,,,,,,,,,,,,,,,,,,,,,,,,,,,,,,,,,,,,,,,,,,,,,,,,,,,,,,,,,,,,,,,,,,,
,392002593306,BCA,21/06/2000,001,2023-04-05_16h54.51.758,OS3_Mult_verification,2022.2.4,Win32,60.17571308,,,63,1.8151,1,"[""6"",""3"",""return""]","[0.9332999999523395,1.5998999999761736,1.7833999999761545]",1,18,49,27,1,63,,,,,,,,,,,,,,,,,,,,,,,,,,,,,,,,,,,,,,,,,,,,,,,,,,,,,,,,,,,,,,,,,,,,,,,,,,,,,,,,,,,,,,,,,,,,,,,,,,,,,,,,,,,,,,,,,,,,,,,,,,,,,,,,,,,,,,,,,,,,,,,,,,,,,,,,,,,,,,,,,
,392002593306,BCA,21/06/2000,001,2023-04-05_16h54.51.758,OS3_Mult_verification,2022.2.4,Win32,60.17571308,,,8,1.4667,1,"[""8"",""return""]","[1.2830999999046355,1.433299999952311]",1,19,50,2,1,8,,,,,,,,,,,,,,,,,,,,,,,,,,,,,,,,,,,,,,,,,,,,,,,,,,,,,,,,,,,,,,,,,,,,,,,,,,,,,,,,,,,,,,,,,,,,,,,,,,,,,,,,,,,,,,,,,,,,,,,,,,,,,,,,,,,,,,,,,,,,,,,,,,,,,,,,,,,,,,,,,
,392002593306,BCA,21/06/2000,001,2023-04-05_16h54.51.758,OS3_Mult_verification,2022.2.4,Win32,60.17571308,,,9,1.283,1,"[""9"",""return""]","[1.0843999999761706,1.25]",1,20,51,3,1,9,,,,,,,,,,,,,,,,,,,,,,,,,,,,,,,,,,,,,,,,,,,,,,,,,,,,,,,,,,,,,,,,,,,,,,,,,,,,,,,,,,,,,,,,,,,,,,,,,,,,,,,,,,,,,,,,,,,,,,,,,,,,,,,,,,,,,,,,,,,,,,,,,,,,,,,,,,,,,,,,,
,392002593306,BCA,21/06/2000,001,2023-04-05_16h54.51.758,OS3_Mult_verification,2022.2.4,Win32,60.17571308,,,64,1.451,1,"[""6"",""4"",""return""]","[1.067100000023828,1.3007000000476694,1.416400000095365]",1,21,52,28,1,64,,,,,,,,,,,,,,,,,,,,,,,,,,,,,,,,,,,,,,,,,,,,,,,,,,,,,,,,,,,,,,,,,,,,,,,,,,,,,,,,,,,,,,,,,,,,,,,,,,,,,,,,,,,,,,,,,,,,,,,,,,,,,,,,,,,,,,,,,,,,,,,,,,,,,,,,,,,,,,,,,
,392002593306,BCA,21/06/2000,001,2023-04-05_16h54.51.758,OS3_Mult_verification,2022.2.4,Win32,60.17571308,,,36,1.2782,1,"[""3"",""6"",""return""]","[0.784100000023841,1.103600000023846,1.242999999999995]",1,22,53,19,1,36,,,,,,,,,,,,,,,,,,,,,,,,,,,,,,,,,,,,,,,,,,,,,,,,,,,,,,,,,,,,,,,,,,,,,,,,,,,,,,,,,,,,,,,,,,,,,,,,,,,,,,,,,,,,,,,,,,,,,,,,,,,,,,,,,,,,,,,,,,,,,,,,,,,,,,,,,,,,,,,,,
,392002593306,BCA,21/06/2000,001,2023-04-05_16h54.51.758,OS3_Mult_verification,2022.2.4,Win32,60.17571308,,,28,1.233,1,"[""2"",""8"",""return""]","[0.6250999999046485,1.0543999999761695,1.1876999999284692]",1,23,54,15,1,28,,,,,,,,,,,,,,,,,,,,,,,,,,,,,,,,,,,,,,,,,,,,,,,,,,,,,,,,,,,,,,,,,,,,,,,,,,,,,,,,,,,,,,,,,,,,,,,,,,,,,,,,,,,,,,,,,,,,,,,,,,,,,,,,,,,,,,,,,,,,,,,,,,,,,,,,,,,,,,,,,
,392002593306,BCA,21/06/2000,001,2023-04-05_16h54.51.758,OS3_Mult_verification,2022.2.4,Win32,60.17571308,,,35,1.2772,1,"[""3"",""5"",""return""]","[0.8836999999284672,1.0002999999523183,1.234499999999997]",1,24,55,18,1,35,,,,,,,,,,,,,,,,,,,,,,,,,,,,,,,,,,,,,,,,,,,,,,,,,,,,,,,,,,,,,,,,,,,,,,,,,,,,,,,,,,,,,,,,,,,,,,,,,,,,,,,,,,,,,,,,,,,,,,,,,,,,,,,,,,,,,,,,,,,,,,,,,,,,,,,,,,,,,,,,,
,392002593306,BCA,21/06/2000,001,2023-04-05_16h54.51.758,OS3_Mult_verification,2022.2.4,Win32,60.17571308,,,12,0.9377,1,"[""1"",""2"",""return""]","[0.6376000000238378,0.7210000000000036,0.8947000000476919]",1,25,56,5,1,12,,,,,,,,,,,,,,,,,,,,,,,,,,,,,,,,,,,,,,,,,,,,,,,,,,,,,,,,,,,,,,,,,,,,,,,,,,,,,,,,,,,,,,,,,,,,,,,,,,,,,,,,,,,,,,,,,,,,,,,,,,,,,,,,,,,,,,,,,,,,,,,,,,,,,,,,,,,,,,,,,
,392002593306,BCA,21/06/2000,001,2023-04-05_16h54.51.758,OS3_Mult_verification,2022.2.4,Win32,60.17571308,,,18,1.5886,1,"[""1"",""8"",""return""]","[0.6005000000000109,1.2190000000000225,1.5480000000000018]",1,26,57,9,1,18,,,,,,,,,,,,,,,,,,,,,,,,,,,,,,,,,,,,,,,,,,,,,,,,,,,,,,,,,,,,,,,,,,,,,,,,,,,,,,,,,,,,,,,,,,,,,,,,,,,,,,,,,,,,,,,,,,,,,,,,,,,,,,,,,,,,,,,,,,,,,,,,,,,,,,,,,,,,,,,,,
,392002593306,BCA,21/06/2000,001,2023-04-05_16h54.51.758,OS3_Mult_verification,2022.2.4,Win32,60.17571308,,,24,1.0992,1,"[""2"",""4"",""return""]","[0.7337999999523106,0.8516000000238364,1.0518999999761434]",1,27,58,12,1,24,,,,,,,,,,,,,,,,,,,,,,,,,,,,,,,,,,,,,,,,,,,,,,,,,,,,,,,,,,,,,,,,,,,,,,,,,,,,,,,,,,,,,,,,,,,,,,,,,,,,,,,,,,,,,,,,,,,,,,,,,,,,,,,,,,,,,,,,,,,,,,,,,,,,,,,,,,,,,,,,,
,392002593306,BCA,21/06/2000,001,2023-04-05_16h54.51.758,OS3_Mult_verification,2022.2.4,Win32,60.17571308,,,81,1.6882,1,"[""8"",""1"",""return""]","[1.1193999999761672,1.4519999999999982,1.6496999999284867]",1,28,59,30,1,81,,,,,,,,,,,,,,,,,,,,,,,,,,,,,,,,,,,,,,,,,,,,,,,,,,,,,,,,,,,,,,,,,,,,,,,,,,,,,,,,,,,,,,,,,,,,,,,,,,,,,,,,,,,,,,,,,,,,,,,,,,,,,,,,,,,,,,,,,,,,,,,,,,,,,,,,,,,,,,,,,
,392002593306,BCA,21/06/2000,001,2023-04-05_16h54.51.758,OS3_Mult_verification,2022.2.4,Win32,60.17571308,,,48,1.4496,1,"[""4"",""8"",""return""]","[0.919299999952301,1.2519999999999811,1.408799999952322]",1,29,60,23,1,48,,,,,,,,,,,,,,,,,,,,,,,,,,,,,,,,,,,,,,,,,,,,,,,,,,,,,,,,,,,,,,,,,,,,,,,,,,,,,,,,,,,,,,,,,,,,,,,,,,,,,,,,,,,,,,,,,,,,,,,,,,,,,,,,,,,,,,,,,,,,,,,,,,,,,,,,,,,,,,,,,
,392002593306,BCA,21/06/2000,001,2023-04-05_16h54.51.758,OS3_Mult_verification,2022.2.4,Win32,60.17571308,,,25,1.2493,1,"[""2"",""5"",""return""]","[0.7220000000000084,1.0669000000953872,1.2164999999999964]",1,30,61,13,1,25,,,,,,,,,,,,,,,,,,,,,,,,,,,,,,,,,,,,,,,,,,,,,,,,,,,,,,,,,,,,,,,,,,,,,,,,,,,,,,,,,,,,,,,,,,,,,,,,,,,,,,,,,,,,,,,,,,,,,,,,,,,,,,,,,,,,,,,,,,,,,,,,,,,,,,,,,,,,,,,,,
,392002593306,BCA,21/06/2000,001,2023-04-05_16h54.51.758,OS3_Mult_verification,2022.2.4,Win32,60.17571308,,,,,,,,,,,,,,space,11.6262,,,,,,,,,,,,,,,,,,,,,,,,,,,,,,,,,,,,,,,,,,,,,,,,,,,,,,,,,,,,,,,,,,,,,,,,,,,,,,,,,,,,,,,,,,,,,,,,,,,,,,,,,,,,,,,,,,,,,,,,,,,,,,,,,,,,,,,,,,,,,,,,,,,,,,,,,,,,,,,
,392002593306,BCA,21/06/2000,001,2023-04-05_16h54.51.758,OS3_Mult_verification,2022.2.4,Win32,60.17571308,,,,,,,,,,,,,,,,,,,,,,,,,,,,,,,,,,,,,,,,,,,,,,,,,,,,,,,,,,,,,,,,,,,,,,,,,,,,,,,,,,,,,,,,,,,,,,,,,,,,,,,,,,,,,,,,,,,,,,,,,,,,,,,,,,,,,,,,,,,,,,,,,,,,,,,,,,,,,,,,,,,,,,,,,,,,,,
,392002593306,BCA,21/06/2000,001,2023-04-05_16h54.51.758,OS3_Mult_verification,2022.2.4,Win32,60.17571308,,,,,,,,,,,,,,,,space,1.1424,,,,,,,,,,,,,,,,,,,,,,,,,,,,,,,,,,,,,,,,,,,,,,,,,,,,,,,,,,,,,,,,,,,,,,,,,,,,,,,,,,,,,,,,,,,,,,,,,,,,,,,,,,,,,,,,,,,,,,,,,,,,,,,,,,,,,,,,,,,,,,,,,,,,,,,,,,,,,
,392002593306,BCA,21/06/2000,001,2023-04-05_16h54.51.758,OS3_Mult_verification,2022.2.4,Win32,60.17571308,,,,,,,,,,,,,,,,,,20,1.6979,1,"[""2"",""0"",""return""]","[1.0610999999046271,1.1793999999761695,1.394399999976173]",0,0,0,1,1,2 × 10 =,20,,,,,,,,,,,,,,,,,,,,,,,,,,,,,,,,,,,,,,,,,,,,,,,,,,,,,,,,,,,,,,,,,,,,,,,,,,,,,,,,,,,,,,,,,,,,,,,,,,,,,,,,,,,,,,,,,,,,,,,,,,,,,,,,,,,,,,,,,,,,,,,,,
,392002593306,BCA,21/06/2000,001,2023-04-05_16h54.51.758,OS3_Mult_verification,2022.2.4,Win32,60.17571308,,,,,,,,,,,,,,,,,,22,1.532,1,"[""2"",""2"",""return""]","[0.9995999999046319,1.1165999999046505,1.241500000000002]",0,1,1,2,1,2 × 11 =,22,,,,,,,,,,,,,,,,,,,,,,,,,,,,,,,,,,,,,,,,,,,,,,,,,,,,,,,,,,,,,,,,,,,,,,,,,,,,,,,,,,,,,,,,,,,,,,,,,,,,,,,,,,,,,,,,,,,,,,,,,,,,,,,,,,,,,,,,,,,,,,,,,
,392002593306,BCA,21/06/2000,001,2023-04-05_16h54.51.758,OS3_Mult_verification,2022.2.4,Win32,60.17571308,,,,,,,,,,,,,,,,,,7,1.493,1,"[""7"",""return""]","[1.1193000000715188,1.206100000023838]",0,2,2,0,1,1 × 7 =,7,,,,,,,,,,,,,,,,,,,,,,,,,,,,,,,,,,,,,,,,,,,,,,,,,,,,,,,,,,,,,,,,,,,,,,,,,,,,,,,,,,,,,,,,,,,,,,,,,,,,,,,,,,,,,,,,,,,,,,,,,,,,,,,,,,,,,,,,,,,,,,,,,
,392002593306,BCA,21/06/2000,001,2023-04-05_16h54.51.758,OS3_Mult_verification,2022.2.4,Win32,60.17571308,,,,,,,,,,,,,,,,,,,,,,,,,,,,,,,,,,,,,,,,,,,,,,,,,,,,,,,,,,,,,,,,,,,,,,,,,,,,,,,,,,,,,,,,,,,,,,,,,,,,,,,,,,,,,,,,,,,,,,,,,,,,,,,,,,,,,,,,,,,,,,,,,,,,,,,,,,,,,,,,,,,,,,,,,,,,,,
,392002593306,BCA,21/06/2000,001,2023-04-05_16h54.51.758,OS3_Mult_verification,2022.2.4,Win32,60.17571308,,,,,,,,,,,,,,,,,,,,,,,,,,,,,,,,,,,,,,,,,,,,,,,,,,,,,,,,,,,,,,,,,,,,,,,,,,,,,,,,,,,,,,,,,,,,,,,,,,,,,,,,,,,,,,,,,,,,,,,,,,,,,,,,,,,,,,,,,,,,,,,,,,,,,,,,,,,,,,,,,,,,,,,,,,,,,,
,392002593306,BCA,21/06/2000,001,2023-04-05_16h54.51.758,OS3_Mult_verification,2022.2.4,Win32,60.17571308,,,,,,,,,,,,,,,,,,6,1.9777,1,"[""6"",""return""]","[1.5153000000715338,1.6813000000715306]",,,,,,2 × 3 =,6,0,0,0,0,1,,,,,,,,,,,,,,,,,,,,,,,,,,,,,,,,,,,,,,,,,,,,,,,,,,,,,,,,,,,,,,,,,,,,,,,,,,,,,,,,,,,,,,,,,,,,,,,,,,,,,,,,,,,,,,,,,,,,,,,,,,,,,,,,,,,,,,,,,,,,
,392002593306,BCA,21/06/2000,001,2023-04-05_16h54.51.758,OS3_Mult_verification,2022.2.4,Win32,60.17571308,,,,,,,,,,,,,,,,,,40,1.7158,1,"[""4"",""0"",""return""]","[0.9828000000715065,1.191500000000019,1.415300000071511]",,,,,,5 × 8 =,40,0,1,1,1,1,,,,,,,,,,,,,,,,,,,,,,,,,,,,,,,,,,,,,,,,,,,,,,,,,,,,,,,,,,,,,,,,,,,,,,,,,,,,,,,,,,,,,,,,,,,,,,,,,,,,,,,,,,,,,,,,,,,,,,,,,,,,,,,,,,,,,,,,,,,,
,392002593306,BCA,21/06/2000,001,2023-04-05_16h54.51.758,OS3_Mult_verification,2022.2.4,Win32,60.17571308,,,,,,,,,,,,,,,,,,12,1.9659,1,"[""2"",""backspace"",""1"",""2"",""return""]","[0.787200000047676,1.1733999999761409,1.3832000000476796,1.5036000000238232,1.6747000000476646]",,,,,,3 × 4 =,12,0,2,2,2,1,,,,,,,,,,,,,,,,,,,,,,,,,,,,,,,,,,,,,,,,,,,,,,,,,,,,,,,,,,,,,,,,,,,,,,,,,,,,,,,,,,,,,,,,,,,,,,,,,,,,,,,,,,,,,,,,,,,,,,,,,,,,,,,,,,,,,,,,,,,,
,392002593306,BCA,21/06/2000,001,2023-04-05_16h54.51.758,OS3_Mult_verification,2022.2.4,Win32,60.17571308,,,,,,,,,,,,,,,,,,15,1.7489,1,"[""1"",""5"",""return""]","[0.8342000000476446,1.3513000000714896,1.4591000000238523]",,,,,,5 × 3 =,15,0,3,3,3,1,,,,,,,,,,,,,,,,,,,,,,,,,,,,,,,,,,,,,,,,,,,,,,,,,,,,,,,,,,,,,,,,,,,,,,,,,,,,,,,,,,,,,,,,,,,,,,,,,,,,,,,,,,,,,,,,,,,,,,,,,,,,,,,,,,,,,,,,,,,,
,392002593306,BCA,21/06/2000,001,2023-04-05_16h54.51.758,OS3_Mult_verification,2022.2.4,Win32,60.17571308,,,,,,,,,,,,,,,,,,8,1.4489,1,"[""8"",""return""]","[1.0543999999761695,1.1537000000477065]",,,,,,2 × 4 =,8,0,4,4,4,1,,,,,,,,,,,,,,,,,,,,,,,,,,,,,,,,,,,,,,,,,,,,,,,,,,,,,,,,,,,,,,,,,,,,,,,,,,,,,,,,,,,,,,,,,,,,,,,,,,,,,,,,,,,,,,,,,,,,,,,,,,,,,,,,,,,,,,,,,,,,
,392002593306,BCA,21/06/2000,001,2023-04-05_16h54.51.758,OS3_Mult_verification,2022.2.4,Win32,60.17571308,,,,,,,,,,,,,,,,,,4,1.3326,1,"[""4"",""return""]","[0.9492999999523022,1.0403999999761595]",,,,,,2 × 2 =,4,0,5,5,5,1,,,,,,,,,,,,,,,,,,,,,,,,,,,,,,,,,,,,,,,,,,,,,,,,,,,,,,,,,,,,,,,,,,,,,,,,,,,,,,,,,,,,,,,,,,,,,,,,,,,,,,,,,,,,,,,,,,,,,,,,,,,,,,,,,,,,,,,,,,,,
,392002593306,BCA,21/06/2000,001,2023-04-05_16h54.51.758,OS3_Mult_verification,2022.2.4,Win32,60.17571308,,,,,,,,,,,,,,,,,,20,1.7329,1,"[""2"",""0"",""return""]","[1.0022000000477078,1.3358000000715151,1.4377000000476983]",,,,,,4 × 5 =,20,0,6,6,6,1,,,,,,,,,,,,,,,,,,,,,,,,,,,,,,,,,,,,,,,,,,,,,,,,,,,,,,,,,,,,,,,,,,,,,,,,,,,,,,,,,,,,,,,,,,,,,,,,,,,,,,,,,,,,,,,,,,,,,,,,,,,,,,,,,,,,,,,,,,,,
,392002593306,BCA,21/06/2000,001,2023-04-05_16h54.51.758,OS3_Mult_verification,2022.2.4,Win32,60.17571308,,,,,,,,,,,,,,,,,,9,1.6324,1,"[""9"",""return""]","[1.2178999999761686,1.3312999999523072]",,,,,,3 × 3 =,9,0,7,7,7,1,,,,,,,,,,,,,,,,,,,,,,,,,,,,,,,,,,,,,,,,,,,,,,,,,,,,,,,,,,,,,,,,,,,,,,,,,,,,,,,,,,,,,,,,,,,,,,,,,,,,,,,,,,,,,,,,,,,,,,,,,,,,,,,,,,,,,,,,,,,,
,392002593306,BCA,21/06/2000,001,2023-04-05_16h54.51.758,OS3_Mult_verification,2022.2.4,Win32,60.17571308,,,,,,,,,,,,,,,,,,10,1.4659,1,"[""1"",""0"",""return""]","[0.7521000000238587,0.9802000000477165,1.1753999999762073]",,,,,,5 × 2 =,10,0,8,8,8,1,,,,,,,,,,,,,,,,,,,,,,,,,,,,,,,,,,,,,,,,,,,,,,,,,,,,,,,,,,,,,,,,,,,,,,,,,,,,,,,,,,,,,,,,,,,,,,,,,,,,,,,,,,,,,,,,,,,,,,,,,,,,,,,,,,,,,,,,,,,,
,392002593306,BCA,21/06/2000,001,2023-04-05_16h54.51.758,OS3_Mult_verification,2022.2.4,Win32,60.17571308,,,,,,,,,,,,,,,,,,16,1.6992,1,"[""1"",""6"",""return""]","[0.7816000000238432,1.2744000000953974,1.4056000000238669]",,,,,,4 × 4 =,16,0,9,9,9,1,,,,,,,,,,,,,,,,,,,,,,,,,,,,,,,,,,,,,,,,,,,,,,,,,,,,,,,,,,,,,,,,,,,,,,,,,,,,,,,,,,,,,,,,,,,,,,,,,,,,,,,,,,,,,,,,,,,,,,,,,,,,,,,,,,,,,,,,,,,,
,392002593306,BCA,21/06/2000,001,2023-04-05_16h54.51.758,OS3_Mult_verification,2022.2.4,Win32,60.17571308,,,,,,,,,,,,,,,,,,24,1.7328,1,"[""2"",""4"",""return""]","[1.137700000047687,1.2653999999761822,1.4322000000477146]",,,,,,8 × 3 =,24,0,10,10,10,1,,,,,,,,,,,,,,,,,,,,,,,,,,,,,,,,,,,,,,,,,,,,,,,,,,,,,,,,,,,,,,,,,,,,,,,,,,,,,,,,,,,,,,,,,,,,,,,,,,,,,,,,,,,,,,,,,,,,,,,,,,,,,,,,,,,,,,,,,,,,
,392002593306,BCA,21/06/2000,001,2023-04-05_16h54.51.758,OS3_Mult_verification,2022.2.4,Win32,60.17571308,,,,,,,,,,,,,,,,,,30,1.7989,1,"[""3"",""0"",""return""]","[1.1825000000000045,1.3342000000477015,1.4987999999523254]",,,,,,6 × 5 =,30,0,11,11,11,1,,,,,,,,,,,,,,,,,,,,,,,,,,,,,,,,,,,,,,,,,,,,,,,,,,,,,,,,,,,,,,,,,,,,,,,,,,,,,,,,,,,,,,,,,,,,,,,,,,,,,,,,,,,,,,,,,,,,,,,,,,,,,,,,,,,,,,,,,,,,
,392002593306,BCA,21/06/2000,001,2023-04-05_16h54.51.758,OS3_Mult_verification,2022.2.4,Win32,60.17571308,,,,,,,,,,,,,,,,,,14,1.3829,1,"[""1"",""4"",""return""]","[0.7986000000238391,1.0260000000000105,1.0919999999999845]",,,,,,7 × 2 =,14,0,12,12,12,1,,,,,,,,,,,,,,,,,,,,,,,,,,,,,,,,,,,,,,,,,,,,,,,,,,,,,,,,,,,,,,,,,,,,,,,,,,,,,,,,,,,,,,,,,,,,,,,,,,,,,,,,,,,,,,,,,,,,,,,,,,,,,,,,,,,,,,,,,,,,
,392002593306,BCA,21/06/2000,001,2023-04-05_16h54.51.758,OS3_Mult_verification,2022.2.4,Win32,60.17571308,,,,,,,,,,,,,,,,,,27,1.8318,1,"[""2"",""7"",""return""]","[1.0889999999999986,1.43389999997612,1.5419999999999732]",,,,,,3 × 9 =,27,0,13,13,13,1,,,,,,,,,,,,,,,,,,,,,,,,,,,,,,,,,,,,,,,,,,,,,,,,,,,,,,,,,,,,,,,,,,,,,,,,,,,,,,,,,,,,,,,,,,,,,,,,,,,,,,,,,,,,,,,,,,,,,,,,,,,,,,,,,,,,,,,,,,,,
,392002593306,BCA,21/06/2000,001,2023-04-05_16h54.51.758,OS3_Mult_verification,2022.2.4,Win32,60.17571308,,,,,,,,,,,,,,,,,,16,1.583,1,"[""1"",""6"",""return""]","[0.7836000000237959,1.197999999999979,1.2853999999761072]",,,,,,2 × 8 =,16,0,14,14,14,1,,,,,,,,,,,,,,,,,,,,,,,,,,,,,,,,,,,,,,,,,,,,,,,,,,,,,,,,,,,,,,,,,,,,,,,,,,,,,,,,,,,,,,,,,,,,,,,,,,,,,,,,,,,,,,,,,,,,,,,,,,,,,,,,,,,,,,,,,,,,
,392002593306,BCA,21/06/2000,001,2023-04-05_16h54.51.758,OS3_Mult_verification,2022.2.4,Win32,60.17571308,,,,,,,,,,,,,,,,,,24,1.6157,1,"[""2"",""4"",""return""]","[1.0336000000238528,1.156399999976145,1.3247000000476987]",,,,,,4 × 6 =,24,0,15,15,15,1,,,,,,,,,,,,,,,,,,,,,,,,,,,,,,,,,,,,,,,,,,,,,,,,,,,,,,,,,,,,,,,,,,,,,,,,,,,,,,,,,,,,,,,,,,,,,,,,,,,,,,,,,,,,,,,,,,,,,,,,,,,,,,,,,,,,,,,,,,,,
,392002593306,BCA,21/06/2000,001,2023-04-05_16h54.51.758,OS3_Mult_verification,2022.2.4,Win32,60.17571308,,,,,,,,,,,,,,,,,,21,1.5489,1,"[""2"",""1"",""return""]","[1.0026000000238469,1.087399999976185,1.2486000000238278]",,,,,,7 × 3 =,21,0,16,16,16,1,,,,,,,,,,,,,,,,,,,,,,,,,,,,,,,,,,,,,,,,,,,,,,,,,,,,,,,,,,,,,,,,,,,,,,,,,,,,,,,,,,,,,,,,,,,,,,,,,,,,,,,,,,,,,,,,,,,,,,,,,,,,,,,,,,,,,,,,,,,,
,392002593306,BCA,21/06/2000,001,2023-04-05_16h54.51.758,OS3_Mult_verification,2022.2.4,Win32,60.17571308,,,,,,,,,,,,,,,,,,27,2.7159,1,"[""2"",""7"",""return""]","[2.016600000023857,2.324799999952347,2.423399999976141]",,,,,,9 × 3 =,27,0,17,17,17,1,,,,,,,,,,,,,,,,,,,,,,,,,,,,,,,,,,,,,,,,,,,,,,,,,,,,,,,,,,,,,,,,,,,,,,,,,,,,,,,,,,,,,,,,,,,,,,,,,,,,,,,,,,,,,,,,,,,,,,,,,,,,,,,,,,,,,,,,,,,,
,392002593306,BCA,21/06/2000,001,2023-04-05_16h54.51.758,OS3_Mult_verification,2022.2.4,Win32,60.17571308,,,,,,,,,,,,,,,,,,28,1.8765,1,"[""2"",""8"",""return""]","[0.9987000000476769,1.424799999952313,1.583899999976154]",,,,,,4 × 7 =,28,0,18,18,18,1,,,,,,,,,,,,,,,,,,,,,,,,,,,,,,,,,,,,,,,,,,,,,,,,,,,,,,,,,,,,,,,,,,,,,,,,,,,,,,,,,,,,,,,,,,,,,,,,,,,,,,,,,,,,,,,,,,,,,,,,,,,,,,,,,,,,,,,,,,,,
,392002593306,BCA,21/06/2000,001,2023-04-05_16h54.51.758,OS3_Mult_verification,2022.2.4,Win32,60.17571308,,,,,,,,,,,,,,,,,,18,1.6986,1,"[""1"",""8"",""return""]","[0.8861999999285217,1.2983999999761977,1.40069999992852]",,,,,,2 × 9 =,18,0,19,19,19,1,,,,,,,,,,,,,,,,,,,,,,,,,,,,,,,,,,,,,,,,,,,,,,,,,,,,,,,,,,,,,,,,,,,,,,,,,,,,,,,,,,,,,,,,,,,,,,,,,,,,,,,,,,,,,,,,,,,,,,,,,,,,,,,,,,,,,,,,,,,,
,392002593306,BCA,21/06/2000,001,2023-04-05_16h54.51.758,OS3_Mult_verification,2022.2.4,Win32,60.17571308,,,,,,,,,,,,,,,,,,72,4.0826,1,"[""6"",""7"",""backspace"",""backspace"",""7"",""2"",""return""]","[1.8348000000715388,1.8530000000000086,2.5848000000715388,2.905700000047659,3.2017000000476514,3.6842000000476673,3.7917000000476833]",,,,,,9 × 8 =,72,0,20,20,20,1,,,,,,,,,,,,,,,,,,,,,,,,,,,,,,,,,,,,,,,,,,,,,,,,,,,,,,,,,,,,,,,,,,,,,,,,,,,,,,,,,,,,,,,,,,,,,,,,,,,,,,,,,,,,,,,,,,,,,,,,,,,,,,,,,,,,,,,,,,,,
,392002593306,BCA,21/06/2000,001,2023-04-05_16h54.51.758,OS3_Mult_verification,2022.2.4,Win32,60.17571308,,,,,,,,,,,,,,,,,,42,2.5025,1,"[""4"",""2"",""return""]","[1.899499999999989,2.1018000000715347,2.2168000000715438]",,,,,,7 × 6 =,42,0,21,21,21,1,,,,,,,,,,,,,,,,,,,,,,,,,,,,,,,,,,,,,,,,,,,,,,,,,,,,,,,,,,,,,,,,,,,,,,,,,,,,,,,,,,,,,,,,,,,,,,,,,,,,,,,,,,,,,,,,,,,,,,,,,,,,,,,,,,,,,,,,,,,,
,392002593306,BCA,21/06/2000,001,2023-04-05_16h54.51.758,OS3_Mult_verification,2022.2.4,Win32,60.17571308,,,,,,,,,,,,,,,,,,54,2.0326,1,"[""5"",""4"",""return""]","[1.4233999999761409,1.5593000000715165,1.7328000000715065]",,,,,,6 × 9 =,54,0,22,22,22,1,,,,,,,,,,,,,,,,,,,,,,,,,,,,,,,,,,,,,,,,,,,,,,,,,,,,,,,,,,,,,,,,,,,,,,,,,,,,,,,,,,,,,,,,,,,,,,,,,,,,,,,,,,,,,,,,,,,,,,,,,,,,,,,,,,,,,,,,,,,,
,392002593306,BCA,21/06/2000,001,2023-04-05_16h54.51.758,OS3_Mult_verification,2022.2.4,Win32,60.17571308,,,,,,,,,,,,,,,,,,45,3.5494,1,"[""4"",""5"",""return""]","[3.0360000000000014,3.126699999928519,3.2571999999285026]",,,,,,9 × 5 =,45,0,23,23,23,1,,,,,,,,,,,,,,,,,,,,,,,,,,,,,,,,,,,,,,,,,,,,,,,,,,,,,,,,,,,,,,,,,,,,,,,,,,,,,,,,,,,,,,,,,,,,,,,,,,,,,,,,,,,,,,,,,,,,,,,,,,,,,,,,,,,,,,,,,,,,
,392002593306,BCA,21/06/2000,001,2023-04-05_16h54.51.758,OS3_Mult_verification,2022.2.4,Win32,60.17571308,,,,,,,,,,,,,,,,,,56,2.2919,1,"[""5"",""6"",""return""]","[1.773600000023805,1.872000000000014,1.997299999952304]",,,,,,8 × 7 =,56,0,24,24,24,1,,,,,,,,,,,,,,,,,,,,,,,,,,,,,,,,,,,,,,,,,,,,,,,,,,,,,,,,,,,,,,,,,,,,,,,,,,,,,,,,,,,,,,,,,,,,,,,,,,,,,,,,,,,,,,,,,,,,,,,,,,,,,,,,,,,,,,,,,,,,
,392002593306,BCA,21/06/2000,001,2023-04-05_16h54.51.758,OS3_Mult_verification,2022.2.4,Win32,60.17571308,,,,,,,,,,,,,,,,,,37,2.5487,0,"[""3"",""7"",""return"",""backspace""]","[1.0486000000238391,1.4316000000238205,2.2506000000238373,2.2641000000238023]",,,,,,6 × 6 =,36,0,25,25,25,1,,,,,,,,,,,,,,,,,,,,,,,,,,,,,,,,,,,,,,,,,,,,,,,,,,,,,,,,,,,,,,,,,,,,,,,,,,,,,,,,,,,,,,,,,,,,,,,,,,,,,,,,,,,,,,,,,,,,,,,,,,,,,,,,,,,,,,,,,,,,
,392002593306,BCA,21/06/2000,001,2023-04-05_16h54.51.758,OS3_Mult_verification,2022.2.4,Win32,60.17571308,,,,,,,,,,,,,,,,,,35,2.1489,1,"[""3"",""5"",""return""]","[1.4990000000000236,1.6341000000238637,1.853300000071556]",,,,,,5 × 7 =,35,0,26,26,26,1,,,,,,,,,,,,,,,,,,,,,,,,,,,,,,,,,,,,,,,,,,,,,,,,,,,,,,,,,,,,,,,,,,,,,,,,,,,,,,,,,,,,,,,,,,,,,,,,,,,,,,,,,,,,,,,,,,,,,,,,,,,,,,,,,,,,,,,,,,,,
,392002593306,BCA,21/06/2000,001,2023-04-05_16h54.51.758,OS3_Mult_verification,2022.2.4,Win32,60.17571308,,,,,,,,,,,,,,,,,,36,4.6816,1,"[""3"",""6"",""return""]","[3.870600000023842,4.266100000023812,4.384999999999991]",,,,,,4 × 9 =,36,0,27,27,27,1,,,,,,,,,,,,,,,,,,,,,,,,,,,,,,,,,,,,,,,,,,,,,,,,,,,,,,,,,,,,,,,,,,,,,,,,,,,,,,,,,,,,,,,,,,,,,,,,,,,,,,,,,,,,,,,,,,,,,,,,,,,,,,,,,,,,,,,,,,,,
,392002593306,BCA,21/06/2000,001,2023-04-05_16h54.51.758,OS3_Mult_verification,2022.2.4,Win32,60.17571308,,,,,,,,,,,,,,,,,,48,2.1101,1,"[""4"",""8"",""return""]","[1.1313999999761677,1.6713999999761313,1.815499999999986]",,,,,,8 × 6 =,48,0,28,28,28,1,,,,,,,,,,,,,,,,,,,,,,,,,,,,,,,,,,,,,,,,,,,,,,,,,,,,,,,,,,,,,,,,,,,,,,,,,,,,,,,,,,,,,,,,,,,,,,,,,,,,,,,,,,,,,,,,,,,,,,,,,,,,,,,,,,,,,,,,,,,,
,392002593306,BCA,21/06/2000,001,2023-04-05_16h54.51.758,OS3_Mult_verification,2022.2.4,Win32,60.17571308,,,,,,,,,,,,,,,,,,63,3.7326,1,"[""6"",""3"",""return""]","[2.725200000047664,3.30629999995233,3.437399999976151]",,,,,,9 × 7 =,63,0,29,29,29,1,,,,,,,,,,,,,,,,,,,,,,,,,,,,,,,,,,,,,,,,,,,,,,,,,,,,,,,,,,,,,,,,,,,,,,,,,,,,,,,,,,,,,,,,,,,,,,,,,,,,,,,,,,,,,,,,,,,,,,,,,,,,,,,,,,,,,,,,,,,,
,392002593306,BCA,21/06/2000,001,2023-04-05_16h54.51.758,OS3_Mult_verification,2022.2.4,Win32,60.17571308,,,,,,,,,,,,,,,,,,12,1.3156,1,"[""1"",""2"",""return""]","[0.801200000047686,0.8898000000715456,1.0168999999761468]",,,,,,4 × 3 =,12,0,30,30,30,1,,,,,,,,,,,,,,,,,,,,,,,,,,,,,,,,,,,,,,,,,,,,,,,,,,,,,,,,,,,,,,,,,,,,,,,,,,,,,,,,,,,,,,,,,,,,,,,,,,,,,,,,,,,,,,,,,,,,,,,,,,,,,,,,,,,,,,,,,,,,
,392002593306,BCA,21/06/2000,001,2023-04-05_16h54.51.758,OS3_Mult_verification,2022.2.4,Win32,60.17571308,,,,,,,,,,,,,,,,,,25,1.5994,1,"[""2"",""5"",""return""]","[0.948799999952314,1.1583999999761545,1.2967999999523272]",,,,,,5 × 5 =,25,0,31,31,31,1,,,,,,,,,,,,,,,,,,,,,,,,,,,,,,,,,,,,,,,,,,,,,,,,,,,,,,,,,,,,,,,,,,,,,,,,,,,,,,,,,,,,,,,,,,,,,,,,,,,,,,,,,,,,,,,,,,,,,,,,,,,,,,,,,,,,,,,,,,,,
,392002593306,BCA,21/06/2000,001,2023-04-05_16h54.51.758,OS3_Mult_verification,2022.2.4,Win32,60.17571308,,,,,,,,,,,,,,,,,,6,1.9825,1,"[""5"",""backspace"",""6"",""return""]","[0.9645999999046353,1.3697999999523063,1.5878999999761731,1.683499999999981]",,,,,,3 × 2 =,6,0,32,32,32,1,,,,,,,,,,,,,,,,,,,,,,,,,,,,,,,,,,,,,,,,,,,,,,,,,,,,,,,,,,,,,,,,,,,,,,,,,,,,,,,,,,,,,,,,,,,,,,,,,,,,,,,,,,,,,,,,,,,,,,,,,,,,,,,,,,,,,,,,,,,,
,392002593306,BCA,21/06/2000,001,2023-04-05_16h54.51.758,OS3_Mult_verification,2022.2.4,Win32,60.17571308,,,,,,,,,,,,,,,,,,20,1.5659,1,"[""2"",""0"",""return""]","[0.8856000000238282,1.0651000000238469,1.2763999999761495]",,,,,,5 × 4 =,20,0,33,33,33,1,,,,,,,,,,,,,,,,,,,,,,,,,,,,,,,,,,,,,,,,,,,,,,,,,,,,,,,,,,,,,,,,,,,,,,,,,,,,,,,,,,,,,,,,,,,,,,,,,,,,,,,,,,,,,,,,,,,,,,,,,,,,,,,,,,,,,,,,,,,,
,392002593306,BCA,21/06/2000,001,2023-04-05_16h54.51.758,OS3_Mult_verification,2022.2.4,Win32,60.17571308,,,,,,,,,,,,,,,,,,8,1.5826,1,"[""8"",""return""]","[1.184500000000014,1.281000000000006]",,,,,,4 × 2 =,8,0,34,34,34,1,,,,,,,,,,,,,,,,,,,,,,,,,,,,,,,,,,,,,,,,,,,,,,,,,,,,,,,,,,,,,,,,,,,,,,,,,,,,,,,,,,,,,,,,,,,,,,,,,,,,,,,,,,,,,,,,,,,,,,,,,,,,,,,,,,,,,,,,,,,,
,392002593306,BCA,21/06/2000,001,2023-04-05_16h54.51.758,OS3_Mult_verification,2022.2.4,Win32,60.17571308,,,,,,,,,,,,,,,,,,12,1.6656,1,"[""1"",""2"",""return""]","[0.9418000000715097,1.0584000000953324,1.3642000000476742]",,,,,,2 × 6 =,12,0,35,35,35,1,,,,,,,,,,,,,,,,,,,,,,,,,,,,,,,,,,,,,,,,,,,,,,,,,,,,,,,,,,,,,,,,,,,,,,,,,,,,,,,,,,,,,,,,,,,,,,,,,,,,,,,,,,,,,,,,,,,,,,,,,,,,,,,,,,,,,,,,,,,,
,392002593306,BCA,21/06/2000,001,2023-04-05_16h54.51.758,OS3_Mult_verification,2022.2.4,Win32,60.17571308,,,,,,,,,,,,,,,,,,15,2.0992,1,"[""1"",""5"",""return""]","[1.3243999999761513,1.666100000023846,1.8013999999761268]",,,,,,3 × 5 =,15,0,36,36,36,1,,,,,,,,,,,,,,,,,,,,,,,,,,,,,,,,,,,,,,,,,,,,,,,,,,,,,,,,,,,,,,,,,,,,,,,,,,,,,,,,,,,,,,,,,,,,,,,,,,,,,,,,,,,,,,,,,,,,,,,,,,,,,,,,,,,,,,,,,,,,
,392002593306,BCA,21/06/2000,001,2023-04-05_16h54.51.758,OS3_Mult_verification,2022.2.4,Win32,60.17571308,,,,,,,,,,,,,,,,,,18,2.116,1,"[""1"",""8"",""return""]","[0.8424999999999727,1.6747000000476646,1.8167000000476605]",,,,,,6 × 3 =,18,0,37,37,37,1,,,,,,,,,,,,,,,,,,,,,,,,,,,,,,,,,,,,,,,,,,,,,,,,,,,,,,,,,,,,,,,,,,,,,,,,,,,,,,,,,,,,,,,,,,,,,,,,,,,,,,,,,,,,,,,,,,,,,,,,,,,,,,,,,,,,,,,,,,,,
,392002593306,BCA,21/06/2000,001,2023-04-05_16h54.51.758,OS3_Mult_verification,2022.2.4,Win32,60.17571308,,,,,,,,,,,,,,,,,,10,1.5826,1,"[""1"",""0"",""return""]","[0.7191000000238432,1.0824000000953902,1.288499999999999]",,,,,,2 × 5 =,10,0,38,38,38,1,,,,,,,,,,,,,,,,,,,,,,,,,,,,,,,,,,,,,,,,,,,,,,,,,,,,,,,,,,,,,,,,,,,,,,,,,,,,,,,,,,,,,,,,,,,,,,,,,,,,,,,,,,,,,,,,,,,,,,,,,,,,,,,,,,,,,,,,,,,,
,392002593306,BCA,21/06/2000,001,2023-04-05_16h54.51.758,OS3_Mult_verification,2022.2.4,Win32,60.17571308,,,,,,,,,,,,,,,,,,32,1.4156,1,"[""3"",""2"",""return""]","[0.9146000000238246,0.9922000000476601,1.1197000000476578]",,,,,,4 × 8 =,32,0,39,39,39,1,,,,,,,,,,,,,,,,,,,,,,,,,,,,,,,,,,,,,,,,,,,,,,,,,,,,,,,,,,,,,,,,,,,,,,,,,,,,,,,,,,,,,,,,,,,,,,,,,,,,,,,,,,,,,,,,,,,,,,,,,,,,,,,,,,,,,,,,,,,,
,392002593306,BCA,21/06/2000,001,2023-04-05_16h54.51.758,OS3_Mult_verification,2022.2.4,Win32,60.17571308,,,,,,,,,,,,,,,,,,24,2.1492,1,"[""2"",""4"",""return""]","[1.1038000000715442,1.7058000000715197,1.8538999999761359]",,,,,,3 × 8 =,24,0,40,40,40,1,,,,,,,,,,,,,,,,,,,,,,,,,,,,,,,,,,,,,,,,,,,,,,,,,,,,,,,,,,,,,,,,,,,,,,,,,,,,,,,,,,,,,,,,,,,,,,,,,,,,,,,,,,,,,,,,,,,,,,,,,,,,,,,,,,,,,,,,,,,,
,392002593306,BCA,21/06/2000,001,2023-04-05_16h54.51.758,OS3_Mult_verification,2022.2.4,Win32,60.17571308,,,,,,,,,,,,,,,,,,30,2.3993,1,"[""3"",""0"",""return""]","[1.8222999999522926,1.9044999999999845,2.0970999999046285]",,,,,,5 × 6 =,30,0,41,41,41,1,,,,,,,,,,,,,,,,,,,,,,,,,,,,,,,,,,,,,,,,,,,,,,,,,,,,,,,,,,,,,,,,,,,,,,,,,,,,,,,,,,,,,,,,,,,,,,,,,,,,,,,,,,,,,,,,,,,,,,,,,,,,,,,,,,,,,,,,,,,,
,392002593306,BCA,21/06/2000,001,2023-04-05_16h54.51.758,OS3_Mult_verification,2022.2.4,Win32,60.17571308,,,,,,,,,,,,,,,,,,14,2.3657,1,"[""1"",""4"",""return""]","[1.120999999999981,1.983299999952294,2.0673999999761463]",,,,,,2 × 7 =,14,0,42,42,42,1,,,,,,,,,,,,,,,,,,,,,,,,,,,,,,,,,,,,,,,,,,,,,,,,,,,,,,,,,,,,,,,,,,,,,,,,,,,,,,,,,,,,,,,,,,,,,,,,,,,,,,,,,,,,,,,,,,,,,,,,,,,,,,,,,,,,,,,,,,,,
,392002593306,BCA,21/06/2000,001,2023-04-05_16h54.51.758,OS3_Mult_verification,2022.2.4,Win32,60.17571308,,,,,,,,,,,,,,,,,,24,1.7658,1,"[""2"",""4"",""return""]","[1.2133999999761613,1.3493999999761854,1.4660000000000082]",,,,,,6 × 4 =,24,0,43,43,43,1,,,,,,,,,,,,,,,,,,,,,,,,,,,,,,,,,,,,,,,,,,,,,,,,,,,,,,,,,,,,,,,,,,,,,,,,,,,,,,,,,,,,,,,,,,,,,,,,,,,,,,,,,,,,,,,,,,,,,,,,,,,,,,,,,,,,,,,,,,,,
,392002593306,BCA,21/06/2000,001,2023-04-05_16h54.51.758,OS3_Mult_verification,2022.2.4,Win32,60.17571308,,,,,,,,,,,,,,,,,,,0.1663,0,,,,,,,,3 × 7 =,21,0,44,44,44,1,,,,,,,,,,,,,,,,,,,,,,,,,,,,,,,,,,,,,,,,,,,,,,,,,,,,,,,,,,,,,,,,,,,,,,,,,,,,,,,,,,,,,,,,,,,,,,,,,,,,,,,,,,,,,,,,,,,,,,,,,,,,,,,,,,,,,,,,,,,,
,392002593306,BCA,21/06/2000,001,2023-04-05_16h54.51.758,OS3_Mult_verification,2022.2.4,Win32,60.17571308,,,,,,,,,,,,,,,,space,1.3984,,,,,,,,,,,,,,,,,,TRUE,2.5816,0.025925954,-0.332407464,1,0,0,0,0,0,2,1,practice trial,,3,3,,,,,,,,,,,,,,,,,,,,,,,,,,,,,,,,,,,,,,,,,,,,,,,,,,,,,,,,,,,,,,,,,,,,,,,,,,,,,,,,,,,,,,,,,,,,,,,,,,,,,,,,,,,,,,,,,,,,,,,,,,,,
,392002593306,BCA,21/06/2000,001,2023-04-05_16h54.51.758,OS3_Mult_verification,2022.2.4,Win32,60.17571308,,,,,,,,,,,,,,,,,,,,,,,,,,,,,,,,,,,TRUE,2.1051,0.028703732,-0.376851908,1,0,0,0,1,1,0,1,practice trial,,3,3,,,,,,,,,,,,,,,,,,,,,,,,,,,,,,,,,,,,,,,,,,,,,,,,,,,,,,,,,,,,,,,,,,,,,,,,,,,,,,,,,,,,,,,,,,,,,,,,,,,,,,,,,,,,,,,,,,,,,,,,,,,,
,392002593306,BCA,21/06/2000,001,2023-04-05_16h54.51.758,OS3_Mult_verification,2022.2.4,Win32,60.17571308,,,,,,,,,,,,,,,,,,,,,,,,,,,,,,,,,,,TRUE,1.7992,0.032407464,-0.323148176,1,0,0,0,2,2,1,1,practice trial,,3,3,,,,,,,,,,,,,,,,,,,,,,,,,,,,,,,,,,,,,,,,,,,,,,,,,,,,,,,,,,,,,,,,,,,,,,,,,,,,,,,,,,,,,,,,,,,,,,,,,,,,,,,,,,,,,,,,,,,,,,,,,,,,
,392002593306,BCA,21/06/2000,001,2023-04-05_16h54.51.758,OS3_Mult_verification,2022.2.4,Win32,60.17571308,,,,,,,,,,,,,,,,,,,,,,,,,,,,,,,,,,,TRUE,1.1656,0.05648151,-0.33148151,1,0,0,,,,,,Trial #1,,2,2,0,0,0,0,1,2,,,,,,,,,,,,,,,,,,,,,,,,,,,,,,,,,,,,,,,,,,,,,,,,,,,,,,,,,,,,,,,,,,,,,,,,,,,,,,,,,,,,,,,,,,,,,,,,,,,,,,,,,,,,,,,,,,,,,,
,392002593306,BCA,21/06/2000,001,2023-04-05_16h54.51.758,OS3_Mult_verification,2022.2.4,Win32,60.17571308,,,,,,,,,,,,,,,,,,,,,,,,,,,,,,,,,,,TRUE,0.9997,0.010185242,-0.339814843,1,0,0,,,,,,Trial #1,,2,2,0,1,1,1,1,2,,,,,,,,,,,,,,,,,,,,,,,,,,,,,,,,,,,,,,,,,,,,,,,,,,,,,,,,,,,,,,,,,,,,,,,,,,,,,,,,,,,,,,,,,,,,,,,,,,,,,,,,,,,,,,,,,,,,,,
,392002593306,BCA,21/06/2000,001,2023-04-05_16h54.51.758,OS3_Mult_verification,2022.2.4,Win32,60.17571308,,,,,,,,,,,,,,,,,,,,,,,,,,,,,,,,,,,TRUE,1.0332,0.046296353,-0.320370399,1,0,0,,,,,,Trial #1,,2,2,0,2,2,2,1,2,,,,,,,,,,,,,,,,,,,,,,,,,,,,,,,,,,,,,,,,,,,,,,,,,,,,,,,,,,,,,,,,,,,,,,,,,,,,,,,,,,,,,,,,,,,,,,,,,,,,,,,,,,,,,,,,,,,,,,
,392002593306,BCA,21/06/2000,001,2023-04-05_16h54.51.758,OS3_Mult_verification,2022.2.4,Win32,60.17571308,,,,,,,,,,,,,,,,,,,,,,,,,,,,,,,,,,,TRUE,1.2826,0.057407464,-0.312963019,1,0,0,,,,,,Trial #2,,3,3,0,0,0,0,1,3,,,,,,,,,,,,,,,,,,,,,,,,,,,,,,,,,,,,,,,,,,,,,,,,,,,,,,,,,,,,,,,,,,,,,,,,,,,,,,,,,,,,,,,,,,,,,,,,,,,,,,,,,,,,,,,,,,,,,,
,392002593306,BCA,21/06/2000,001,2023-04-05_16h54.51.758,OS3_Mult_verification,2022.2.4,Win32,60.17571308,,,,,,,,,,,,,,,,,,,,,,,,,,,,,,,,,,,TRUE,1.6825,0.060185242,-0.340740797,1,0,0,,,,,,Trial #2,,3,3,0,1,1,1,1,3,,,,,,,,,,,,,,,,,,,,,,,,,,,,,,,,,,,,,,,,,,,,,,,,,,,,,,,,,,,,,,,,,,,,,,,,,,,,,,,,,,,,,,,,,,,,,,,,,,,,,,,,,,,,,,,,,,,,,,
,392002593306,BCA,21/06/2000,001,2023-04-05_16h54.51.758,OS3_Mult_verification,2022.2.4,Win32,60.17571308,,,,,,,,,,,,,,,,,,,,,,,,,,,,,,,,,,,TRUE,1.3996,0.061111111,-0.313888889,1,0,0,,,,,,Trial #2,,3,3,0,2,2,2,1,3,,,,,,,,,,,,,,,,,,,,,,,,,,,,,,,,,,,,,,,,,,,,,,,,,,,,,,,,,,,,,,,,,,,,,,,,,,,,,,,,,,,,,,,,,,,,,,,,,,,,,,,,,,,,,,,,,,,,,,
,392002593306,BCA,21/06/2000,001,2023-04-05_16h54.51.758,OS3_Mult_verification,2022.2.4,Win32,60.17571308,,,,,,,,,,,,,,,,,,,,,,,,,,,,,,,,,,,TRUE,2.0159,0.053703732,-0.337963019,1,0,0,,,,,,Trial #3,,3,3,0,0,0,0,1,4,,,,,,,,,,,,,,,,,,,,,,,,,,,,,,,,,,,,,,,,,,,,,,,,,,,,,,,,,,,,,,,,,,,,,,,,,,,,,,,,,,,,,,,,,,,,,,,,,,,,,,,,,,,,,,,,,,,,,,
,392002593306,BCA,21/06/2000,001,2023-04-05_16h54.51.758,OS3_Mult_verification,2022.2.4,Win32,60.17571308,,,,,,,,,,,,,,,,,,,,,,,,,,,,,,,,,,,TRUE,1.6324,0.062963019,-0.362963019,1,0,0,,,,,,Trial #3,,3,3,0,1,1,1,1,4,,,,,,,,,,,,,,,,,,,,,,,,,,,,,,,,,,,,,,,,,,,,,,,,,,,,,,,,,,,,,,,,,,,,,,,,,,,,,,,,,,,,,,,,,,,,,,,,,,,,,,,,,,,,,,,,,,,,,,
,392002593306,BCA,21/06/2000,001,2023-04-05_16h54.51.758,OS3_Mult_verification,2022.2.4,Win32,60.17571308,,,,,,,,,,,,,,,,,,,,,,,,,,,,,,,,,,,TRUE,2.1828,0.051851908,-0.351851908,1,0,0,,,,,,Trial #3,,3,3,0,2,2,2,1,4,,,,,,,,,,,,,,,,,,,,,,,,,,,,,,,,,,,,,,,,,,,,,,,,,,,,,,,,,,,,,,,,,,,,,,,,,,,,,,,,,,,,,,,,,,,,,,,,,,,,,,,,,,,,,,,,,,,,,,
,392002593306,BCA,21/06/2000,001,2023-04-05_16h54.51.758,OS3_Mult_verification,2022.2.4,Win32,60.17571308,,,,,,,,,,,,,,,,,,,,,,,,,,,,,,,,,,,TRUE,2.3325,0.046296353,-0.339814843,1,0,0,,,,,,Trial #4,,4,4,0,0,0,0,1,5,,,,,,,,,,,,,,,,,,,,,,,,,,,,,,,,,,,,,,,,,,,,,,,,,,,,,,,,,,,,,,,,,,,,,,,,,,,,,,,,,,,,,,,,,,,,,,,,,,,,,,,,,,,,,,,,,,,,,,
,392002593306,BCA,21/06/2000,001,2023-04-05_16h54.51.758,OS3_Mult_verification,2022.2.4,Win32,60.17571308,,,,,,,,,,,,,,,,,,,,,,,,,,,,,,,,,,,TRUE,2.1161,0.010185242,-0.332407464,1,0,0,,,,,,Trial #4,,4,4,0,1,1,1,1,5,,,,,,,,,,,,,,,,,,,,,,,,,,,,,,,,,,,,,,,,,,,,,,,,,,,,,,,,,,,,,,,,,,,,,,,,,,,,,,,,,,,,,,,,,,,,,,,,,,,,,,,,,,,,,,,,,,,,,,
,392002593306,BCA,21/06/2000,001,2023-04-05_16h54.51.758,OS3_Mult_verification,2022.2.4,Win32,60.17571308,,,,,,,,,,,,,,,,,,,,,,,,,,,,,,,,,,,TRUE,1.9994,0.049074131,-0.337037065,1,0,0,,,,,,Trial #4,,4,4,0,2,2,2,1,5,,,,,,,,,,,,,,,,,,,,,,,,,,,,,,,,,,,,,,,,,,,,,,,,,,,,,,,,,,,,,,,,,,,,,,,,,,,,,,,,,,,,,,,,,,,,,,,,,,,,,,,,,,,,,,,,,,,,,,
,392002593306,BCA,21/06/2000,001,2023-04-05_16h54.51.758,OS3_Mult_verification,2022.2.4,Win32,60.17571308,,,,,,,,,,,,,,,,,,,,,,,,,,,,,,,,,,,TRUE,2.1661,0.061111111,-0.319444444,1,0,0,,,,,,Trial #5,,4,4,0,0,0,0,1,6,,,,,,,,,,,,,,,,,,,,,,,,,,,,,,,,,,,,,,,,,,,,,,,,,,,,,,,,,,,,,,,,,,,,,,,,,,,,,,,,,,,,,,,,,,,,,,,,,,,,,,,,,,,,,,,,,,,,,,
,392002593306,BCA,21/06/2000,001,2023-04-05_16h54.51.758,OS3_Mult_verification,2022.2.4,Win32,60.17571308,,,,,,,,,,,,,,,,,,,,,,,,,,,,,,,,,,,TRUE,2.499,0.05,-0.333333333,1,0,0,,,,,,Trial #5,,4,4,0,1,1,1,1,6,,,,,,,,,,,,,,,,,,,,,,,,,,,,,,,,,,,,,,,,,,,,,,,,,,,,,,,,,,,,,,,,,,,,,,,,,,,,,,,,,,,,,,,,,,,,,,,,,,,,,,,,,,,,,,,,,,,,,,
,392002593306,BCA,21/06/2000,001,2023-04-05_16h54.51.758,OS3_Mult_verification,2022.2.4,Win32,60.17571308,,,,,,,,,,,,,,,,,,,,,,,,,,,,,,,,,,,TRUE,2.6159,0.104629686,-0.343518575,1,0,0,,,,,,Trial #5,,4,4,0,2,2,2,1,6,,,,,,,,,,,,,,,,,,,,,,,,,,,,,,,,,,,,,,,,,,,,,,,,,,,,,,,,,,,,,,,,,,,,,,,,,,,,,,,,,,,,,,,,,,,,,,,,,,,,,,,,,,,,,,,,,,,,,,
,392002593306,BCA,21/06/2000,001,2023-04-05_16h54.51.758,OS3_Mult_verification,2022.2.4,Win32,60.17571308,,,,,,,,,,,,,,,,,,,,,,,,,,,,,,,,,,,TRUE,2.4328,0.082407464,-0.355555556,1,0,0,,,,,,Trial #6,,4,4,0,0,0,0,1,7,,,,,,,,,,,,,,,,,,,,,,,,,,,,,,,,,,,,,,,,,,,,,,,,,,,,,,,,,,,,,,,,,,,,,,,,,,,,,,,,,,,,,,,,,,,,,,,,,,,,,,,,,,,,,,,,,,,,,,
,392002593306,BCA,21/06/2000,001,2023-04-05_16h54.51.758,OS3_Mult_verification,2022.2.4,Win32,60.17571308,,,,,,,,,,,,,,,,,,,,,,,,,,,,,,,,,,,TRUE,3.1996,0.078703732,-0.319444444,1,0,0,,,,,,Trial #6,,4,4,0,1,1,1,1,7,,,,,,,,,,,,,,,,,,,,,,,,,,,,,,,,,,,,,,,,,,,,,,,,,,,,,,,,,,,,,,,,,,,,,,,,,,,,,,,,,,,,,,,,,,,,,,,,,,,,,,,,,,,,,,,,,,,,,,
,392002593306,BCA,21/06/2000,001,2023-04-05_16h54.51.758,OS3_Mult_verification,2022.2.4,Win32,60.17571308,,,,,,,,,,,,,,,,,,,,,,,,,,,,,,,,,,,TRUE,2.7326,-0.047222222,-0.326851908,1,0,0,,,,,,Trial #6,,4,4,0,2,2,2,1,7,,,,,,,,,,,,,,,,,,,,,,,,,,,,,,,,,,,,,,,,,,,,,,,,,,,,,,,,,,,,,,,,,,,,,,,,,,,,,,,,,,,,,,,,,,,,,,,,,,,,,,,,,,,,,,,,,,,,,,
,392002593306,BCA,21/06/2000,001,2023-04-05_16h54.51.758,OS3_Mult_verification,2022.2.4,Win32,60.17571308,,,,,,,,,,,,,,,,,,,,,,,,,,,,,,,,,,,TRUE,3.2498,0.075925954,-0.364814843,1,0,0,,,,,,Trial #7,,4,4,0,0,0,0,1,8,,,,,,,,,,,,,,,,,,,,,,,,,,,,,,,,,,,,,,,,,,,,,,,,,,,,,,,,,,,,,,,,,,,,,,,,,,,,,,,,,,,,,,,,,,,,,,,,,,,,,,,,,,,,,,,,,,,,,,
,392002593306,BCA,21/06/2000,001,2023-04-05_16h54.51.758,OS3_Mult_verification,2022.2.4,Win32,60.17571308,,,,,,,,,,,,,,,,,,,,,,,,,,,,,,,,,,,TRUE,2.9327,-0.048148092,-0.329629686,1,0,0,,,,,,Trial #7,,4,4,0,1,1,1,1,8,,,,,,,,,,,,,,,,,,,,,,,,,,,,,,,,,,,,,,,,,,,,,,,,,,,,,,,,,,,,,,,,,,,,,,,,,,,,,,,,,,,,,,,,,,,,,,,,,,,,,,,,,,,,,,,,,,,,,,
,392002593306,BCA,21/06/2000,001,2023-04-05_16h54.51.758,OS3_Mult_verification,2022.2.4,Win32,60.17571308,,,,,,,,,,,,,,,,,,,,,,,,,,,,,,,,,,,TRUE,3.1654,-0.037036981,-0.310185242,1,0,0,,,,,,Trial #7,,4,4,0,2,2,2,1,8,,,,,,,,,,,,,,,,,,,,,,,,,,,,,,,,,,,,,,,,,,,,,,,,,,,,,,,,,,,,,,,,,,,,,,,,,,,,,,,,,,,,,,,,,,,,,,,,,,,,,,,,,,,,,,,,,,,,,,
,392002593306,BCA,21/06/2000,001,2023-04-05_16h54.51.758,OS3_Mult_verification,2022.2.4,Win32,60.17571308,,,,,,,,,,,,,,,,,,,,,,,,,,,,,,,,,,,TRUE,4.0657,0.085185242,-0.346296353,1,0,0,,,,,,Trial #8,,5,5,0,0,0,0,1,9,,,,,,,,,,,,,,,,,,,,,,,,,,,,,,,,,,,,,,,,,,,,,,,,,,,,,,,,,,,,,,,,,,,,,,,,,,,,,,,,,,,,,,,,,,,,,,,,,,,,,,,,,,,,,,,,,,,,,,
,392002593306,BCA,21/06/2000,001,2023-04-05_16h54.51.758,OS3_Mult_verification,2022.2.4,Win32,60.17571308,,,,,,,,,,,,,,,,,,,,,,,,,,,,,,,,,,,TRUE,3.1154,-0.020370314,-0.339814843,1,0,0,,,,,,Trial #8,,5,5,0,1,1,1,1,9,,,,,,,,,,,,,,,,,,,,,,,,,,,,,,,,,,,,,,,,,,,,,,,,,,,,,,,,,,,,,,,,,,,,,,,,,,,,,,,,,,,,,,,,,,,,,,,,,,,,,,,,,,,,,,,,,,,,,,
,392002593306,BCA,21/06/2000,001,2023-04-05_16h54.51.758,OS3_Mult_verification,2022.2.4,Win32,60.17571308,,,,,,,,,,,,,,,,,,,,,,,,,,,,,,,,,,,TRUE,3.8492,0.075925954,-0.355555556,1,0,0,,,,,,Trial #8,,5,5,0,2,2,2,1,9,,,,,,,,,,,,,,,,,,,,,,,,,,,,,,,,,,,,,,,,,,,,,,,,,,,,,,,,,,,,,,,,,,,,,,,,,,,,,,,,,,,,,,,,,,,,,,,,,,,,,,,,,,,,,,,,,,,,,,
,392002593306,BCA,21/06/2000,001,2023-04-05_16h54.51.758,OS3_Mult_verification,2022.2.4,Win32,60.17571308,,,,,,,,,,,,,,,,,,,,,,,,,,,,,,,,,,,FALSE,3.7162,0.002777778,-0.340740797,1,0,0,,,,,,Trial #9,,5,5,0,0,0,0,1,10,,,,,,,,,,,,,,,,,,,,,,,,,,,,,,,,,,,,,,,,,,,,,,,,,,,,,,,,,,,,,,,,,,,,,,,,,,,,,,,,,,,,,,,,,,,,,,,,,,,,,,,,,,,,,,,,,,,,,,
,392002593306,BCA,21/06/2000,001,2023-04-05_16h54.51.758,OS3_Mult_verification,2022.2.4,Win32,60.17571308,,,,,,,,,,,,,,,,,,,,,,,,,,,,,,,,,,,TRUE,3.9823,0.063888889,-0.352777778,1,0,0,,,,,,Trial #9,,5,5,0,1,1,1,1,10,,,,,,,,,,,,,,,,,,,,,,,,,,,,,,,,,,,,,,,,,,,,,,,,,,,,,,,,,,,,,,,,,,,,,,,,,,,,,,,,,,,,,,,,,,,,,,,,,,,,,,,,,,,,,,,,,,,,,,
,392002593306,BCA,21/06/2000,001,2023-04-05_16h54.51.758,OS3_Mult_verification,2022.2.4,Win32,60.17571308,,,,,,,,,,,,,,,,,,,,,,,,,,,,,,,,,,,TRUE,3.4159,0.077777778,-0.357407464,1,0,0,,,,,,Trial #9,,5,5,0,2,2,2,1,10,,,,,,,,,,,,,,,,,,,,,,,,,,,,,,,,,,,,,,,,,,,,,,,,,,,,,,,,,,,,,,,,,,,,,,,,,,,,,,,,,,,,,,,,,,,,,,,,,,,,,,,,,,,,,,,,,,,,,,
,392002593306,BCA,21/06/2000,001,2023-04-05_16h54.51.758,OS3_Mult_verification,2022.2.4,Win32,60.17571308,,,,,,,,,,,,,,,,,,,,,,,,,,,,,,,,,,,FALSE,5.7155,0.034259288,-0.333333333,1,0,0,,,,,,Trial #10,,5,5,0,0,0,0,1,11,,,,,,,,,,,,,,,,,,,,,,,,,,,,,,,,,,,,,,,,,,,,,,,,,,,,,,,,,,,,,,,,,,,,,,,,,,,,,,,,,,,,,,,,,,,,,,,,,,,,,,,,,,,,,,,,,,,,,,
,392002593306,BCA,21/06/2000,001,2023-04-05_16h54.51.758,OS3_Mult_verification,2022.2.4,Win32,60.17571308,,,,,,,,,,,,,,,,,,,,,,,,,,,,,,,,,,,TRUE,4.6822,-0.031481425,-0.320370399,1,0,0,,,,,,Trial #10,,5,5,0,1,1,1,1,11,,,,,,,,,,,,,,,,,,,,,,,,,,,,,,,,,,,,,,,,,,,,,,,,,,,,,,,,,,,,,,,,,,,,,,,,,,,,,,,,,,,,,,,,,,,,,,,,,,,,,,,,,,,,,,,,,,,,,,
,392002593306,BCA,21/06/2000,001,2023-04-05_16h54.51.758,OS3_Mult_verification,2022.2.4,Win32,60.17571308,,,,,,,,,,,,,,,,,,,,,,,,,,,,,,,,,,,FALSE,5.7328,-0.049074046,-0.330555556,1,0,0,,,,,,Trial #10,,5,5,0,2,2,2,1,11,,,,,,,,,,,,,,,,,,,,,,,,,,,,,,,,,,,,,,,,,,,,,,,,,,,,,,,,,,,,,,,,,,,,,,,,,,,,,,,,,,,,,,,,,,,,,,,,,,,,,,,,,,,,,,,,,,,,,,
,392002593306,BCA,21/06/2000,001,2023-04-05_16h54.51.758,OS3_Mult_verification,2022.2.4,Win32,60.17571308,,,,,,,,,,,,,,,,,,,,,,,,,,,,,,,,,,,,,,,,,,,,,,,,,,,,,,,,,0,0,0,0,1,,,,,,,,,,,,,,,,,,,,,,,,,,,,,,,,,,,,,,,,,,,,,,,,,,,,,,,,,,,,,,,,,,,,,,,,,,,,,,,,,,,,,,,,,,,,,,,,,,,,,,,,,,,,,,,,,
,392002593306,BCA,21/06/2000,001,2023-04-05_16h54.51.758,OS3_Mult_verification,2022.2.4,Win32,60.17571308,,,,,,,,,,,,,,,,,,,,,,,,,,,,,,,,,,,,,,,,,,,,,,,,,,,,,,,,,,,,,,0,0,0,0,1,0,1,0,,,,,,,,,,,,,,,,,,,,,,,,,,,,,,,,,,,,,,,,,,,,,,,,,,,,,,,,,,,,,,,,,,,,,,,,,,,,,,,,,,,,,,,,,,,,,,,,,,,,,,,,,
,392002593306,BCA,21/06/2000,001,2023-04-05_16h54.51.758,OS3_Mult_verification,2022.2.4,Win32,60.17571308,,,,,,,,,,,,,,,,space,1.8569,,,,,,,,,,,,,,,,,,,,,,,,,,,,,,,,,,,,,,,,,,,,,,,,,,,,,space,1.6306,123,0.789,1,"[""1"",""2"",""3"",""return""]","[0.32780000007153376,0.3996000000238382,0.6397000000476964,0.7519999999999527]",0,0,0,0,1,3,123,Audio/123.mp3,practice,,,,,,,,,,,,,,,,,,,,,,,,,,,,,,,,,,,,,,,,,,,,,,,,,,,,,,,,,,,,,,,,,,,,,,,,,,,,,,,,,,,,,,,,,
,392002593306,BCA,21/06/2000,001,2023-04-05_16h54.51.758,OS3_Mult_verification,2022.2.4,Win32,60.17571308,,,,,,,,,,,,,,,,,,,,,,,,,,,,,,,,,,,,,,,,,,,,,,,,,,,,,,,,,,,,,,,,,,,,,,,,911,0.7826,1,"[""9"",""1"",""1"",""return""]","[0.13200000000006185,0.4503000000715929,0.6338999999761654,0.7487000000477337]",0,1,1,2,1,3,911,Audio/911.mp3,practice,,,,,,,,,,,,,,,,,,,,,,,,,,,,,,,,,,,,,,,,,,,,,,,,,,,,,,,,,,,,,,,,,,,,,,,,,,,,,,,,,,,,,,,,,
,392002593306,BCA,21/06/2000,001,2023-04-05_16h54.51.758,OS3_Mult_verification,2022.2.4,Win32,60.17571308,,,,,,,,,,,,,,,,,,,,,,,,,,,,,,,,,,,,,,,,,,,,,,,,,,,,,,,,,,,,,,,,,,,,,,,,321,0.8157,1,"[""3"",""2"",""1"",""return""]","[0.35490000009531286,0.4366000000237591,0.6834999999999809,0.7822000000476237]",0,2,2,1,1,3,321,Audio/321.mp3,practice,,,,,,,,,,,,,,,,,,,,,,,,,,,,,,,,,,,,,,,,,,,,,,,,,,,,,,,,,,,,,,,,,,,,,,,,,,,,,,,,,,,,,,,,,
,392002593306,BCA,21/06/2000,001,2023-04-05_16h54.51.758,OS3_Mult_verification,2022.2.4,Win32,60.17571308,,,,,,,,,,,,,,,,,,,,,,,,,,,,,,,,,,,,,,,,,,,,,,,,,,,,,,,,,,,,,,,,,,,,,,,,46,2.2707,1,"[""4"",""6"",""return""]","[1.7366999999285326,2.017100000023902,2.217699999928527]",,,,,,2,46,Audio/46.mp3,EGNER,0,0,0,0,1,,,,,,,,,,,,,,,,,,,,,,,,,,,,,,,,,,,,,,,,,,,,,,,,,,,,,,,,,,,,,,,,,,,,,,,,,,,,,,,,,,,,
,392002593306,BCA,21/06/2000,001,2023-04-05_16h54.51.758,OS3_Mult_verification,2022.2.4,Win32,60.17571308,,,,,,,,,,,,,,,,,,,,,,,,,,,,,,,,,,,,,,,,,,,,,,,,,,,,,,,,,,,,,,,,,,,,,,,,82,1.0159,1,"[""8"",""2"",""return""]","[0.5622999999523017,0.8179999999999836,0.9697000000477374]",,,,,,2,82,Audio/82.mp3,EGNER,0,1,1,1,1,,,,,,,,,,,,,,,,,,,,,,,,,,,,,,,,,,,,,,,,,,,,,,,,,,,,,,,,,,,,,,,,,,,,,,,,,,,,,,,,,,,,
,392002593306,BCA,21/06/2000,001,2023-04-05_16h54.51.758,OS3_Mult_verification,2022.2.4,Win32,60.17571308,,,,,,,,,,,,,,,,,,,,,,,,,,,,,,,,,,,,,,,,,,,,,,,,,,,,,,,,,,,,,,,,,,,,,,,,,,,,,,,,,,,,,,,,,,,0,0,0,0,1,digitSpan_stim/twoAudio.xlsx,,,,,,,,,,,,,,,,,,,,,,,,,,,,,,,,,,,,,,,,,,,,,,,,,,,,,,,,,,,,,,,,,,,,,,,,,,,,,,
,392002593306,BCA,21/06/2000,001,2023-04-05_16h54.51.758,OS3_Mult_verification,2022.2.4,Win32,60.17571308,,,,,,,,,,,,,,,,,,,,,,,,,,,,,,,,,,,,,,,,,,,,,,,,,,,,,,,,,,,,,,,,,,,,,,,,157,2.5488,1,"[""1"",""5"",""7"",""return""]","[1.1841000000238182,1.3605000000000018,1.5379999999998972,2.5001000000237354]",,,,,,3,157,Audio/157.mp3,EGNER,0,0,0,0,1,,,,,,,,,,,,,,,,,,,,,,,,,,,,,,,,,,,,,,,,,,,,,,,,,,,,,,,,,,,,,,,,,,,,,,,,,,,,,,,,,,,,
,392002593306,BCA,21/06/2000,001,2023-04-05_16h54.51.758,OS3_Mult_verification,2022.2.4,Win32,60.17571308,,,,,,,,,,,,,,,,,,,,,,,,,,,,,,,,,,,,,,,,,,,,,,,,,,,,,,,,,,,,,,,,,,,,,,,,397,2.117,1,"[""9"",""7"",""backspace"",""backspace"",""3"",""9"",""7"",""return""]","[0.05089999997619543,0.3352999999523263,0.7338999999761882,0.8506999999284517,1.3683999999761909,1.5691999999285144,1.8255000000000337,2.070500000000038]",,,,,,3,397,Audio/397.mp3,EGNER,0,1,1,1,1,,,,,,,,,,,,,,,,,,,,,,,,,,,,,,,,,,,,,,,,,,,,,,,,,,,,,,,,,,,,,,,,,,,,,,,,,,,,,,,,,,,,
,392002593306,BCA,21/06/2000,001,2023-04-05_16h54.51.758,OS3_Mult_verification,2022.2.4,Win32,60.17571308,,,,,,,,,,,,,,,,,,,,,,,,,,,,,,,,,,,,,,,,,,,,,,,,,,,,,,,,,,,,,,,,,,,,,,,,,,,,,,,,,,,,,,,,,,,0,1,1,1,1,digitSpan_stim/threeAudio.xlsx,,,,,,,,,,,,,,,,,,,,,,,,,,,,,,,,,,,,,,,,,,,,,,,,,,,,,,,,,,,,,,,,,,,,,,,,,,,,,,
,392002593306,BCA,21/06/2000,001,2023-04-05_16h54.51.758,OS3_Mult_verification,2022.2.4,Win32,60.17571308,,,,,,,,,,,,,,,,,,,,,,,,,,,,,,,,,,,,,,,,,,,,,,,,,,,,,,,,,,,,,,,,,,,,,,,,6352,1.5163,1,"[""6"",""3"",""5"",""2"",""return""]","[0.03410000002384095,0.15049999999996544,0.28360000002385277,0.5882000000476637,1.4672000000476828]",,,,,,4,6352,Audio/6352.mp3,EGNER,0,0,0,0,1,,,,,,,,,,,,,,,,,,,,,,,,,,,,,,,,,,,,,,,,,,,,,,,,,,,,,,,,,,,,,,,,,,,,,,,,,,,,,,,,,,,,
,392002593306,BCA,21/06/2000,001,2023-04-05_16h54.51.758,OS3_Mult_verification,2022.2.4,Win32,60.17571308,,,,,,,,,,,,,,,,,,,,,,,,,,,,,,,,,,,,,,,,,,,,,,,,,,,,,,,,,,,,,,,,,,,,,,,,9184,1.6036,1,"[""9"",""1"",""8"",""4"",""return""]","[0.6513999999760927,0.8838999999760517,1.0678999999761345,1.3676999999283908,1.5663999999760563]",,,,,,4,9184,Audio/9184.mp3,EGNER,0,1,1,1,1,,,,,,,,,,,,,,,,,,,,,,,,,,,,,,,,,,,,,,,,,,,,,,,,,,,,,,,,,,,,,,,,,,,,,,,,,,,,,,,,,,,,
,392002593306,BCA,21/06/2000,001,2023-04-05_16h54.51.758,OS3_Mult_verification,2022.2.4,Win32,60.17571308,,,,,,,,,,,,,,,,,,,,,,,,,,,,,,,,,,,,,,,,,,,,,,,,,,,,,,,,,,,,,,,,,,,,,,,,,,,,,,,,,,,,,,,,,,,0,2,2,2,1,digitSpan_stim/fourAudio.xlsx,,,,,,,,,,,,,,,,,,,,,,,,,,,,,,,,,,,,,,,,,,,,,,,,,,,,,,,,,,,,,,,,,,,,,,,,,,,,,,
,392002593306,BCA,21/06/2000,001,2023-04-05_16h54.51.758,OS3_Mult_verification,2022.2.4,Win32,60.17571308,,,,,,,,,,,,,,,,,,,,,,,,,,,,,,,,,,,,,,,,,,,,,,,,,,,,,,,,,,,,,,,,,,,,,,,,59281,2.0814,1,"[""5"",""9"",""2"",""8"",""1"",""return""]","[0.5895999999046353,0.7744999999999891,1.4329999999999927,1.5496999999285208,1.6995000000000573,2.034399999976131]",,,,,,5,59281,Audio/59281.mp3,EGNER,0,0,0,0,1,,,,,,,,,,,,,,,,,,,,,,,,,,,,,,,,,,,,,,,,,,,,,,,,,,,,,,,,,,,,,,,,,,,,,,,,,,,,,,,,,,,,
,392002593306,BCA,21/06/2000,001,2023-04-05_16h54.51.758,OS3_Mult_verification,2022.2.4,Win32,60.17571308,,,,,,,,,,,,,,,,,,,,,,,,,,,,,,,,,,,,,,,,,,,,,,,,,,,,,,,,,,,,,,,,,,,,,,,,64738,3.0197,1,"[""6"",""4"",""7"",""3"",""8"",""return""]","[1.3689000000953229,1.6218000000715165,2.074999999999932,2.3684999999999263,2.692200000047592,2.9828000000715065]",,,,,,5,64738,Audio/64738.mp3,EGNER,0,1,1,1,1,,,,,,,,,,,,,,,,,,,,,,,,,,,,,,,,,,,,,,,,,,,,,,,,,,,,,,,,,,,,,,,,,,,,,,,,,,,,,,,,,,,,
,392002593306,BCA,21/06/2000,001,2023-04-05_16h54.51.758,OS3_Mult_verification,2022.2.4,Win32,60.17571308,,,,,,,,,,,,,,,,,,,,,,,,,,,,,,,,,,,,,,,,,,,,,,,,,,,,,,,,,,,,,,,,,,,,,,,,,,,,,,,,,,,,,,,,,,,0,3,3,3,1,digitSpan_stim/fiveAudio.xlsx,,,,,,,,,,,,,,,,,,,,,,,,,,,,,,,,,,,,,,,,,,,,,,,,,,,,,,,,,,,,,,,,,,,,,,,,,,,,,,
,392002593306,BCA,21/06/2000,001,2023-04-05_16h54.51.758,OS3_Mult_verification,2022.2.4,Win32,60.17571308,,,,,,,,,,,,,,,,,,,,,,,,,,,,,,,,,,,,,,,,,,,,,,,,,,,,,,,,,,,,,,,,,,,,,,,,396172,5.137,1,"[""3"",""9"",""6"",""7"",""backspace"",""1"",""7"",""2"",""return""]","[1.1506999999284062,1.6041999999284826,2.7331000000237964,3.189600000023802,3.649299999952291,4.02049999999997,4.605899999976145,4.932999999999993,5.0984999999999445]",,,,,,6,396172,Audio/396172.mp3,EGNER,0,0,0,0,1,,,,,,,,,,,,,,,,,,,,,,,,,,,,,,,,,,,,,,,,,,,,,,,,,,,,,,,,,,,,,,,,,,,,,,,,,,,,,,,,,,,,
,392002593306,BCA,21/06/2000,001,2023-04-05_16h54.51.758,OS3_Mult_verification,2022.2.4,Win32,60.17571308,,,,,,,,,,,,,,,,,,,,,,,,,,,,,,,,,,,,,,,,,,,,,,,,,,,,,,,,,,,,,,,,,,,,,,,,594631,2.4668,1,"[""5"",""9"",""4"",""6"",""3"",""1"",""return""]","[0.7504999999999882,0.998300000071481,1.5838000000715056,1.8401000000237673,2.140800000071522,2.3332000000476683,2.433100000023842]",,,,,,6,594631,Audio/594631.mp3,EGNER,0,1,1,1,1,,,,,,,,,,,,,,,,,,,,,,,,,,,,,,,,,,,,,,,,,,,,,,,,,,,,,,,,,,,,,,,,,,,,,,,,,,,,,,,,,,,,
,392002593306,BCA,21/06/2000,001,2023-04-05_16h54.51.758,OS3_Mult_verification,2022.2.4,Win32,60.17571308,,,,,,,,,,,,,,,,,,,,,,,,,,,,,,,,,,,,,,,,,,,,,,,,,,,,,,,,,,,,,,,,,,,,,,,,,,,,,,,,,,,,,,,,,,,0,4,4,4,1,digitSpan_stim/sixAudio.xlsx,,,,,,,,,,,,,,,,,,,,,,,,,,,,,,,,,,,,,,,,,,,,,,,,,,,,,,,,,,,,,,,,,,,,,,,,,,,,,,
,392002593306,BCA,21/06/2000,001,2023-04-05_16h54.51.758,OS3_Mult_verification,2022.2.4,Win32,60.17571308,,,,,,,,,,,,,,,,,,,,,,,,,,,,,,,,,,,,,,,,,,,,,,,,,,,,,,,,,,,,,,,,,,,,,,,,8241973,4.3988,1,"[""8"",""2"",""4"",""1"",""9"",""7"",""3"",""return""]","[1.6369000000954657,2.037400000095431,2.4006000000239283,2.6838000000715283,3.017100000023902,3.7726000000238855,4.183700000047679,4.366400000095382]",,,,,,7,8241973,Audio/8241973.mp3,EGNER,0,0,0,0,1,,,,,,,,,,,,,,,,,,,,,,,,,,,,,,,,,,,,,,,,,,,,,,,,,,,,,,,,,,,,,,,,,,,,,,,,,,,,,,,,,,,,
,392002593306,BCA,21/06/2000,001,2023-04-05_16h54.51.758,OS3_Mult_verification,2022.2.4,Win32,60.17571308,,,,,,,,,,,,,,,,,,,,,,,,,,,,,,,,,,,,,,,,,,,,,,,,,,,,,,,,,,,,,,,,,,,,,,,,2814367,3.5158,1,"[""2"",""8"",""1"",""4"",""3"",""6"",""7"",""return""]","[1.1275000000000546,1.4353000000714928,1.6944000000953565,1.9343000000715165,2.873900000095432,3.0515000000000327,3.2179000000953693,3.47530000007157]",,,,,,7,2814367,Audio/2814367.mp3,EGNER,0,1,1,1,1,,,,,,,,,,,,,,,,,,,,,,,,,,,,,,,,,,,,,,,,,,,,,,,,,,,,,,,,,,,,,,,,,,,,,,,,,,,,,,,,,,,,
,392002593306,BCA,21/06/2000,001,2023-04-05_16h54.51.758,OS3_Mult_verification,2022.2.4,Win32,60.17571308,,,,,,,,,,,,,,,,,,,,,,,,,,,,,,,,,,,,,,,,,,,,,,,,,,,,,,,,,,,,,,,,,,,,,,,,,,,,,,,,,,,,,,,,,,,0,5,5,5,1,digitSpan_stim/sevenAudio.xlsx,,,,,,,,,,,,,,,,,,,,,,,,,,,,,,,,,,,,,,,,,,,,,,,,,,,,,,,,,,,,,,,,,,,,,,,,,,,,,,
,392002593306,BCA,21/06/2000,001,2023-04-05_16h54.51.758,OS3_Mult_verification,2022.2.4,Win32,60.17571308,,,,,,,,,,,,,,,,,,,,,,,,,,,,,,,,,,,,,,,,,,,,,,,,,,,,,,,,,,,,,,,,,,,,,,,,532172641,10.8479,0,"[""5"",""3"",""2"",""1"",""7"",""4"",""backspace"",""2"",""6"",""4"",""1"",""return""]","[1.7846000000238291,2.45380000007151,2.7523000000715,3.001400000095373,4.334600000023897,6.184500000000071,7.768900000095414,9.332200000047692,9.56590000009544,10.365700000047696,10.482400000095367,10.805400000095347]",,,,,,8,53827164,Audio/53827164.mp3,EGNER,0,0,0,0,1,,,,,,,,,,,,,,,,,,,,,,,,,,,,,,,,,,,,,,,,,,,,,,,,,,,,,,,,,,,,,,,,,,,,,,,,,,,,,,,,,,,,
,392002593306,BCA,21/06/2000,001,2023-04-05_16h54.51.758,OS3_Mult_verification,2022.2.4,Win32,60.17571308,,,,,,,,,,,,,,,,,,,,,,,,,,,,,,,,,,,,,,,,,,,,,,,,,,,,,,,,,,,,,,,,,,,,,,,,7524179,4.4935,0,"[""7"",""5"",""2"",""4"",""1"",""7"",""9"",""return""]","[1.6891000000238137,2.305100000023799,2.6503999999761163,3.383600000023762,3.616999999999962,3.9996000000237473,4.216100000023744,4.452100000023734]",,,,,,8,75241739,Audio/75241739.mp3,EGNER,0,1,1,1,1,,,,,,,,,,,,,,,,,,,,,,,,,,,,,,,,,,,,,,,,,,,,,,,,,,,,,,,,,,,,,,,,,,,,,,,,,,,,,,,,,,,,
,392002593306,BCA,21/06/2000,001,2023-04-05_16h54.51.758,OS3_Mult_verification,2022.2.4,Win32,60.17571308,,,,,,,,,,,,,,,,,,,,,,,,,,,,,,,,,,,,,,,,,,,,,,,,,,,,,,,,,,,,,,,,,,,,,,,,,,,,,,,,,,Egner,,,,,,,,,,,,,,,0,0,0,0,1,digitSpan_stim/Egner.xlsx,,,,,,,,,,,,,,,,,,,,,,,,,,,,,,,,,,,,,,,,,,,,,,,,,,,,,,,,,,,,,,,,,,,,,,,,
,392002593306,BCA,21/06/2000,001,2023-04-05_16h54.51.758,OS3_Mult_verification,2022.2.4,Win32,60.17571308,,,,,,,,,,,,,,,,,,,,,,,,,,,,,,,,,,,,,,,,,,,,,,,,,,,,,,,,,,,,,,,,,,,,,,,,97,2.6326,1,"[""9"",""7"",""return""]","[1.9110000000000582,2.148300000071572,2.594200000047749]",,,,,,2,97,Audio/97.mp3,WAIS,0,0,0,0,1,,,,,,,,,,,,,,,,,,,,,,,,,,,,,,,,,,,,,,,,,,,,,,,,,,,,,,,,,,,,,,,,,,,,,,,,,,,,,,,,,,,,
,392002593306,BCA,21/06/2000,001,2023-04-05_16h54.51.758,OS3_Mult_verification,2022.2.4,Win32,60.17571308,,,,,,,,,,,,,,,,,,,,,,,,,,,,,,,,,,,,,,,,,,,,,,,,,,,,,,,,,,,,,,,,,,,,,,,,63,1.4536,1,"[""6"",""3"",""return""]","[0.8010000000000446,0.9037999999522981,1.406500000000051]",,,,,,2,63,Audio/63.mp3,WAIS,0,1,1,1,1,,,,,,,,,,,,,,,,,,,,,,,,,,,,,,,,,,,,,,,,,,,,,,,,,,,,,,,,,,,,,,,,,,,,,,,,,,,,,,,,,,,,
,392002593306,BCA,21/06/2000,001,2023-04-05_16h54.51.758,OS3_Mult_verification,2022.2.4,Win32,60.17571308,,,,,,,,,,,,,,,,,,,,,,,,,,,,,,,,,,,,,,,,,,,,,,,,,,,,,,,,,,,,,,,,,,,,,,,,,,,,,,,,,,,,,,,,,,,0,0,0,0,1,digitSpan_stim/twoWAIS.xlsx,,,,,,,,,,,,,,,,,,,,,,,,,,,,,,,,,,,,,,,,,,,,,,,,,,,,,,,,,,,,,,,,,,,,,,,,,,,,,,
,392002593306,BCA,21/06/2000,001,2023-04-05_16h54.51.758,OS3_Mult_verification,2022.2.4,Win32,60.17571308,,,,,,,,,,,,,,,,,,,,,,,,,,,,,,,,,,,,,,,,,,,,,,,,,,,,,,,,,,,,,,,,,,,,,,,,582,1.1983,1,"[""5"",""8"",""2"",""return""]","[0.517200000047751,0.6503000000716384,0.9513000000715692,1.1555000000000746]",,,,,,3,582,Audio/582.mp3,WAIS,0,0,0,0,1,,,,,,,,,,,,,,,,,,,,,,,,,,,,,,,,,,,,,,,,,,,,,,,,,,,,,,,,,,,,,,,,,,,,,,,,,,,,,,,,,,,,
,392002593306,BCA,21/06/2000,001,2023-04-05_16h54.51.758,OS3_Mult_verification,2022.2.4,Win32,60.17571308,,,,,,,,,,,,,,,,,,,,,,,,,,,,,,,,,,,,,,,,,,,,,,,,,,,,,,,,,,,,,,,,,,,,,,,,694,3.1821,1,"[""6"",""9"",""4"",""return""]","[2.170799999952351,2.587100000023838,2.9592000000477583,3.1420000000000528]",,,,,,3,694,Audio/694.mp3,WAIS,0,1,1,1,1,,,,,,,,,,,,,,,,,,,,,,,,,,,,,,,,,,,,,,,,,,,,,,,,,,,,,,,,,,,,,,,,,,,,,,,,,,,,,,,,,,,,
,392002593306,BCA,21/06/2000,001,2023-04-05_16h54.51.758,OS3_Mult_verification,2022.2.4,Win32,60.17571308,,,,,,,,,,,,,,,,,,,,,,,,,,,,,,,,,,,,,,,,,,,,,,,,,,,,,,,,,,,,,,,,,,,,,,,,,,,,,,,,,,,,,,,,,,,0,1,1,1,1,digitSpan_stim/threeWAIS.xlsx,,,,,,,,,,,,,,,,,,,,,,,,,,,,,,,,,,,,,,,,,,,,,,,,,,,,,,,,,,,,,,,,,,,,,,,,,,,,,,
,392002593306,BCA,21/06/2000,001,2023-04-05_16h54.51.758,OS3_Mult_verification,2022.2.4,Win32,60.17571308,,,,,,,,,,,,,,,,,,,,,,,,,,,,,,,,,,,,,,,,,,,,,,,,,,,,,,,,,,,,,,,,,,,,,,,,7286,3.9321,1,"[""7"",""2"",""8"",""6"",""return""]","[1.8996999999284299,2.9406999999284835,3.250899999976127,3.639199999928451,3.884999999999991]",,,,,,4,7286,Audio/7286.mp3,WAIS,0,0,0,0,1,,,,,,,,,,,,,,,,,,,,,,,,,,,,,,,,,,,,,,,,,,,,,,,,,,,,,,,,,,,,,,,,,,,,,,,,,,,,,,,,,,,,
,392002593306,BCA,21/06/2000,001,2023-04-05_16h54.51.758,OS3_Mult_verification,2022.2.4,Win32,60.17571308,,,,,,,,,,,,,,,,,,,,,,,,,,,,,,,,,,,,,,,,,,,,,,,,,,,,,,,,,,,,,,,,,,,,,,,,6439,2.6048,1,"[""6"",""4"",""3"",""9"",""return""]","[1.1183000000714856,1.6018999999761263,1.9204999999999472,2.3215000000000146,2.5666000000238682]",,,,,,4,6439,Audio/6439.mp3,WAIS,0,1,1,1,1,,,,,,,,,,,,,,,,,,,,,,,,,,,,,,,,,,,,,,,,,,,,,,,,,,,,,,,,,,,,,,,,,,,,,,,,,,,,,,,,,,,,
,392002593306,BCA,21/06/2000,001,2023-04-05_16h54.51.758,OS3_Mult_verification,2022.2.4,Win32,60.17571308,,,,,,,,,,,,,,,,,,,,,,,,,,,,,,,,,,,,,,,,,,,,,,,,,,,,,,,,,,,,,,,,,,,,,,,,,,,,,,,,,,,,,,,,,,,0,2,2,2,1,digitSpan_stim/fourWAIS.xlsx,,,,,,,,,,,,,,,,,,,,,,,,,,,,,,,,,,,,,,,,,,,,,,,,,,,,,,,,,,,,,,,,,,,,,,,,,,,,,,
,392002593306,BCA,21/06/2000,001,2023-04-05_16h54.51.758,OS3_Mult_verification,2022.2.4,Win32,60.17571308,,,,,,,,,,,,,,,,,,,,,,,,,,,,,,,,,,,,,,,,,,,,,,,,,,,,,,,,,,,,,,,,,,,,,,,,42731,2.4869,1,"[""4"",""2"",""7"",""3"",""1"",""return""]","[0.6171000000238109,1.0499000000953629,1.7172000000476828,1.9304000000953465,2.1231000000237827,2.4494999999999436]",,,,,,5,42731,Audio/42731.mp3,WAIS,0,0,0,0,1,,,,,,,,,,,,,,,,,,,,,,,,,,,,,,,,,,,,,,,,,,,,,,,,,,,,,,,,,,,,,,,,,,,,,,,,,,,,,,,,,,,,
,392002593306,BCA,21/06/2000,001,2023-04-05_16h54.51.758,OS3_Mult_verification,2022.2.4,Win32,60.17571308,,,,,,,,,,,,,,,,,,,,,,,,,,,,,,,,,,,,,,,,,,,,,,,,,,,,,,,,,,,,,,,,,,,,,,,,75836,3.2702,1,"[""7"",""5"",""8"",""3"",""6"",""return""]","[0.7335000000000491,1.967700000047671,2.167500000000018,2.566899999976158,2.904700000047683,3.2280000000000655]",,,,,,5,75836,Audio/75836.mp3,WAIS,0,1,1,1,1,,,,,,,,,,,,,,,,,,,,,,,,,,,,,,,,,,,,,,,,,,,,,,,,,,,,,,,,,,,,,,,,,,,,,,,,,,,,,,,,,,,,
,392002593306,BCA,21/06/2000,001,2023-04-05_16h54.51.758,OS3_Mult_verification,2022.2.4,Win32,60.17571308,,,,,,,,,,,,,,,,,,,,,,,,,,,,,,,,,,,,,,,,,,,,,,,,,,,,,,,,,,,,,,,,,,,,,,,,,,,,,,,,,,,,,,,,,,,0,3,3,3,1,digitSpan_stim/fiveWAIS.xlsx,,,,,,,,,,,,,,,,,,,,,,,,,,,,,,,,,,,,,,,,,,,,,,,,,,,,,,,,,,,,,,,,,,,,,,,,,,,,,,
,392002593306,BCA,21/06/2000,001,2023-04-05_16h54.51.758,OS3_Mult_verification,2022.2.4,Win32,60.17571308,,,,,,,,,,,,,,,,,,,,,,,,,,,,,,,,,,,,,,,,,,,,,,,,,,,,,,,,,,,,,,,,,,,,,,,,392487,2.8272,1,"[""3"",""9"",""2"",""4"",""8"",""7"",""return""]","[0.75100000000009,0.9841000000238864,1.6838000000715283,1.9009000000954757,2.319200000047772,2.5013000000715238,2.7918000000715892]",,,,,,6,392487,Audio/392487.mp3,WAIS,0,0,0,0,1,,,,,,,,,,,,,,,,,,,,,,,,,,,,,,,,,,,,,,,,,,,,,,,,,,,,,,,,,,,,,,,,,,,,,,,,,,,,,,,,,,,,
,392002593306,BCA,21/06/2000,001,2023-04-05_16h54.51.758,OS3_Mult_verification,2022.2.4,Win32,60.17571308,,,,,,,,,,,,,,,,,,,,,,,,,,,,,,,,,,,,,,,,,,,,,,,,,,,,,,,,,,,,,,,,,,,,,,,,619473,3.9656,1,"[""6"",""1"",""9"",""4"",""7"",""3"",""return""]","[1.883199999928479,2.249899999976151,2.536000000000058,2.983500000000049,3.3541999999284826,3.7208999999761545,3.9241000000238273]",,,,,,6,619473,Audio/619473.mp3,WAIS,0,1,1,1,1,,,,,,,,,,,,,,,,,,,,,,,,,,,,,,,,,,,,,,,,,,,,,,,,,,,,,,,,,,,,,,,,,,,,,,,,,,,,,,,,,,,,
,392002593306,BCA,21/06/2000,001,2023-04-05_16h54.51.758,OS3_Mult_verification,2022.2.4,Win32,60.17571308,,,,,,,,,,,,,,,,,,,,,,,,,,,,,,,,,,,,,,,,,,,,,,,,,,,,,,,,,,,,,,,,,,,,,,,,,,,,,,,,,,,,,,,,,,,0,4,4,4,1,digitSpan_stim/sixWAIS.xlsx,,,,,,,,,,,,,,,,,,,,,,,,,,,,,,,,,,,,,,,,,,,,,,,,,,,,,,,,,,,,,,,,,,,,,,,,,,,,,,
,392002593306,BCA,21/06/2000,001,2023-04-05_16h54.51.758,OS3_Mult_verification,2022.2.4,Win32,60.17571308,,,,,,,,,,,,,,,,,,,,,,,,,,,,,,,,,,,,,,,,,,,,,,,,,,,,,,,,,,,,,,,,,,,,,,,,6941728,9.4144,0,"[""6"",""9"",""4"",""1"",""7"",""2"",""8"",""return""]","[6.3663999999761245,6.592100000023834,7.248600000023771,7.565199999928382,7.9982999999522235,9.031399999976088,9.148199999928465,9.372799999952235]",,,,,,7,6917428,Audio/6917428.mp3,WAIS,0,0,0,0,1,,,,,,,,,,,,,,,,,,,,,,,,,,,,,,,,,,,,,,,,,,,,,,,,,,,,,,,,,,,,,,,,,,,,,,,,,,,,,,,,,,,,
,392002593306,BCA,21/06/2000,001,2023-04-05_16h54.51.758,OS3_Mult_verification,2022.2.4,Win32,60.17571308,,,,,,,,,,,,,,,,,,,,,,,,,,,,,,,,,,,,,,,,,,,,,,,,,,,,,,,,,,,,,,,,,,,,,,,,4179986,6.0425,0,"[""4"",""1"",""7"",""9"",""9"",""8"",""6"",""return""]","[2.0012000000476746,2.150899999976218,2.651299999952357,2.933200000047691,5.0506000000239055,5.349200000047745,5.876799999952368,6.007000000000062]",,,,,,7,4179386,Audio/4179386.mp3,WAIS,0,1,1,1,1,,,,,,,,,,,,,,,,,,,,,,,,,,,,,,,,,,,,,,,,,,,,,,,,,,,,,,,,,,,,,,,,,,,,,,,,,,,,,,,,,,,,
,392002593306,BCA,21/06/2000,001,2023-04-05_16h54.51.758,OS3_Mult_verification,2022.2.4,Win32,60.17571308,,,,,,,,,,,,,,,,,,,,,,,,,,,,,,,,,,,,,,,,,,,,,,,,,,,,,,,,,,,,,,,,,,,,,,,,,,,,,,,,,,WAIS,,,,,,,,,,,,,,,0,1,1,1,1,digitSpan_stim/WAIS.xlsx,,,,,,,,,,,,,,,,,,,,,,,,,,,,,,,,,,,,,,,,,,,,,,,,,,,,,,,,,,,,,,,,,,,,,,,,
,392002593306,BCA,21/06/2000,001,2023-04-05_16h54.51.758,OS3_Mult_verification,2022.2.4,Win32,60.17571308,,,,,,,,,,,,,,,,,,,,,,,,,,,,,,,,,,,,,,,,,,,,,,,,,,,,,,,,,,,,,,,,,,,,,,,,,,,,,,,,,,,,,,,,,,,,,,,,,,,,,,,0,0,0,0,1,,,,,,,,,,,,,,,,,,,,,,,,,,,,,,,,,,,,,,,,,,,,,,,,,,,,,,,,,,,,,,,,,,,
,392002593306,BCA,21/06/2000,001,2023-04-05_16h54.51.758,OS3_Mult_verification,2022.2.4,Win32,60.17571308,,,,,,,,,,,,,,,,,,,,,,,,,,,,,,,,,,,,,,,,,,,,,,,,,,,,,,,,,,,,,,0,1,1,1,1,0,0,1,,,,,,,,,,,,,,,,,,,,,,,,,,,,,,,,,,,,,,,,,,,,,,,,,,,,,,,,,,,,,,,,,,,,,,,,,,,,,,,,,,,,,,,,,,,,,,,,,,,,,,,,,
,392002593306,BCA,21/06/2000,001,2023-04-05_16h54.51.758,OS3_Mult_verification,2022.2.4,Win32,60.17571308,,,,,,,,,,,,,,,,space,1.3998,,,,,,,,,,,,,,,,,,,,,,,,,,,,,,,,,,,,,,,,,,,,,,,,,,,,,,,,,,,,,,,,,,,,,,,,,,,,,,,,,,,,,,,,,,,right,1,0.5619,0,0,0,2,1,practice,4,9,4 | 9,5,0.06,0.06,neutral,right,,,,,,,,,,,,,,,,,,,,,,,,,,,,,,,,,,,,,,,,,,,,,,,,,,
,392002593306,BCA,21/06/2000,001,2023-04-05_16h54.51.758,OS3_Mult_verification,2022.2.4,Win32,60.17571308,,,,,,,,,,,,,,,,,,,,,,,,,,,,,,,,,,,,,,,,,,,,,,,,,,,,,,,,,,,,,,,,,,,,,,,,,,,,,,,,,,,,,,,,,,,,,,,,,,,,,,,,,,,,right,1,0.4969,0,1,1,0,1,practice,1,2,1 | 2,1,0.05,0.065,congruent,right,,,,,,,,,,,,,,,,,,,,,,,,,,,,,,,,,,,,,,,,,,,,,,,,,,
,392002593306,BCA,21/06/2000,001,2023-04-05_16h54.51.758,OS3_Mult_verification,2022.2.4,Win32,60.17571308,,,,,,,,,,,,,,,,,,,,,,,,,,,,,,,,,,,,,,,,,,,,,,,,,,,,,,,,,,,,,,,,,,,,,,,,,,,,,,,,,,,,,,,,,,,,,,,,,,,,,,,,,,,,right,1,0.7002,0,2,2,1,1,practice,7,8,7 | 8,1,0.065,0.05,incongruent,right,,,,,,,,,,,,,,,,,,,,,,,,,,,,,,,,,,,,,,,,,,,,,,,,,,
,392002593306,BCA,21/06/2000,001,2023-04-05_16h54.51.758,OS3_Mult_verification,2022.2.4,Win32,60.17571308,,,,,,,,,,,,,,,,,,,,,,,,,,,,,,,,,,,,,,,,,,,,,,,,,,,,,,,,,,,,,,,,,,,,,,,,,,,,,,,,,,,,,,,,,,,,,,,,,,,,,,,,,,,,right,1,0.8414,,,,,,magnitude,6,8,6 | 8,2,0.065,0.05,incongruent,right,0,0,0,34,1,,,,,,,,,,,,,,,,,,,,,,,,,,,,,,,,,,,,,,,,,,,,,
,392002593306,BCA,21/06/2000,001,2023-04-05_16h54.51.758,OS3_Mult_verification,2022.2.4,Win32,60.17571308,,,,,,,,,,,,,,,,,,,,,,,,,,,,,,,,,,,,,,,,,,,,,,,,,,,,,,,,,,,,,,,,,,,,,,,,,,,,,,,,,,,,,,,,,,,,,,,,,,,,,,,,,,,,left,1,0.538,,,,,,magnitude,9,7,9 | 7,2,0.06,0.06,neutral,left,0,1,1,63,1,,,,,,,,,,,,,,,,,,,,,,,,,,,,,,,,,,,,,,,,,,,,,
,392002593306,BCA,21/06/2000,001,2023-04-05_16h54.51.758,OS3_Mult_verification,2022.2.4,Win32,60.17571308,,,,,,,,,,,,,,,,,,,,,,,,,,,,,,,,,,,,,,,,,,,,,,,,,,,,,,,,,,,,,,,,,,,,,,,,,,,,,,,,,,,,,,,,,,,,,,,,,,,,,,,,,,,,right,1,0.4808,,,,,,magnitude,3,8,3 | 8,5,0.06,0.06,neutral,right,0,2,2,66,1,,,,,,,,,,,,,,,,,,,,,,,,,,,,,,,,,,,,,,,,,,,,,
,392002593306,BCA,21/06/2000,001,2023-04-05_16h54.51.758,OS3_Mult_verification,2022.2.4,Win32,60.17571308,,,,,,,,,,,,,,,,,,,,,,,,,,,,,,,,,,,,,,,,,,,,,,,,,,,,,,,,,,,,,,,,,,,,,,,,,,,,,,,,,,,,,,,,,,,,,,,,,,,,,,,,,,,,right,0,0.4831,,,,,,magnitude,8,6,8 | 6,2,0.05,0.065,incongruent,left,0,3,3,38,1,,,,,,,,,,,,,,,,,,,,,,,,,,,,,,,,,,,,,,,,,,,,,
,392002593306,BCA,21/06/2000,001,2023-04-05_16h54.51.758,OS3_Mult_verification,2022.2.4,Win32,60.17571308,,,,,,,,,,,,,,,,,,,,,,,,,,,,,,,,,,,,,,,,,,,,,,,,,,,,,,,,,,,,,,,,,,,,,,,,,,,,,,,,,,,,,,,,,,,,,,,,,,,,,,,,,,,,left,1,0.6216,,,,,,magnitude,9,4,9 | 4,5,0.05,0.065,incongruent,left,0,4,4,47,1,,,,,,,,,,,,,,,,,,,,,,,,,,,,,,,,,,,,,,,,,,,,,
,392002593306,BCA,21/06/2000,001,2023-04-05_16h54.51.758,OS3_Mult_verification,2022.2.4,Win32,60.17571308,,,,,,,,,,,,,,,,,,,,,,,,,,,,,,,,,,,,,,,,,,,,,,,,,,,,,,,,,,,,,,,,,,,,,,,,,,,,,,,,,,,,,,,,,,,,,,,,,,,,,,,,,,,,right,1,0.6103,,,,,,magnitude,1,6,1 | 6,5,0.06,0.06,neutral,right,0,5,5,64,1,,,,,,,,,,,,,,,,,,,,,,,,,,,,,,,,,,,,,,,,,,,,,
,392002593306,BCA,21/06/2000,001,2023-04-05_16h54.51.758,OS3_Mult_verification,2022.2.4,Win32,60.17571308,,,,,,,,,,,,,,,,,,,,,,,,,,,,,,,,,,,,,,,,,,,,,,,,,,,,,,,,,,,,,,,,,,,,,,,,,,,,,,,,,,,,,,,,,,,,,,,,,,,,,,,,,,,,right,1,0.5521,,,,,,magnitude,8,9,8 | 9,1,0.05,0.065,congruent,right,0,6,6,3,1,,,,,,,,,,,,,,,,,,,,,,,,,,,,,,,,,,,,,,,,,,,,,
,392002593306,BCA,21/06/2000,001,2023-04-05_16h54.51.758,OS3_Mult_verification,2022.2.4,Win32,60.17571308,,,,,,,,,,,,,,,,,,,,,,,,,,,,,,,,,,,,,,,,,,,,,,,,,,,,,,,,,,,,,,,,,,,,,,,,,,,,,,,,,,,,,,,,,,,,,,,,,,,,,,,,,,,,right,1,0.6916,,,,,,magnitude,2,4,2 | 4,2,0.06,0.06,neutral,right,0,7,7,57,1,,,,,,,,,,,,,,,,,,,,,,,,,,,,,,,,,,,,,,,,,,,,,
,392002593306,BCA,21/06/2000,001,2023-04-05_16h54.51.758,OS3_Mult_verification,2022.2.4,Win32,60.17571308,,,,,,,,,,,,,,,,,,,,,,,,,,,,,,,,,,,,,,,,,,,,,,,,,,,,,,,,,,,,,,,,,,,,,,,,,,,,,,,,,,,,,,,,,,,,,,,,,,,,,,,,,,,,right,1,0.6564,,,,,,magnitude,6,8,6 | 8,2,0.06,0.06,neutral,right,0,8,8,58,1,,,,,,,,,,,,,,,,,,,,,,,,,,,,,,,,,,,,,,,,,,,,,
,392002593306,BCA,21/06/2000,001,2023-04-05_16h54.51.758,OS3_Mult_verification,2022.2.4,Win32,60.17571308,,,,,,,,,,,,,,,,,,,,,,,,,,,,,,,,,,,,,,,,,,,,,,,,,,,,,,,,,,,,,,,,,,,,,,,,,,,,,,,,,,,,,,,,,,,,,,,,,,,,,,,,,,,,right,1,0.5413,,,,,,magnitude,2,7,2 | 7,5,0.06,0.06,neutral,right,0,9,9,65,1,,,,,,,,,,,,,,,,,,,,,,,,,,,,,,,,,,,,,,,,,,,,,
,392002593306,BCA,21/06/2000,001,2023-04-05_16h54.51.758,OS3_Mult_verification,2022.2.4,Win32,60.17571308,,,,,,,,,,,,,,,,,,,,,,,,,,,,,,,,,,,,,,,,,,,,,,,,,,,,,,,,,,,,,,,,,,,,,,,,,,,,,,,,,,,,,,,,,,,,,,,,,,,,,,,,,,,,left,1,0.5828,,,,,,magnitude,6,1,6 | 1,5,0.05,0.065,incongruent,left,0,10,10,44,1,,,,,,,,,,,,,,,,,,,,,,,,,,,,,,,,,,,,,,,,,,,,,
,392002593306,BCA,21/06/2000,001,2023-04-05_16h54.51.758,OS3_Mult_verification,2022.2.4,Win32,60.17571308,,,,,,,,,,,,,,,,,,,,,,,,,,,,,,,,,,,,,,,,,,,,,,,,,,,,,,,,,,,,,,,,,,,,,,,,,,,,,,,,,,,,,,,,,,,,,,,,,,,,,,,,,,,,left,1,0.5143,,,,,,magnitude,7,2,7 | 2,5,0.065,0.05,congruent,left,0,11,11,21,1,,,,,,,,,,,,,,,,,,,,,,,,,,,,,,,,,,,,,,,,,,,,,
,392002593306,BCA,21/06/2000,001,2023-04-05_16h54.51.758,OS3_Mult_verification,2022.2.4,Win32,60.17571308,,,,,,,,,,,,,,,,,,,,,,,,,,,,,,,,,,,,,,,,,,,,,,,,,,,,,,,,,,,,,,,,,,,,,,,,,,,,,,,,,,,,,,,,,,,,,,,,,,,,,,,,,,,,right,1,0.6294,,,,,,magnitude,3,4,3 | 4,1,0.06,0.06,neutral,right,0,12,12,49,1,,,,,,,,,,,,,,,,,,,,,,,,,,,,,,,,,,,,,,,,,,,,,
,392002593306,BCA,21/06/2000,001,2023-04-05_16h54.51.758,OS3_Mult_verification,2022.2.4,Win32,60.17571308,,,,,,,,,,,,,,,,,,,,,,,,,,,,,,,,,,,,,,,,,,,,,,,,,,,,,,,,,,,,,,,,,,,,,,,,,,,,,,,,,,,,,,,,,,,,,,,,,,,,,,,,,,,,left,1,0.4628,,,,,,magnitude,7,2,7 | 2,5,0.06,0.06,neutral,left,0,13,13,69,1,,,,,,,,,,,,,,,,,,,,,,,,,,,,,,,,,,,,,,,,,,,,,
,392002593306,BCA,21/06/2000,001,2023-04-05_16h54.51.758,OS3_Mult_verification,2022.2.4,Win32,60.17571308,,,,,,,,,,,,,,,,,,,,,,,,,,,,,,,,,,,,,,,,,,,,,,,,,,,,,,,,,,,,,,,,,,,,,,,,,,,,,,,,,,,,,,,,,,,,,,,,,,,,,,,,,,,,left,1,0.5666,,,,,,magnitude,9,4,9 | 4,5,0.06,0.06,neutral,left,0,14,14,71,1,,,,,,,,,,,,,,,,,,,,,,,,,,,,,,,,,,,,,,,,,,,,,
,392002593306,BCA,21/06/2000,001,2023-04-05_16h54.51.758,OS3_Mult_verification,2022.2.4,Win32,60.17571308,,,,,,,,,,,,,,,,,,,,,,,,,,,,,,,,,,,,,,,,,,,,,,,,,,,,,,,,,,,,,,,,,,,,,,,,,,,,,,,,,,,,,,,,,,,,,,,,,,,,,,,,,,,,left,1,0.8343,,,,,,magnitude,9,8,9 | 8,1,0.05,0.065,incongruent,left,0,15,15,31,1,,,,,,,,,,,,,,,,,,,,,,,,,,,,,,,,,,,,,,,,,,,,,
,392002593306,BCA,21/06/2000,001,2023-04-05_16h54.51.758,OS3_Mult_verification,2022.2.4,Win32,60.17571308,,,,,,,,,,,,,,,,,,,,,,,,,,,,,,,,,,,,,,,,,,,,,,,,,,,,,,,,,,,,,,,,,,,,,,,,,,,,,,,,,,,,,,,,,,,,,,,,,,,,,,,,,,,,left,1,0.7686,,,,,,magnitude,7,6,7 | 6,1,0.06,0.06,neutral,left,0,16,16,54,1,,,,,,,,,,,,,,,,,,,,,,,,,,,,,,,,,,,,,,,,,,,,,
,392002593306,BCA,21/06/2000,001,2023-04-05_16h54.51.758,OS3_Mult_verification,2022.2.4,Win32,60.17571308,,,,,,,,,,,,,,,,,,,,,,,,,,,,,,,,,,,,,,,,,,,,,,,,,,,,,,,,,,,,,,,,,,,,,,,,,,,,,,,,,,,,,,,,,,,,,,,,,,,,,,,,,,,,left,1,0.8443,,,,,,magnitude,9,7,9 | 7,2,0.05,0.065,incongruent,left,0,17,17,39,1,,,,,,,,,,,,,,,,,,,,,,,,,,,,,,,,,,,,,,,,,,,,,
,392002593306,BCA,21/06/2000,001,2023-04-05_16h54.51.758,OS3_Mult_verification,2022.2.4,Win32,60.17571308,,,,,,,,,,,,,,,,,,,,,,,,,,,,,,,,,,,,,,,,,,,,,,,,,,,,,,,,,,,,,,,,,,,,,,,,,,,,,,,,,,,,,,,,,,,,,,,,,,,,,,,,,,,,right,1,0.6142,,,,,,magnitude,2,4,2 | 4,2,0.05,0.065,congruent,right,0,18,18,9,1,,,,,,,,,,,,,,,,,,,,,,,,,,,,,,,,,,,,,,,,,,,,,
,392002593306,BCA,21/06/2000,001,2023-04-05_16h54.51.758,OS3_Mult_verification,2022.2.4,Win32,60.17571308,,,,,,,,,,,,,,,,,,,,,,,,,,,,,,,,,,,,,,,,,,,,,,,,,,,,,,,,,,,,,,,,,,,,,,,,,,,,,,,,,,,,,,,,,,,,,,,,,,,,,,,,,,,,left,1,0.774,,,,,,magnitude,7,6,7 | 6,1,0.05,0.065,incongruent,left,0,19,19,30,1,,,,,,,,,,,,,,,,,,,,,,,,,,,,,,,,,,,,,,,,,,,,,
,392002593306,BCA,21/06/2000,001,2023-04-05_16h54.51.758,OS3_Mult_verification,2022.2.4,Win32,60.17571308,,,,,,,,,,,,,,,,,,,,,,,,,,,,,,,,,,,,,,,,,,,,,,,,,,,,,,,,,,,,,,,,,,,,,,,,,,,,,,,,,,,,,,,,,,,,,,,,,,,,,,,,,,,,right,1,0.779,,,,,,magnitude,3,8,3 | 8,5,0.065,0.05,incongruent,right,0,20,20,42,1,,,,,,,,,,,,,,,,,,,,,,,,,,,,,,,,,,,,,,,,,,,,,
,392002593306,BCA,21/06/2000,001,2023-04-05_16h54.51.758,OS3_Mult_verification,2022.2.4,Win32,60.17571308,,,,,,,,,,,,,,,,,,,,,,,,,,,,,,,,,,,,,,,,,,,,,,,,,,,,,,,,,,,,,,,,,,,,,,,,,,,,,,,,,,,,,,,,,,,,,,,,,,,,,,,,,,,,left,1,0.5317,,,,,,magnitude,2,1,2 | 1,1,0.065,0.05,congruent,left,0,21,21,4,1,,,,,,,,,,,,,,,,,,,,,,,,,,,,,,,,,,,,,,,,,,,,,
,392002593306,BCA,21/06/2000,001,2023-04-05_16h54.51.758,OS3_Mult_verification,2022.2.4,Win32,60.17571308,,,,,,,,,,,,,,,,,,,,,,,,,,,,,,,,,,,,,,,,,,,,,,,,,,,,,,,,,,,,,,,,,,,,,,,,,,,,,,,,,,,,,,,,,,,,,,,,,,,,,,,,,,,,left,1,0.5138,,,,,,magnitude,4,3,4 | 3,1,0.065,0.05,congruent,left,0,22,22,5,1,,,,,,,,,,,,,,,,,,,,,,,,,,,,,,,,,,,,,,,,,,,,,
,392002593306,BCA,21/06/2000,001,2023-04-05_16h54.51.758,OS3_Mult_verification,2022.2.4,Win32,60.17571308,,,,,,,,,,,,,,,,,,,,,,,,,,,,,,,,,,,,,,,,,,,,,,,,,,,,,,,,,,,,,,,,,,,,,,,,,,,,,,,,,,,,,,,,,,,,,,,,,,,,,,,,,,,,right,1,0.5382,,,,,,magnitude,1,3,1 | 3,2,0.05,0.065,congruent,right,0,23,23,8,1,,,,,,,,,,,,,,,,,,,,,,,,,,,,,,,,,,,,,,,,,,,,,
,392002593306,BCA,21/06/2000,001,2023-04-05_16h54.51.758,OS3_Mult_verification,2022.2.4,Win32,60.17571308,,,,,,,,,,,,,,,,,,,,,,,,,,,,,,,,,,,,,,,,,,,,,,,,,,,,,,,,,,,,,,,,,,,,,,,,,,,,,,,,,,,,,,,,,,,,,,,,,,,,,,,,,,,,right,1,0.5867,,,,,,magnitude,1,6,1 | 6,5,0.065,0.05,incongruent,right,0,24,24,40,1,,,,,,,,,,,,,,,,,,,,,,,,,,,,,,,,,,,,,,,,,,,,,
,392002593306,BCA,21/06/2000,001,2023-04-05_16h54.51.758,OS3_Mult_verification,2022.2.4,Win32,60.17571308,,,,,,,,,,,,,,,,,,,,,,,,,,,,,,,,,,,,,,,,,,,,,,,,,,,,,,,,,,,,,,,,,,,,,,,,,,,,,,,,,,,,,,,,,,,,,,,,,,,,,,,,,,,,right,1,0.653,,,,,,magnitude,2,4,2 | 4,2,0.065,0.05,incongruent,right,0,25,25,33,1,,,,,,,,,,,,,,,,,,,,,,,,,,,,,,,,,,,,,,,,,,,,,
,392002593306,BCA,21/06/2000,001,2023-04-05_16h54.51.758,OS3_Mult_verification,2022.2.4,Win32,60.17571308,,,,,,,,,,,,,,,,,,,,,,,,,,,,,,,,,,,,,,,,,,,,,,,,,,,,,,,,,,,,,,,,,,,,,,,,,,,,,,,,,,,,,,,,,,,,,,,,,,,,,,,,,,,,right,1,0.6684,,,,,,magnitude,4,9,4 | 9,5,0.06,0.06,neutral,right,0,26,26,67,1,,,,,,,,,,,,,,,,,,,,,,,,,,,,,,,,,,,,,,,,,,,,,
,392002593306,BCA,21/06/2000,001,2023-04-05_16h54.51.758,OS3_Mult_verification,2022.2.4,Win32,60.17571308,,,,,,,,,,,,,,,,,,,,,,,,,,,,,,,,,,,,,,,,,,,,,,,,,,,,,,,,,,,,,,,,,,,,,,,,,,,,,,,,,,,,,,,,,,,,,,,,,,,,,,,,,,,,right,1,0.6802,,,,,,magnitude,3,4,3 | 4,1,0.065,0.05,incongruent,right,0,27,27,25,1,,,,,,,,,,,,,,,,,,,,,,,,,,,,,,,,,,,,,,,,,,,,,
,392002593306,BCA,21/06/2000,001,2023-04-05_16h54.51.758,OS3_Mult_verification,2022.2.4,Win32,60.17571308,,,,,,,,,,,,,,,,,,,,,,,,,,,,,,,,,,,,,,,,,,,,,,,,,,,,,,,,,,,,,,,,,,,,,,,,,,,,,,,,,,,,,,,,,,,,,,,,,,,,,,,,,,,,right,1,0.4972,,,,,,magnitude,7,9,7 | 9,2,0.05,0.065,congruent,right,0,28,28,11,1,,,,,,,,,,,,,,,,,,,,,,,,,,,,,,,,,,,,,,,,,,,,,
,392002593306,BCA,21/06/2000,001,2023-04-05_16h54.51.758,OS3_Mult_verification,2022.2.4,Win32,60.17571308,,,,,,,,,,,,,,,,,,,,,,,,,,,,,,,,,,,,,,,,,,,,,,,,,,,,,,,,,,,,,,,,,,,,,,,,,,,,,,,,,,,,,,,,,,,,,,,,,,,,,,,,,,,,right,1,0.787,,,,,,magnitude,4,9,4 | 9,5,0.065,0.05,incongruent,right,0,29,29,43,1,,,,,,,,,,,,,,,,,,,,,,,,,,,,,,,,,,,,,,,,,,,,,
,392002593306,BCA,21/06/2000,001,2023-04-05_16h54.51.758,OS3_Mult_verification,2022.2.4,Win32,60.17571308,,,,,,,,,,,,,,,,,,,,,,,,,,,,,,,,,,,,,,,,,,,,,,,,,,,,,,,,,,,,,,,,,,,,,,,,,,,,,,,,,,,,,,,,,,,,,,,,,,,,,,,,,,,,right,1,0.5801,,,,,,magnitude,2,7,2 | 7,5,0.065,0.05,incongruent,right,0,30,30,41,1,,,,,,,,,,,,,,,,,,,,,,,,,,,,,,,,,,,,,,,,,,,,,
,392002593306,BCA,21/06/2000,001,2023-04-05_16h54.51.758,OS3_Mult_verification,2022.2.4,Win32,60.17571308,,,,,,,,,,,,,,,,,,,,,,,,,,,,,,,,,,,,,,,,,,,,,,,,,,,,,,,,,,,,,,,,,,,,,,,,,,,,,,,,,,,,,,,,,,,,,,,,,,,,,,,,,,,,right,1,0.7749,,,,,,magnitude,8,9,8 | 9,1,0.065,0.05,incongruent,right,0,31,31,27,1,,,,,,,,,,,,,,,,,,,,,,,,,,,,,,,,,,,,,,,,,,,,,
,392002593306,BCA,21/06/2000,001,2023-04-05_16h54.51.758,OS3_Mult_verification,2022.2.4,Win32,60.17571308,,,,,,,,,,,,,,,,,,,,,,,,,,,,,,,,,,,,,,,,,,,,,,,,,,,,,,,,,,,,,,,,,,,,,,,,,,,,,,,,,,,,,,,,,,,,,,,,,,,,,,,,,,,,left,1,0.7635,,,,,,magnitude,3,1,3 | 1,2,0.06,0.06,neutral,left,0,32,32,60,1,,,,,,,,,,,,,,,,,,,,,,,,,,,,,,,,,,,,,,,,,,,,,
,392002593306,BCA,21/06/2000,001,2023-04-05_16h54.51.758,OS3_Mult_verification,2022.2.4,Win32,60.17571308,,,,,,,,,,,,,,,,,,,,,,,,,,,,,,,,,,,,,,,,,,,,,,,,,,,,,,,,,,,,,,,,,,,,,,,,,,,,,,,,,,,,,,,,,,,,,,,,,,,,,,,,,,,,right,1,0.5389,,,,,,magnitude,6,8,6 | 8,2,0.05,0.065,congruent,right,0,33,33,10,1,,,,,,,,,,,,,,,,,,,,,,,,,,,,,,,,,,,,,,,,,,,,,
,392002593306,BCA,21/06/2000,001,2023-04-05_16h54.51.758,OS3_Mult_verification,2022.2.4,Win32,60.17571308,,,,,,,,,,,,,,,,,,,,,,,,,,,,,,,,,,,,,,,,,,,,,,,,,,,,,,,,,,,,,,,,,,,,,,,,,,,,,,,,,,,,,,,,,,,,,,,,,,,,,,,,,,,,right,1,0.4458,,,,,,magnitude,1,2,1 | 2,1,0.05,0.065,congruent,right,0,34,34,0,1,,,,,,,,,,,,,,,,,,,,,,,,,,,,,,,,,,,,,,,,,,,,,
,392002593306,BCA,21/06/2000,001,2023-04-05_16h54.51.758,OS3_Mult_verification,2022.2.4,Win32,60.17571308,,,,,,,,,,,,,,,,,,,,,,,,,,,,,,,,,,,,,,,,,,,,,,,,,,,,,,,,,,,,,,,,,,,,,,,,,,,,,,,,,,,,,,,,,,,,,,,,,,,,,,,,,,,,right,1,0.4906,,,,,,magnitude,2,7,2 | 7,5,0.05,0.065,congruent,right,0,35,35,17,1,,,,,,,,,,,,,,,,,,,,,,,,,,,,,,,,,,,,,,,,,,,,,
,392002593306,BCA,21/06/2000,001,2023-04-05_16h54.51.758,OS3_Mult_verification,2022.2.4,Win32,60.17571308,,,,,,,,,,,,,,,,,,,,,,,,,,,,,,,,,,,,,,,,,,,,,,,,,,,,,,,,,,,,,,,,,,,,,,,,,,,,,,,,,,,,,,,,,,,,,,,,,,,,,,,,,,,,right,1,0.4899,,,,,,magnitude,1,3,1 | 3,2,0.065,0.05,incongruent,right,0,36,36,32,1,,,,,,,,,,,,,,,,,,,,,,,,,,,,,,,,,,,,,,,,,,,,,
,392002593306,BCA,21/06/2000,001,2023-04-05_16h54.51.758,OS3_Mult_verification,2022.2.4,Win32,60.17571308,,,,,,,,,,,,,,,,,,,,,,,,,,,,,,,,,,,,,,,,,,,,,,,,,,,,,,,,,,,,,,,,,,,,,,,,,,,,,,,,,,,,,,,,,,,,,,,,,,,,,,,,,,,,left,1,0.6727,,,,,,magnitude,8,6,8 | 6,2,0.06,0.06,neutral,left,0,37,37,62,1,,,,,,,,,,,,,,,,,,,,,,,,,,,,,,,,,,,,,,,,,,,,,
,392002593306,BCA,21/06/2000,001,2023-04-05_16h54.51.758,OS3_Mult_verification,2022.2.4,Win32,60.17571308,,,,,,,,,,,,,,,,,,,,,,,,,,,,,,,,,,,,,,,,,,,,,,,,,,,,,,,,,,,,,,,,,,,,,,,,,,,,,,,,,,,,,,,,,,,,,,,,,,,,,,,,,,,,right,1,0.7202,,,,,,magnitude,1,6,1 | 6,5,0.05,0.065,congruent,right,0,38,38,16,1,,,,,,,,,,,,,,,,,,,,,,,,,,,,,,,,,,,,,,,,,,,,,
,392002593306,BCA,21/06/2000,001,2023-04-05_16h54.51.758,OS3_Mult_verification,2022.2.4,Win32,60.17571308,,,,,,,,,,,,,,,,,,,,,,,,,,,,,,,,,,,,,,,,,,,,,,,,,,,,,,,,,,,,,,,,,,,,,,,,,,,,,,,,,,,,,,,,,,,,,,,,,,,,,,,,,,,,left,1,0.9269,,,,,,magnitude,4,3,4 | 3,1,0.05,0.065,incongruent,left,0,39,39,29,1,,,,,,,,,,,,,,,,,,,,,,,,,,,,,,,,,,,,,,,,,,,,,
,392002593306,BCA,21/06/2000,001,2023-04-05_16h54.51.758,OS3_Mult_verification,2022.2.4,Win32,60.17571308,,,,,,,,,,,,,,,,,,,,,,,,,,,,,,,,,,,,,,,,,,,,,,,,,,,,,,,,,,,,,,,,,,,,,,,,,,,,,,,,,,,,,,,,,,,,,,,,,,,,,,,,,,,,right,1,0.4635,,,,,,magnitude,1,2,1 | 2,1,0.06,0.06,neutral,right,0,40,40,48,1,,,,,,,,,,,,,,,,,,,,,,,,,,,,,,,,,,,,,,,,,,,,,
,392002593306,BCA,21/06/2000,001,2023-04-05_16h54.51.758,OS3_Mult_verification,2022.2.4,Win32,60.17571308,,,,,,,,,,,,,,,,,,,,,,,,,,,,,,,,,,,,,,,,,,,,,,,,,,,,,,,,,,,,,,,,,,,,,,,,,,,,,,,,,,,,,,,,,,,,,,,,,,,,,,,,,,,,left,1,0.611,,,,,,magnitude,8,3,8 | 3,5,0.06,0.06,neutral,left,0,41,41,70,1,,,,,,,,,,,,,,,,,,,,,,,,,,,,,,,,,,,,,,,,,,,,,
,392002593306,BCA,21/06/2000,001,2023-04-05_16h54.51.758,OS3_Mult_verification,2022.2.4,Win32,60.17571308,,,,,,,,,,,,,,,,,,,,,,,,,,,,,,,,,,,,,,,,,,,,,,,,,,,,,,,,,,,,,,,,,,,,,,,,,,,,,,,,,,,,,,,,,,,,,,,,,,,,,,,,,,,,left,1,0.9585,,,,,,magnitude,7,6,7 | 6,1,0.065,0.05,congruent,left,0,42,42,6,1,,,,,,,,,,,,,,,,,,,,,,,,,,,,,,,,,,,,,,,,,,,,,
,392002593306,BCA,21/06/2000,001,2023-04-05_16h54.51.758,OS3_Mult_verification,2022.2.4,Win32,60.17571308,,,,,,,,,,,,,,,,,,,,,,,,,,,,,,,,,,,,,,,,,,,,,,,,,,,,,,,,,,,,,,,,,,,,,,,,,,,,,,,,,,,,,,,,,,,,,,,,,,,,,,,,,,,,right,1,0.6636,,,,,,magnitude,7,9,7 | 9,2,0.06,0.06,neutral,right,0,43,43,59,1,,,,,,,,,,,,,,,,,,,,,,,,,,,,,,,,,,,,,,,,,,,,,
,392002593306,BCA,21/06/2000,001,2023-04-05_16h54.51.758,OS3_Mult_verification,2022.2.4,Win32,60.17571308,,,,,,,,,,,,,,,,,,,,,,,,,,,,,,,,,,,,,,,,,,,,,,,,,,,,,,,,,,,,,,,,,,,,,,,,,,,,,,,,,,,,,,,,,,,,,,,,,,,,,,,,,,,,right,1,0.5088,,,,,,magnitude,6,7,6 | 7,1,0.05,0.065,congruent,right,0,44,44,2,1,,,,,,,,,,,,,,,,,,,,,,,,,,,,,,,,,,,,,,,,,,,,,
,392002593306,BCA,21/06/2000,001,2023-04-05_16h54.51.758,OS3_Mult_verification,2022.2.4,Win32,60.17571308,,,,,,,,,,,,,,,,,,,,,,,,,,,,,,,,,,,,,,,,,,,,,,,,,,,,,,,,,,,,,,,,,,,,,,,,,,,,,,,,,,,,,,,,,,,,,,,,,,,,,,,,,,,,left,1,0.5114,,,,,,magnitude,8,3,8 | 3,5,0.065,0.05,congruent,left,0,45,45,22,1,,,,,,,,,,,,,,,,,,,,,,,,,,,,,,,,,,,,,,,,,,,,,
,392002593306,BCA,21/06/2000,001,2023-04-05_16h54.51.758,OS3_Mult_verification,2022.2.4,Win32,60.17571308,,,,,,,,,,,,,,,,,,,,,,,,,,,,,,,,,,,,,,,,,,,,,,,,,,,,,,,,,,,,,,,,,,,,,,,,,,,,,,,,,,,,,,,,,,,,,,,,,,,,,,,,,,,,right,1,0.5991,,,,,,magnitude,7,9,7 | 9,2,0.065,0.05,incongruent,right,0,46,46,35,1,,,,,,,,,,,,,,,,,,,,,,,,,,,,,,,,,,,,,,,,,,,,,
,392002593306,BCA,21/06/2000,001,2023-04-05_16h54.51.758,OS3_Mult_verification,2022.2.4,Win32,60.17571308,,,,,,,,,,,,,,,,,,,,,,,,,,,,,,,,,,,,,,,,,,,,,,,,,,,,,,,,,,,,,,,,,,,,,,,,,,,,,,,,,,,,,,,,,,,,,,,,,,,,,,,,,,,,left,1,0.7465,,,,,,magnitude,7,2,7 | 2,5,0.05,0.065,incongruent,left,0,47,47,45,1,,,,,,,,,,,,,,,,,,,,,,,,,,,,,,,,,,,,,,,,,,,,,
,392002593306,BCA,21/06/2000,001,2023-04-05_16h54.51.758,OS3_Mult_verification,2022.2.4,Win32,60.17571308,,,,,,,,,,,,,,,,,,,,,,,,,,,,,,,,,,,,,,,,,,,,,,,,,,,,,,,,,,,,,,,,,,,,,,,,,,,,,,,,,,,,,,,,,,,,,,,,,,,,,,,,,,,,left,1,0.5219,,,,,,magnitude,6,1,6 | 1,5,0.065,0.05,congruent,left,0,48,48,20,1,,,,,,,,,,,,,,,,,,,,,,,,,,,,,,,,,,,,,,,,,,,,,
,392002593306,BCA,21/06/2000,001,2023-04-05_16h54.51.758,OS3_Mult_verification,2022.2.4,Win32,60.17571308,,,,,,,,,,,,,,,,,,,,,,,,,,,,,,,,,,,,,,,,,,,,,,,,,,,,,,,,,,,,,,,,,,,,,,,,,,,,,,,,,,,,,,,,,,,,,,,,,,,,,,,,,,,,left,0,0.481,,,,,,magnitude,6,7,6 | 7,1,0.065,0.05,incongruent,right,0,49,49,26,1,,,,,,,,,,,,,,,,,,,,,,,,,,,,,,,,,,,,,,,,,,,,,
,392002593306,BCA,21/06/2000,001,2023-04-05_16h54.51.758,OS3_Mult_verification,2022.2.4,Win32,60.17571308,,,,,,,,,,,,,,,,,,,,,,,,,,,,,,,,,,,,,,,,,,,,,,,,,,,,,,,,,,,,,,,,,,,,,,,,,,,,,,,,,,,,,,,,,,,,,,,,,,,,,,,,,,,,right,1,0.6865,,,,,,magnitude,6,7,6 | 7,1,0.06,0.06,neutral,right,0,50,50,50,1,,,,,,,,,,,,,,,,,,,,,,,,,,,,,,,,,,,,,,,,,,,,,
,392002593306,BCA,21/06/2000,001,2023-04-05_16h54.51.758,OS3_Mult_verification,2022.2.4,Win32,60.17571308,,,,,,,,,,,,,,,,,,,,,,,,,,,,,,,,,,,,,,,,,,,,,,,,,,,,,,,,,,,,,,,,,,,,,,,,,,,,,,,,,,,,,,,,,,,,,,,,,,,,,,,,,,,,right,1,0.5457,,,,,,magnitude,4,9,4 | 9,5,0.05,0.065,congruent,right,0,51,51,19,1,,,,,,,,,,,,,,,,,,,,,,,,,,,,,,,,,,,,,,,,,,,,,
,392002593306,BCA,21/06/2000,001,2023-04-05_16h54.51.758,OS3_Mult_verification,2022.2.4,Win32,60.17571308,,,,,,,,,,,,,,,,,,,,,,,,,,,,,,,,,,,,,,,,,,,,,,,,,,,,,,,,,,,,,,,,,,,,,,,,,,,,,,,,,,,,,,,,,,,,,,,,,,,,,,,,,,,,left,1,0.5499,,,,,,magnitude,6,1,6 | 1,5,0.06,0.06,neutral,left,0,52,52,68,1,,,,,,,,,,,,,,,,,,,,,,,,,,,,,,,,,,,,,,,,,,,,,
,392002593306,BCA,21/06/2000,001,2023-04-05_16h54.51.758,OS3_Mult_verification,2022.2.4,Win32,60.17571308,,,,,,,,,,,,,,,,,,,,,,,,,,,,,,,,,,,,,,,,,,,,,,,,,,,,,,,,,,,,,,,,,,,,,,,,,,,,,,,,,,,,,,,,,,,,,,,,,,,,,,,,,,,,right,1,0.4473,,,,,,magnitude,1,2,1 | 2,1,0.065,0.05,incongruent,right,0,53,53,24,1,,,,,,,,,,,,,,,,,,,,,,,,,,,,,,,,,,,,,,,,,,,,,
,392002593306,BCA,21/06/2000,001,2023-04-05_16h54.51.758,OS3_Mult_verification,2022.2.4,Win32,60.17571308,,,,,,,,,,,,,,,,,,,,,,,,,,,,,,,,,,,,,,,,,,,,,,,,,,,,,,,,,,,,,,,,,,,,,,,,,,,,,,,,,,,,,,,,,,,,,,,,,,,,,,,,,,,,right,0,0.5303,,,,,,magnitude,9,8,9 | 8,1,0.06,0.06,neutral,left,0,54,54,55,1,,,,,,,,,,,,,,,,,,,,,,,,,,,,,,,,,,,,,,,,,,,,,
,392002593306,BCA,21/06/2000,001,2023-04-05_16h54.51.758,OS3_Mult_verification,2022.2.4,Win32,60.17571308,,,,,,,,,,,,,,,,,,,,,,,,,,,,,,,,,,,,,,,,,,,,,,,,,,,,,,,,,,,,,,,,,,,,,,,,,,,,,,,,,,,,,,,,,,,,,,,,,,,,,,,,,,,,right,1,1.017,,,,,,magnitude,3,8,3 | 8,5,0.05,0.065,congruent,right,0,55,55,18,1,,,,,,,,,,,,,,,,,,,,,,,,,,,,,,,,,,,,,,,,,,,,,
,392002593306,BCA,21/06/2000,001,2023-04-05_16h54.51.758,OS3_Mult_verification,2022.2.4,Win32,60.17571308,,,,,,,,,,,,,,,,,,,,,,,,,,,,,,,,,,,,,,,,,,,,,,,,,,,,,,,,,,,,,,,,,,,,,,,,,,,,,,,,,,,,,,,,,,,,,,,,,,,,,,,,,,,,right,1,0.6038,,,,,,magnitude,8,9,8 | 9,1,0.06,0.06,neutral,right,0,56,56,51,1,,,,,,,,,,,,,,,,,,,,,,,,,,,,,,,,,,,,,,,,,,,,,
,392002593306,BCA,21/06/2000,001,2023-04-05_16h54.51.758,OS3_Mult_verification,2022.2.4,Win32,60.17571308,,,,,,,,,,,,,,,,,,,,,,,,,,,,,,,,,,,,,,,,,,,,,,,,,,,,,,,,,,,,,,,,,,,,,,,,,,,,,,,,,,,,,,,,,,,,,,,,,,,,,,,,,,,,left,1,0.7522,,,,,,magnitude,9,8,9 | 8,1,0.065,0.05,congruent,left,0,57,57,7,1,,,,,,,,,,,,,,,,,,,,,,,,,,,,,,,,,,,,,,,,,,,,,
,392002593306,BCA,21/06/2000,001,2023-04-05_16h54.51.758,OS3_Mult_verification,2022.2.4,Win32,60.17571308,,,,,,,,,,,,,,,,,,,,,,,,,,,,,,,,,,,,,,,,,,,,,,,,,,,,,,,,,,,,,,,,,,,,,,,,,,,,,,,,,,,,,,,,,,,,,,,,,,,,,,,,,,,,left,1,0.5516,,,,,,magnitude,3,1,3 | 1,2,0.065,0.05,congruent,left,0,58,58,12,1,,,,,,,,,,,,,,,,,,,,,,,,,,,,,,,,,,,,,,,,,,,,,
,392002593306,BCA,21/06/2000,001,2023-04-05_16h54.51.758,OS3_Mult_verification,2022.2.4,Win32,60.17571308,,,,,,,,,,,,,,,,,,,,,,,,,,,,,,,,,,,,,,,,,,,,,,,,,,,,,,,,,,,,,,,,,,,,,,,,,,,,,,,,,,,,,,,,,,,,,,,,,,,,,,,,,,,,left,1,0.6513,,,,,,magnitude,2,1,2 | 1,1,0.06,0.06,neutral,left,0,59,59,52,1,,,,,,,,,,,,,,,,,,,,,,,,,,,,,,,,,,,,,,,,,,,,,
,392002593306,BCA,21/06/2000,001,2023-04-05_16h54.51.758,OS3_Mult_verification,2022.2.4,Win32,60.17571308,,,,,,,,,,,,,,,,,,,,,,,,,,,,,,,,,,,,,,,,,,,,,,,,,,,,,,,,,,,,,,,,,,,,,,,,,,,,,,,,,,,,,,,,,,,,,,,,,,,,,,,,,,,,left,1,0.6234,,,,,,magnitude,9,7,9 | 7,2,0.065,0.05,congruent,left,0,60,60,15,1,,,,,,,,,,,,,,,,,,,,,,,,,,,,,,,,,,,,,,,,,,,,,
,392002593306,BCA,21/06/2000,001,2023-04-05_16h54.51.758,OS3_Mult_verification,2022.2.4,Win32,60.17571308,,,,,,,,,,,,,,,,,,,,,,,,,,,,,,,,,,,,,,,,,,,,,,,,,,,,,,,,,,,,,,,,,,,,,,,,,,,,,,,,,,,,,,,,,,,,,,,,,,,,,,,,,,,,left,1,0.5267,,,,,,magnitude,4,2,4 | 2,2,0.06,0.06,neutral,left,0,61,61,61,1,,,,,,,,,,,,,,,,,,,,,,,,,,,,,,,,,,,,,,,,,,,,,
