windowSize,participant,group,DOB (DD/MM/YEAR),session,date,expName,psychopyVersion,OS,frameRate,typing_instr_resp.keys,typing_instr_resp.rt,typing_response,typing_rt,typing_score,typingSpeed_input_resp.keys,typingSpeed_input_resp.rt,typing_speed_trials.thisRepN,typing_speed_trials.thisTrialN,typing_speed_trials.thisN,typing_speed_trials.thisIndex,typing_speed_trials.ran,typing_speed_stim,typing_report_resp.keys,typing_report_resp.rt,vpt_trial_resp1.keys,vpt_trial_resp1.rt,typedResponse,fluency_rt,fluency_score,fluencyInputResp.keys,fluencyInputResp.rt,fluencyPracLoop.thisRepN,fluencyPracLoop.thisTrialN,fluencyPracLoop.thisN,fluencyPracLoop.thisIndex,fluencyPracLoop.ran,problem,answers,fluencyLoop.thisRepN,fluencyLoop.thisTrialN,fluencyLoop.thisN,fluencyLoop.thisIndex,fluencyLoop.ran,vptCorrect,vpt_rt,respMouse.x,respMouse.y,respMouse.leftButton,respMouse.midButton,respMouse.rightButton,vptPracticeLoop.thisRepN,vptPracticeLoop.thisTrialN,vptPracticeLoop.thisN,vptPracticeLoop.thisIndex,vptPracticeLoop.ran,trialType,tiles,rows,cols,vptTrialLoop.thisRepN,vptTrialLoop.thisTrialN,vptTrialLoop.thisN,vptTrialLoop.thisIndex,vptTrialLoop.ran,noOfBlocks,TASK_B.thisRepN,TASK_B.thisTrialN,TASK_B.thisN,TASK_B.thisIndex,TASK_B.ran,controlTaskOrder.thisRepN,controlTaskOrder.thisTrialN,controlTaskOrder.thisN,controlTaskOrder.thisIndex,controlTaskOrder.ran,nRepsTask1,nRepsTask2,nRepsTask3,stroopResp.keys,stroopResp.corr,stroopResp.rt,stroopPracLoop.thisRepN,stroopPracLoop.thisTrialN,stroopPracLoop.thisN,stroopPracLoop.thisIndex,stroopPracLoop.ran,stroopCond,leftNo,rightNo,displayProblem,numDistance,leftNo_size,rightNo_size,Dims,keyAnswer,stroopLoop.thisRepN,stroopLoop.thisTrialN,stroopLoop.thisN,stroopLoop.thisIndex,stroopLoop.ran,stroopBlocks.thisRepN,stroopBlocks.thisTrialN,stroopBlocks.thisN,stroopBlocks.thisIndex,stroopBlocks.ran,stroop_condition,stroop_pracFile,ActionInst,instrImage,TASK_A.thisRepN,TASK_A.thisTrialN,TASK_A.thisN,TASK_A.thisIndex,TASK_A.ran,sampleAudio_resp.keys,sampleAudio_resp.rt,subjResponse,audio_rt,DS_score,inputResp.keys,inputResp.rt,audioPracticeLoop.thisRepN,audioPracticeLoop.thisTrialN,audioPracticeLoop.thisN,audioPracticeLoop.thisIndex,audioPracticeLoop.ran,digitSpan,digits_audioStim,soundsFile,typeDS,audioTrials_Loop.thisRepN,audioTrials_Loop.thisTrialN,audioTrials_Loop.thisN,audioTrials_Loop.thisIndex,audioTrials_Loop.ran,audioBlocks_loop.thisRepN,audioBlocks_loop.thisTrialN,audioBlocks_loop.thisN,audioBlocks_loop.thisIndex,audioBlocks_loop.ran,ConditionFile,digitSpanTask_loop.thisRepN,digitSpanTask_loop.thisTrialN,digitSpanTask_loop.thisN,digitSpanTask_loop.thisIndex,digitSpanTask_loop.ran,dsFile,TASK_C.thisRepN,TASK_C.thisTrialN,TASK_C.thisN,TASK_C.thisIndex,TASK_C.ran,veriStim_resp.keys,veriStim_resp.corr,veriStim_resp.rt,verificationPracLoop.thisRepN,verificationPracLoop.thisTrialN,verificationPracLoop.thisN,verificationPracLoop.thisIndex,verificationPracLoop.ran,mult_problem,mult_answer,mult_type,error_distance,interferenceScore,problemType,interferenceLevel,problemSize,img_leftButton,img_rightButton,veriLoop.thisRepN,veriLoop.thisTrialN,veriLoop.thisN,veriLoop.thisIndex,veriLoop.ran,veriBlock.thisRepN,veriBlock.thisTrialN,veriBlock.thisN,veriBlock.thisIndex,veriBlock.ran,verificationFiles,end_resp.keys,end_resp.rt
"[1920,931]",8986,BAC,05/02/2005,001,2023-12-01_13h36.45.896,OS3_Mult_verification,2022.2.4,Win32,59.76571838,,,,,,,,,,,,,,,,,,,,,,,,,,,,,,,,,,,,,,,,,,,,,,,,,,,,,,,,,,,,,,,,,,,,,,,,,,,,,,,,,,,,,,,,,,,,,,,,,,,,,,,,,,,,,,,,,,,,,,,,,,,,,,,,,,,,,,,,,,,,,,,,,,,,,,,,,,,,,,,,,,,,,,,,,,,,,,
,8986,BAC,05/02/2005,001,2023-12-01_13h36.45.896,OS3_Mult_verification,2022.2.4,Win32,59.76571838,,,,,,,,,,,,,,,,,,,,,,,,,,,,,,,,,,,,,,,,,,,,,,,,,,,,,,,,,,,,,,,,,,,,,,,,,,,,,,,,,,,,,,,,,,,,,,,,,,,,,,,,,,,,,,,,,,,,,,,,,,,,,,,,,,,,,,,,,,,,,,,,,,,,,,,,,,,,,,,,,,,,,,,,,,,,,,
,8986,BAC,05/02/2005,001,2023-12-01_13h36.45.896,OS3_Mult_verification,2022.2.4,Win32,59.76571838,space,28.1451,,,,,,,,,,,,,,,,,,,,,,,,,,,,,,,,,,,,,,,,,,,,,,,,,,,,,,,,,,,,,,,,,,,,,,,,,,,,,,,,,,,,,,,,,,,,,,,,,,,,,,,,,,,,,,,,,,,,,,,,,,,,,,,,,,,,,,,,,,,,,,,,,,,,,,,,,,,,,,,,,,,,,,,,,,,,
,8986,BAC,05/02/2005,001,2023-12-01_13h36.45.896,OS3_Mult_verification,2022.2.4,Win32,59.76571838,,,10,1.5346,1,"[""1"",""0"",""return""]","[1.0176000000238474,1.2336000000238414,1.5052000000476937]",0,0,0,4,1,10,,,,,,,,,,,,,,,,,,,,,,,,,,,,,,,,,,,,,,,,,,,,,,,,,,,,,,,,,,,,,,,,,,,,,,,,,,,,,,,,,,,,,,,,,,,,,,,,,,,,,,,,,,,,,,,,,,,,,,,,,,,,,,,,,,,,,,,,,,,,,,,,,,,,,,,,,,,,,,,,,
,8986,BAC,05/02/2005,001,2023-12-01_13h36.45.896,OS3_Mult_verification,2022.2.4,Win32,59.76571838,,,25,1.5513,1,"[""2"",""5"",""return""]","[1.0494000000953747,1.396400000095369,1.5194000000953736]",0,1,1,13,1,25,,,,,,,,,,,,,,,,,,,,,,,,,,,,,,,,,,,,,,,,,,,,,,,,,,,,,,,,,,,,,,,,,,,,,,,,,,,,,,,,,,,,,,,,,,,,,,,,,,,,,,,,,,,,,,,,,,,,,,,,,,,,,,,,,,,,,,,,,,,,,,,,,,,,,,,,,,,,,,,,,
,8986,BAC,05/02/2005,001,2023-12-01_13h36.45.896,OS3_Mult_verification,2022.2.4,Win32,59.76571838,,,20,1.7682,1,"[""2"",""0"",""return""]","[0.9203000000715207,1.4085000000000036,1.7313000000715277]",0,2,2,10,1,20,,,,,,,,,,,,,,,,,,,,,,,,,,,,,,,,,,,,,,,,,,,,,,,,,,,,,,,,,,,,,,,,,,,,,,,,,,,,,,,,,,,,,,,,,,,,,,,,,,,,,,,,,,,,,,,,,,,,,,,,,,,,,,,,,,,,,,,,,,,,,,,,,,,,,,,,,,,,,,,,,
,8986,BAC,05/02/2005,001,2023-12-01_13h36.45.896,OS3_Mult_verification,2022.2.4,Win32,59.76571838,,,35,1.6181,1,"[""3"",""5"",""return""]","[1.2794000000953645,1.4318000000715188,1.5803000000715173]",0,3,3,18,1,35,,,,,,,,,,,,,,,,,,,,,,,,,,,,,,,,,,,,,,,,,,,,,,,,,,,,,,,,,,,,,,,,,,,,,,,,,,,,,,,,,,,,,,,,,,,,,,,,,,,,,,,,,,,,,,,,,,,,,,,,,,,,,,,,,,,,,,,,,,,,,,,,,,,,,,,,,,,,,,,,,
,8986,BAC,05/02/2005,001,2023-12-01_13h36.45.896,OS3_Mult_verification,2022.2.4,Win32,59.76571838,,,54,1.518,1,"[""5"",""4"",""return""]","[1.233100000023839,1.3674999999999926,1.4868000000715256]",0,4,4,25,1,54,,,,,,,,,,,,,,,,,,,,,,,,,,,,,,,,,,,,,,,,,,,,,,,,,,,,,,,,,,,,,,,,,,,,,,,,,,,,,,,,,,,,,,,,,,,,,,,,,,,,,,,,,,,,,,,,,,,,,,,,,,,,,,,,,,,,,,,,,,,,,,,,,,,,,,,,,,,,,,,,,
,8986,BAC,05/02/2005,001,2023-12-01_13h36.45.896,OS3_Mult_verification,2022.2.4,Win32,59.76571838,,,15,1.4676,1,"[""1"",""5"",""return""]","[0.9336999999284785,1.2535000000000025,1.4369999999999976]",0,5,5,7,1,15,,,,,,,,,,,,,,,,,,,,,,,,,,,,,,,,,,,,,,,,,,,,,,,,,,,,,,,,,,,,,,,,,,,,,,,,,,,,,,,,,,,,,,,,,,,,,,,,,,,,,,,,,,,,,,,,,,,,,,,,,,,,,,,,,,,,,,,,,,,,,,,,,,,,,,,,,,,,,,,,,
,8986,BAC,05/02/2005,001,2023-12-01_13h36.45.896,OS3_Mult_verification,2022.2.4,Win32,59.76571838,,,27,1.3678,1,"[""2"",""7"",""return""]","[0.7208999999761687,1.1690999999046312,1.329299999952326]",0,6,6,14,1,27,,,,,,,,,,,,,,,,,,,,,,,,,,,,,,,,,,,,,,,,,,,,,,,,,,,,,,,,,,,,,,,,,,,,,,,,,,,,,,,,,,,,,,,,,,,,,,,,,,,,,,,,,,,,,,,,,,,,,,,,,,,,,,,,,,,,,,,,,,,,,,,,,,,,,,,,,,,,,,,,,
,8986,BAC,05/02/2005,001,2023-12-01_13h36.45.896,OS3_Mult_verification,2022.2.4,Win32,59.76571838,,,30,2.4354,1,"[""2"",""backspace"",""3"",""0"",""return""]","[0.8956999999284818,1.3795000000000073,1.5830000000000126,1.999699999928481,2.4055000000000035]",0,7,7,16,1,30,,,,,,,,,,,,,,,,,,,,,,,,,,,,,,,,,,,,,,,,,,,,,,,,,,,,,,,,,,,,,,,,,,,,,,,,,,,,,,,,,,,,,,,,,,,,,,,,,,,,,,,,,,,,,,,,,,,,,,,,,,,,,,,,,,,,,,,,,,,,,,,,,,,,,,,,,,,,,,,,,
,8986,BAC,05/02/2005,001,2023-12-01_13h36.45.896,OS3_Mult_verification,2022.2.4,Win32,59.76571838,,,16,1.5012,1,"[""1"",""6"",""return""]","[0.8025000000000091,1.3068999999761672,1.4741000000238529]",0,8,8,8,1,16,,,,,,,,,,,,,,,,,,,,,,,,,,,,,,,,,,,,,,,,,,,,,,,,,,,,,,,,,,,,,,,,,,,,,,,,,,,,,,,,,,,,,,,,,,,,,,,,,,,,,,,,,,,,,,,,,,,,,,,,,,,,,,,,,,,,,,,,,,,,,,,,,,,,,,,,,,,,,,,,,
,8986,BAC,05/02/2005,001,2023-12-01_13h36.45.896,OS3_Mult_verification,2022.2.4,Win32,59.76571838,,,36,1.3679,1,"[""3"",""6"",""return""]","[0.9533999999761562,1.2156000000238407,1.3371000000238382]",0,9,9,19,1,36,,,,,,,,,,,,,,,,,,,,,,,,,,,,,,,,,,,,,,,,,,,,,,,,,,,,,,,,,,,,,,,,,,,,,,,,,,,,,,,,,,,,,,,,,,,,,,,,,,,,,,,,,,,,,,,,,,,,,,,,,,,,,,,,,,,,,,,,,,,,,,,,,,,,,,,,,,,,,,,,,
,8986,BAC,05/02/2005,001,2023-12-01_13h36.45.896,OS3_Mult_verification,2022.2.4,Win32,59.76571838,,,42,1.3008,1,"[""4"",""2"",""return""]","[1.046700000047693,1.1653000000715252,1.2694000000953736]",0,10,10,21,1,42,,,,,,,,,,,,,,,,,,,,,,,,,,,,,,,,,,,,,,,,,,,,,,,,,,,,,,,,,,,,,,,,,,,,,,,,,,,,,,,,,,,,,,,,,,,,,,,,,,,,,,,,,,,,,,,,,,,,,,,,,,,,,,,,,,,,,,,,,,,,,,,,,,,,,,,,,,,,,,,,,
,8986,BAC,05/02/2005,001,2023-12-01_13h36.45.896,OS3_Mult_verification,2022.2.4,Win32,59.76571838,,,40,1.3509,1,"[""4"",""0"",""return""]","[0.7817000000476781,0.9994999999999976,1.3116000000238301]",0,11,11,20,1,40,,,,,,,,,,,,,,,,,,,,,,,,,,,,,,,,,,,,,,,,,,,,,,,,,,,,,,,,,,,,,,,,,,,,,,,,,,,,,,,,,,,,,,,,,,,,,,,,,,,,,,,,,,,,,,,,,,,,,,,,,,,,,,,,,,,,,,,,,,,,,,,,,,,,,,,,,,,,,,,,,
,8986,BAC,05/02/2005,001,2023-12-01_13h36.45.896,OS3_Mult_verification,2022.2.4,Win32,59.76571838,,,14,3.5866,1,"[""2"",""backspace"",""1"",""4"",""return""]","[1.1992999999523164,1.9325000000000045,2.5832999999523167,2.7592999999523187,3.5502999999523155]",0,12,12,6,1,14,,,,,,,,,,,,,,,,,,,,,,,,,,,,,,,,,,,,,,,,,,,,,,,,,,,,,,,,,,,,,,,,,,,,,,,,,,,,,,,,,,,,,,,,,,,,,,,,,,,,,,,,,,,,,,,,,,,,,,,,,,,,,,,,,,,,,,,,,,,,,,,,,,,,,,,,,,,,,,,,,
,8986,BAC,05/02/2005,001,2023-12-01_13h36.45.896,OS3_Mult_verification,2022.2.4,Win32,59.76571838,,,64,1.5682,1,"[""6"",""4"",""return""]","[1.2838000000715226,1.4024000000953691,1.5377000000476784]",0,13,13,28,1,64,,,,,,,,,,,,,,,,,,,,,,,,,,,,,,,,,,,,,,,,,,,,,,,,,,,,,,,,,,,,,,,,,,,,,,,,,,,,,,,,,,,,,,,,,,,,,,,,,,,,,,,,,,,,,,,,,,,,,,,,,,,,,,,,,,,,,,,,,,,,,,,,,,,,,,,,,,,,,,,,,
,8986,BAC,05/02/2005,001,2023-12-01_13h36.45.896,OS3_Mult_verification,2022.2.4,Win32,59.76571838,,,49,1.8683,1,"[""4"",""9"",""return""]","[1.1497000000476874,1.454499999999996,1.8375000000000057]",0,14,14,24,1,49,,,,,,,,,,,,,,,,,,,,,,,,,,,,,,,,,,,,,,,,,,,,,,,,,,,,,,,,,,,,,,,,,,,,,,,,,,,,,,,,,,,,,,,,,,,,,,,,,,,,,,,,,,,,,,,,,,,,,,,,,,,,,,,,,,,,,,,,,,,,,,,,,,,,,,,,,,,,,,,,,
,8986,BAC,05/02/2005,001,2023-12-01_13h36.45.896,OS3_Mult_verification,2022.2.4,Win32,59.76571838,,,81,1.5011,1,"[""8"",""1"",""return""]","[1.0694999999999908,1.3287999999523095,1.4607999999523145]",0,15,15,30,1,81,,,,,,,,,,,,,,,,,,,,,,,,,,,,,,,,,,,,,,,,,,,,,,,,,,,,,,,,,,,,,,,,,,,,,,,,,,,,,,,,,,,,,,,,,,,,,,,,,,,,,,,,,,,,,,,,,,,,,,,,,,,,,,,,,,,,,,,,,,,,,,,,,,,,,,,,,,,,,,,,,
,8986,BAC,05/02/2005,001,2023-12-01_13h36.45.896,OS3_Mult_verification,2022.2.4,Win32,59.76571838,,,9,1.4512,1,"[""9"",""return""]","[1.0802000000476824,1.4163000000715158]",0,16,16,3,1,9,,,,,,,,,,,,,,,,,,,,,,,,,,,,,,,,,,,,,,,,,,,,,,,,,,,,,,,,,,,,,,,,,,,,,,,,,,,,,,,,,,,,,,,,,,,,,,,,,,,,,,,,,,,,,,,,,,,,,,,,,,,,,,,,,,,,,,,,,,,,,,,,,,,,,,,,,,,,,,,,,
,8986,BAC,05/02/2005,001,2023-12-01_13h36.45.896,OS3_Mult_verification,2022.2.4,Win32,59.76571838,,,8,1.2342,1,"[""8"",""return""]","[1.0009000000953705,1.1952000000476772]",0,17,17,2,1,8,,,,,,,,,,,,,,,,,,,,,,,,,,,,,,,,,,,,,,,,,,,,,,,,,,,,,,,,,,,,,,,,,,,,,,,,,,,,,,,,,,,,,,,,,,,,,,,,,,,,,,,,,,,,,,,,,,,,,,,,,,,,,,,,,,,,,,,,,,,,,,,,,,,,,,,,,,,,,,,,,
,8986,BAC,05/02/2005,001,2023-12-01_13h36.45.896,OS3_Mult_verification,2022.2.4,Win32,59.76571838,,,72,1.8515,1,"[""7"",""2"",""return""]","[1.406100000023855,1.5667999999523374,1.813799999952323]",0,18,18,29,1,72,,,,,,,,,,,,,,,,,,,,,,,,,,,,,,,,,,,,,,,,,,,,,,,,,,,,,,,,,,,,,,,,,,,,,,,,,,,,,,,,,,,,,,,,,,,,,,,,,,,,,,,,,,,,,,,,,,,,,,,,,,,,,,,,,,,,,,,,,,,,,,,,,,,,,,,,,,,,,,,,,
,8986,BAC,05/02/2005,001,2023-12-01_13h36.45.896,OS3_Mult_verification,2022.2.4,Win32,59.76571838,,,21,1.3678,1,"[""2"",""1"",""return""]","[0.9833999999761716,1.1356000000238566,1.330700000047699]",0,19,19,11,1,21,,,,,,,,,,,,,,,,,,,,,,,,,,,,,,,,,,,,,,,,,,,,,,,,,,,,,,,,,,,,,,,,,,,,,,,,,,,,,,,,,,,,,,,,,,,,,,,,,,,,,,,,,,,,,,,,,,,,,,,,,,,,,,,,,,,,,,,,,,,,,,,,,,,,,,,,,,,,,,,,,
,8986,BAC,05/02/2005,001,2023-12-01_13h36.45.896,OS3_Mult_verification,2022.2.4,Win32,59.76571838,,,18,1.4176,1,"[""1"",""8"",""return""]","[0.8947000000476919,1.2288999999761643,1.386300000071543]",0,20,20,9,1,18,,,,,,,,,,,,,,,,,,,,,,,,,,,,,,,,,,,,,,,,,,,,,,,,,,,,,,,,,,,,,,,,,,,,,,,,,,,,,,,,,,,,,,,,,,,,,,,,,,,,,,,,,,,,,,,,,,,,,,,,,,,,,,,,,,,,,,,,,,,,,,,,,,,,,,,,,,,,,,,,,
,8986,BAC,05/02/2005,001,2023-12-01_13h36.45.896,OS3_Mult_verification,2022.2.4,Win32,59.76571838,,,28,1.2676,1,"[""2"",""8"",""return""]","[0.7368999999761456,1.105100000023839,1.2342999999523272]",0,21,21,15,1,28,,,,,,,,,,,,,,,,,,,,,,,,,,,,,,,,,,,,,,,,,,,,,,,,,,,,,,,,,,,,,,,,,,,,,,,,,,,,,,,,,,,,,,,,,,,,,,,,,,,,,,,,,,,,,,,,,,,,,,,,,,,,,,,,,,,,,,,,,,,,,,,,,,,,,,,,,,,,,,,,,
,8986,BAC,05/02/2005,001,2023-12-01_13h36.45.896,OS3_Mult_verification,2022.2.4,Win32,59.76571838,,,63,1.7846,1,"[""6"",""3"",""return""]","[1.4729999999999848,1.6159999999999854,1.7528000000715167]",0,22,22,27,1,63,,,,,,,,,,,,,,,,,,,,,,,,,,,,,,,,,,,,,,,,,,,,,,,,,,,,,,,,,,,,,,,,,,,,,,,,,,,,,,,,,,,,,,,,,,,,,,,,,,,,,,,,,,,,,,,,,,,,,,,,,,,,,,,,,,,,,,,,,,,,,,,,,,,,,,,,,,,,,,,,,
,8986,BAC,05/02/2005,001,2023-12-01_13h36.45.896,OS3_Mult_verification,2022.2.4,Win32,59.76571838,,,56,1.2504,1,"[""5"",""6"",""return""]","[0.9816999999284803,1.1151999999284783,1.2191999999284633]",0,23,23,26,1,56,,,,,,,,,,,,,,,,,,,,,,,,,,,,,,,,,,,,,,,,,,,,,,,,,,,,,,,,,,,,,,,,,,,,,,,,,,,,,,,,,,,,,,,,,,,,,,,,,,,,,,,,,,,,,,,,,,,,,,,,,,,,,,,,,,,,,,,,,,,,,,,,,,,,,,,,,,,,,,,,,
,8986,BAC,05/02/2005,001,2023-12-01_13h36.45.896,OS3_Mult_verification,2022.2.4,Win32,59.76571838,,,6,1.0174,1,"[""6"",""return""]","[0.8513999999761381,0.9849999999999852]",0,24,24,1,1,6,,,,,,,,,,,,,,,,,,,,,,,,,,,,,,,,,,,,,,,,,,,,,,,,,,,,,,,,,,,,,,,,,,,,,,,,,,,,,,,,,,,,,,,,,,,,,,,,,,,,,,,,,,,,,,,,,,,,,,,,,,,,,,,,,,,,,,,,,,,,,,,,,,,,,,,,,,,,,,,,,
,8986,BAC,05/02/2005,001,2023-12-01_13h36.45.896,OS3_Mult_verification,2022.2.4,Win32,59.76571838,,,48,1.4344,1,"[""4"",""8"",""return""]","[0.9979000000953704,1.2832000000476853,1.3972000000476896]",0,25,25,23,1,48,,,,,,,,,,,,,,,,,,,,,,,,,,,,,,,,,,,,,,,,,,,,,,,,,,,,,,,,,,,,,,,,,,,,,,,,,,,,,,,,,,,,,,,,,,,,,,,,,,,,,,,,,,,,,,,,,,,,,,,,,,,,,,,,,,,,,,,,,,,,,,,,,,,,,,,,,,,,,,,,,
,8986,BAC,05/02/2005,001,2023-12-01_13h36.45.896,OS3_Mult_verification,2022.2.4,Win32,59.76571838,,,32,1.3513,1,"[""3"",""2"",""return""]","[1.0742000000476821,1.1702000000476858,1.3217000000476844]",0,26,26,17,1,32,,,,,,,,,,,,,,,,,,,,,,,,,,,,,,,,,,,,,,,,,,,,,,,,,,,,,,,,,,,,,,,,,,,,,,,,,,,,,,,,,,,,,,,,,,,,,,,,,,,,,,,,,,,,,,,,,,,,,,,,,,,,,,,,,,,,,,,,,,,,,,,,,,,,,,,,,,,,,,,,,
,8986,BAC,05/02/2005,001,2023-12-01_13h36.45.896,OS3_Mult_verification,2022.2.4,Win32,59.76571838,,,24,1.2344,1,"[""2"",""4"",""return""]","[0.7509000000953847,0.9838000000715539,1.1998000000715052]",0,27,27,12,1,24,,,,,,,,,,,,,,,,,,,,,,,,,,,,,,,,,,,,,,,,,,,,,,,,,,,,,,,,,,,,,,,,,,,,,,,,,,,,,,,,,,,,,,,,,,,,,,,,,,,,,,,,,,,,,,,,,,,,,,,,,,,,,,,,,,,,,,,,,,,,,,,,,,,,,,,,,,,,,,,,,
,8986,BAC,05/02/2005,001,2023-12-01_13h36.45.896,OS3_Mult_verification,2022.2.4,Win32,59.76571838,,,12,1.3011,1,"[""1"",""2"",""return""]","[0.8661000000238346,0.9171999999284708,1.2629999999999768]",0,28,28,5,1,12,,,,,,,,,,,,,,,,,,,,,,,,,,,,,,,,,,,,,,,,,,,,,,,,,,,,,,,,,,,,,,,,,,,,,,,,,,,,,,,,,,,,,,,,,,,,,,,,,,,,,,,,,,,,,,,,,,,,,,,,,,,,,,,,,,,,,,,,,,,,,,,,,,,,,,,,,,,,,,,,,
,8986,BAC,05/02/2005,001,2023-12-01_13h36.45.896,OS3_Mult_verification,2022.2.4,Win32,59.76571838,,,45,1.2177,1,"[""4"",""5"",""return""]","[0.8997000000476874,1.0186000000238096,1.1798999999761577]",0,29,29,22,1,45,,,,,,,,,,,,,,,,,,,,,,,,,,,,,,,,,,,,,,,,,,,,,,,,,,,,,,,,,,,,,,,,,,,,,,,,,,,,,,,,,,,,,,,,,,,,,,,,,,,,,,,,,,,,,,,,,,,,,,,,,,,,,,,,,,,,,,,,,,,,,,,,,,,,,,,,,,,,,,,,,
,8986,BAC,05/02/2005,001,2023-12-01_13h36.45.896,OS3_Mult_verification,2022.2.4,Win32,59.76571838,,,4,0.9841,1,"[""4"",""return""]","[0.799699999928464,0.9478999999761868]",0,30,30,0,1,4,,,,,,,,,,,,,,,,,,,,,,,,,,,,,,,,,,,,,,,,,,,,,,,,,,,,,,,,,,,,,,,,,,,,,,,,,,,,,,,,,,,,,,,,,,,,,,,,,,,,,,,,,,,,,,,,,,,,,,,,,,,,,,,,,,,,,,,,,,,,,,,,,,,,,,,,,,,,,,,,,
,8986,BAC,05/02/2005,001,2023-12-01_13h36.45.896,OS3_Mult_verification,2022.2.4,Win32,59.76571838,,,6,1.0507,1,"[""6"",""return""]","[0.8821000000238541,1.0191999999284462]",1,0,31,1,1,6,,,,,,,,,,,,,,,,,,,,,,,,,,,,,,,,,,,,,,,,,,,,,,,,,,,,,,,,,,,,,,,,,,,,,,,,,,,,,,,,,,,,,,,,,,,,,,,,,,,,,,,,,,,,,,,,,,,,,,,,,,,,,,,,,,,,,,,,,,,,,,,,,,,,,,,,,,,,,,,,,
,8986,BAC,05/02/2005,001,2023-12-01_13h36.45.896,OS3_Mult_verification,2022.2.4,Win32,59.76571838,,,27,1.4676,1,"[""2"",""7"",""return""]","[0.9184000000953461,1.2864999999999895,1.429600000023811]",1,1,32,14,1,27,,,,,,,,,,,,,,,,,,,,,,,,,,,,,,,,,,,,,,,,,,,,,,,,,,,,,,,,,,,,,,,,,,,,,,,,,,,,,,,,,,,,,,,,,,,,,,,,,,,,,,,,,,,,,,,,,,,,,,,,,,,,,,,,,,,,,,,,,,,,,,,,,,,,,,,,,,,,,,,,,
,8986,BAC,05/02/2005,001,2023-12-01_13h36.45.896,OS3_Mult_verification,2022.2.4,Win32,59.76571838,,,45,1.3345,1,"[""4"",""5"",""return""]","[0.9991000000238728,1.1200000000000045,1.2972999999523154]",1,2,33,22,1,45,,,,,,,,,,,,,,,,,,,,,,,,,,,,,,,,,,,,,,,,,,,,,,,,,,,,,,,,,,,,,,,,,,,,,,,,,,,,,,,,,,,,,,,,,,,,,,,,,,,,,,,,,,,,,,,,,,,,,,,,,,,,,,,,,,,,,,,,,,,,,,,,,,,,,,,,,,,,,,,,,
,8986,BAC,05/02/2005,001,2023-12-01_13h36.45.896,OS3_Mult_verification,2022.2.4,Win32,59.76571838,,,10,1.518,1,"[""1"",""0"",""return""]","[0.7852000000476664,1.281499999999994,1.4803999999761572]",1,3,34,4,1,10,,,,,,,,,,,,,,,,,,,,,,,,,,,,,,,,,,,,,,,,,,,,,,,,,,,,,,,,,,,,,,,,,,,,,,,,,,,,,,,,,,,,,,,,,,,,,,,,,,,,,,,,,,,,,,,,,,,,,,,,,,,,,,,,,,,,,,,,,,,,,,,,,,,,,,,,,,,,,,,,,
,8986,BAC,05/02/2005,001,2023-12-01_13h36.45.896,OS3_Mult_verification,2022.2.4,Win32,59.76571838,,,49,1.618,1,"[""4"",""9"",""return""]","[1.0974000000953765,1.4317000000476696,1.589999999999975]",1,4,35,24,1,49,,,,,,,,,,,,,,,,,,,,,,,,,,,,,,,,,,,,,,,,,,,,,,,,,,,,,,,,,,,,,,,,,,,,,,,,,,,,,,,,,,,,,,,,,,,,,,,,,,,,,,,,,,,,,,,,,,,,,,,,,,,,,,,,,,,,,,,,,,,,,,,,,,,,,,,,,,,,,,,,,
,8986,BAC,05/02/2005,001,2023-12-01_13h36.45.896,OS3_Mult_verification,2022.2.4,Win32,59.76571838,,,40,1.7013,1,"[""4"",""0"",""return""]","[1.016200000047661,1.281100000023855,1.6648000000715228]",1,5,36,20,1,40,,,,,,,,,,,,,,,,,,,,,,,,,,,,,,,,,,,,,,,,,,,,,,,,,,,,,,,,,,,,,,,,,,,,,,,,,,,,,,,,,,,,,,,,,,,,,,,,,,,,,,,,,,,,,,,,,,,,,,,,,,,,,,,,,,,,,,,,,,,,,,,,,,,,,,,,,,,,,,,,,
,8986,BAC,05/02/2005,001,2023-12-01_13h36.45.896,OS3_Mult_verification,2022.2.4,Win32,59.76571838,,,9,1.3175,1,"[""9"",""return""]","[0.8978000000715269,1.2813000000714965]",1,6,37,3,1,9,,,,,,,,,,,,,,,,,,,,,,,,,,,,,,,,,,,,,,,,,,,,,,,,,,,,,,,,,,,,,,,,,,,,,,,,,,,,,,,,,,,,,,,,,,,,,,,,,,,,,,,,,,,,,,,,,,,,,,,,,,,,,,,,,,,,,,,,,,,,,,,,,,,,,,,,,,,,,,,,,
,8986,BAC,05/02/2005,001,2023-12-01_13h36.45.896,OS3_Mult_verification,2022.2.4,Win32,59.76571838,,,4,1.5012,1,"[""4"",""return""]","[1.297600000023806,1.465399999976114]",1,7,38,0,1,4,,,,,,,,,,,,,,,,,,,,,,,,,,,,,,,,,,,,,,,,,,,,,,,,,,,,,,,,,,,,,,,,,,,,,,,,,,,,,,,,,,,,,,,,,,,,,,,,,,,,,,,,,,,,,,,,,,,,,,,,,,,,,,,,,,,,,,,,,,,,,,,,,,,,,,,,,,,,,,,,,
,8986,BAC,05/02/2005,001,2023-12-01_13h36.45.896,OS3_Mult_verification,2022.2.4,Win32,59.76571838,,,64,1.4845,1,"[""6"",""4"",""return""]","[1.198000000000036,1.3130999999046367,1.449599999904649]",1,8,39,28,1,64,,,,,,,,,,,,,,,,,,,,,,,,,,,,,,,,,,,,,,,,,,,,,,,,,,,,,,,,,,,,,,,,,,,,,,,,,,,,,,,,,,,,,,,,,,,,,,,,,,,,,,,,,,,,,,,,,,,,,,,,,,,,,,,,,,,,,,,,,,,,,,,,,,,,,,,,,,,,,,,,,
,8986,BAC,05/02/2005,001,2023-12-01_13h36.45.896,OS3_Mult_verification,2022.2.4,Win32,59.76571838,,,48,1.3678,1,"[""4"",""8"",""return""]","[0.7798000000715319,1.203300000071522,1.3383000000715128]",1,9,40,23,1,48,,,,,,,,,,,,,,,,,,,,,,,,,,,,,,,,,,,,,,,,,,,,,,,,,,,,,,,,,,,,,,,,,,,,,,,,,,,,,,,,,,,,,,,,,,,,,,,,,,,,,,,,,,,,,,,,,,,,,,,,,,,,,,,,,,,,,,,,,,,,,,,,,,,,,,,,,,,,,,,,,
,8986,BAC,05/02/2005,001,2023-12-01_13h36.45.896,OS3_Mult_verification,2022.2.4,Win32,59.76571838,,,25,1.501,1,"[""2"",""5"",""return""]","[0.7287000000476951,1.3029999999999973,1.470400000095367]",1,10,41,13,1,25,,,,,,,,,,,,,,,,,,,,,,,,,,,,,,,,,,,,,,,,,,,,,,,,,,,,,,,,,,,,,,,,,,,,,,,,,,,,,,,,,,,,,,,,,,,,,,,,,,,,,,,,,,,,,,,,,,,,,,,,,,,,,,,,,,,,,,,,,,,,,,,,,,,,,,,,,,,,,,,,,
,8986,BAC,05/02/2005,001,2023-12-01_13h36.45.896,OS3_Mult_verification,2022.2.4,Win32,59.76571838,,,36,1.3009,1,"[""3"",""6"",""return""]","[0.8343999999761422,1.1302000000476369,1.2656000000238237]",1,11,42,19,1,36,,,,,,,,,,,,,,,,,,,,,,,,,,,,,,,,,,,,,,,,,,,,,,,,,,,,,,,,,,,,,,,,,,,,,,,,,,,,,,,,,,,,,,,,,,,,,,,,,,,,,,,,,,,,,,,,,,,,,,,,,,,,,,,,,,,,,,,,,,,,,,,,,,,,,,,,,,,,,,,,,
,8986,BAC,05/02/2005,001,2023-12-01_13h36.45.896,OS3_Mult_verification,2022.2.4,Win32,59.76571838,,,72,1.9848,1,"[""7"",""2"",""return""]","[1.3781999999284835,1.4963999999761768,1.944899999976144]",1,12,43,29,1,72,,,,,,,,,,,,,,,,,,,,,,,,,,,,,,,,,,,,,,,,,,,,,,,,,,,,,,,,,,,,,,,,,,,,,,,,,,,,,,,,,,,,,,,,,,,,,,,,,,,,,,,,,,,,,,,,,,,,,,,,,,,,,,,,,,,,,,,,,,,,,,,,,,,,,,,,,,,,,,,,,
,8986,BAC,05/02/2005,001,2023-12-01_13h36.45.896,OS3_Mult_verification,2022.2.4,Win32,59.76571838,,,42,1.3341,1,"[""4"",""2"",""return""]","[0.9323000000715069,1.0681000000238328,1.2948000000715183]",1,13,44,21,1,42,,,,,,,,,,,,,,,,,,,,,,,,,,,,,,,,,,,,,,,,,,,,,,,,,,,,,,,,,,,,,,,,,,,,,,,,,,,,,,,,,,,,,,,,,,,,,,,,,,,,,,,,,,,,,,,,,,,,,,,,,,,,,,,,,,,,,,,,,,,,,,,,,,,,,,,,,,,,,,,,,
,8986,BAC,05/02/2005,001,2023-12-01_13h36.45.896,OS3_Mult_verification,2022.2.4,Win32,59.76571838,,,56,1.2008,1,"[""5"",""6"",""return""]","[0.8797000000476487,1.0199999999999818,1.1653999999761595]",1,14,45,26,1,56,,,,,,,,,,,,,,,,,,,,,,,,,,,,,,,,,,,,,,,,,,,,,,,,,,,,,,,,,,,,,,,,,,,,,,,,,,,,,,,,,,,,,,,,,,,,,,,,,,,,,,,,,,,,,,,,,,,,,,,,,,,,,,,,,,,,,,,,,,,,,,,,,,,,,,,,,,,,,,,,,
,8986,BAC,05/02/2005,001,2023-12-01_13h36.45.896,OS3_Mult_verification,2022.2.4,Win32,59.76571838,,,14,1.1842,1,"[""1"",""4"",""return""]","[0.7448999999761554,0.9788999999761359,1.145100000023831]",1,15,46,6,1,14,,,,,,,,,,,,,,,,,,,,,,,,,,,,,,,,,,,,,,,,,,,,,,,,,,,,,,,,,,,,,,,,,,,,,,,,,,,,,,,,,,,,,,,,,,,,,,,,,,,,,,,,,,,,,,,,,,,,,,,,,,,,,,,,,,,,,,,,,,,,,,,,,,,,,,,,,,,,,,,,,
,8986,BAC,05/02/2005,001,2023-12-01_13h36.45.896,OS3_Mult_verification,2022.2.4,Win32,59.76571838,,,8,1.1006,1,"[""8"",""return""]","[0.9495000000000005,1.0686999999284694]",1,16,47,2,1,8,,,,,,,,,,,,,,,,,,,,,,,,,,,,,,,,,,,,,,,,,,,,,,,,,,,,,,,,,,,,,,,,,,,,,,,,,,,,,,,,,,,,,,,,,,,,,,,,,,,,,,,,,,,,,,,,,,,,,,,,,,,,,,,,,,,,,,,,,,,,,,,,,,,,,,,,,,,,,,,,,
,8986,BAC,05/02/2005,001,2023-12-01_13h36.45.896,OS3_Mult_verification,2022.2.4,Win32,59.76571838,,,54,1.3677,1,"[""5"",""4"",""return""]","[1.0810000000000173,1.200600000023826,1.329999999999984]",1,17,48,25,1,54,,,,,,,,,,,,,,,,,,,,,,,,,,,,,,,,,,,,,,,,,,,,,,,,,,,,,,,,,,,,,,,,,,,,,,,,,,,,,,,,,,,,,,,,,,,,,,,,,,,,,,,,,,,,,,,,,,,,,,,,,,,,,,,,,,,,,,,,,,,,,,,,,,,,,,,,,,,,,,,,,
,8986,BAC,05/02/2005,001,2023-12-01_13h36.45.896,OS3_Mult_verification,2022.2.4,Win32,59.76571838,,,16,1.3844,1,"[""1"",""6"",""return""]","[0.8633999999761954,1.2138999999761495,1.3508000000715583]",1,18,49,8,1,16,,,,,,,,,,,,,,,,,,,,,,,,,,,,,,,,,,,,,,,,,,,,,,,,,,,,,,,,,,,,,,,,,,,,,,,,,,,,,,,,,,,,,,,,,,,,,,,,,,,,,,,,,,,,,,,,,,,,,,,,,,,,,,,,,,,,,,,,,,,,,,,,,,,,,,,,,,,,,,,,,
,8986,BAC,05/02/2005,001,2023-12-01_13h36.45.896,OS3_Mult_verification,2022.2.4,Win32,59.76571838,,,20,1.3011,1,"[""2"",""0"",""return""]","[0.6508999999761613,1.0833000000715742,1.2668000000715551]",1,19,50,10,1,20,,,,,,,,,,,,,,,,,,,,,,,,,,,,,,,,,,,,,,,,,,,,,,,,,,,,,,,,,,,,,,,,,,,,,,,,,,,,,,,,,,,,,,,,,,,,,,,,,,,,,,,,,,,,,,,,,,,,,,,,,,,,,,,,,,,,,,,,,,,,,,,,,,,,,,,,,,,,,,,,,
,8986,BAC,05/02/2005,001,2023-12-01_13h36.45.896,OS3_Mult_verification,2022.2.4,Win32,59.76571838,,,32,1.134,1,"[""3"",""2"",""return""]","[0.771000000000015,0.9390000000000214,1.1057000000477046]",1,20,51,17,1,32,,,,,,,,,,,,,,,,,,,,,,,,,,,,,,,,,,,,,,,,,,,,,,,,,,,,,,,,,,,,,,,,,,,,,,,,,,,,,,,,,,,,,,,,,,,,,,,,,,,,,,,,,,,,,,,,,,,,,,,,,,,,,,,,,,,,,,,,,,,,,,,,,,,,,,,,,,,,,,,,,
,8986,BAC,05/02/2005,001,2023-12-01_13h36.45.896,OS3_Mult_verification,2022.2.4,Win32,59.76571838,,,35,1.618,1,"[""3"",""5"",""return""]","[1.264799999952345,1.435299999952349,1.5858999999761636]",1,21,52,18,1,35,,,,,,,,,,,,,,,,,,,,,,,,,,,,,,,,,,,,,,,,,,,,,,,,,,,,,,,,,,,,,,,,,,,,,,,,,,,,,,,,,,,,,,,,,,,,,,,,,,,,,,,,,,,,,,,,,,,,,,,,,,,,,,,,,,,,,,,,,,,,,,,,,,,,,,,,,,,,,,,,,
,8986,BAC,05/02/2005,001,2023-12-01_13h36.45.896,OS3_Mult_verification,2022.2.4,Win32,59.76571838,,,24,1.1511,1,"[""2"",""4"",""return""]","[0.8058000000715424,1.014399999976206,1.1128000000715588]",1,22,53,12,1,24,,,,,,,,,,,,,,,,,,,,,,,,,,,,,,,,,,,,,,,,,,,,,,,,,,,,,,,,,,,,,,,,,,,,,,,,,,,,,,,,,,,,,,,,,,,,,,,,,,,,,,,,,,,,,,,,,,,,,,,,,,,,,,,,,,,,,,,,,,,,,,,,,,,,,,,,,,,,,,,,,
,8986,BAC,05/02/2005,001,2023-12-01_13h36.45.896,OS3_Mult_verification,2022.2.4,Win32,59.76571838,,,28,1.201,1,"[""2"",""8"",""return""]","[0.7347999999523154,1.0368999999761286,1.172099999904617]",1,23,54,15,1,28,,,,,,,,,,,,,,,,,,,,,,,,,,,,,,,,,,,,,,,,,,,,,,,,,,,,,,,,,,,,,,,,,,,,,,,,,,,,,,,,,,,,,,,,,,,,,,,,,,,,,,,,,,,,,,,,,,,,,,,,,,,,,,,,,,,,,,,,,,,,,,,,,,,,,,,,,,,,,,,,,
,8986,BAC,05/02/2005,001,2023-12-01_13h36.45.896,OS3_Mult_verification,2022.2.4,Win32,59.76571838,,,81,1.7346,1,"[""8"",""1"",""return""]","[1.0164000000953592,1.551999999999964,1.703400000095371]",1,24,55,30,1,81,,,,,,,,,,,,,,,,,,,,,,,,,,,,,,,,,,,,,,,,,,,,,,,,,,,,,,,,,,,,,,,,,,,,,,,,,,,,,,,,,,,,,,,,,,,,,,,,,,,,,,,,,,,,,,,,,,,,,,,,,,,,,,,,,,,,,,,,,,,,,,,,,,,,,,,,,,,,,,,,,
,8986,BAC,05/02/2005,001,2023-12-01_13h36.45.896,OS3_Mult_verification,2022.2.4,Win32,59.76571838,,,30,1.5679,1,"[""3"",""0"",""return""]","[0.9808000000715538,1.3333000000715174,1.5278999999761709]",1,25,56,16,1,30,,,,,,,,,,,,,,,,,,,,,,,,,,,,,,,,,,,,,,,,,,,,,,,,,,,,,,,,,,,,,,,,,,,,,,,,,,,,,,,,,,,,,,,,,,,,,,,,,,,,,,,,,,,,,,,,,,,,,,,,,,,,,,,,,,,,,,,,,,,,,,,,,,,,,,,,,,,,,,,,,
,8986,BAC,05/02/2005,001,2023-12-01_13h36.45.896,OS3_Mult_verification,2022.2.4,Win32,59.76571838,,,18,1.4511,1,"[""1"",""8"",""return""]","[0.789299999952334,1.2143999999761945,1.4136000000238482]",1,26,57,9,1,18,,,,,,,,,,,,,,,,,,,,,,,,,,,,,,,,,,,,,,,,,,,,,,,,,,,,,,,,,,,,,,,,,,,,,,,,,,,,,,,,,,,,,,,,,,,,,,,,,,,,,,,,,,,,,,,,,,,,,,,,,,,,,,,,,,,,,,,,,,,,,,,,,,,,,,,,,,,,,,,,,
,8986,BAC,05/02/2005,001,2023-12-01_13h36.45.896,OS3_Mult_verification,2022.2.4,Win32,59.76571838,,,15,1.3843,1,"[""1"",""5"",""return""]","[0.766200000047661,1.1832000000476341,1.3503000000715133]",1,27,58,7,1,15,,,,,,,,,,,,,,,,,,,,,,,,,,,,,,,,,,,,,,,,,,,,,,,,,,,,,,,,,,,,,,,,,,,,,,,,,,,,,,,,,,,,,,,,,,,,,,,,,,,,,,,,,,,,,,,,,,,,,,,,,,,,,,,,,,,,,,,,,,,,,,,,,,,,,,,,,,,,,,,,,
,8986,BAC,05/02/2005,001,2023-12-01_13h36.45.896,OS3_Mult_verification,2022.2.4,Win32,59.76571838,,,63,1.8015,1,"[""6"",""3"",""return""]","[1.1001000000238719,1.6046000000238791,1.7637999999523117]",1,28,59,27,1,63,,,,,,,,,,,,,,,,,,,,,,,,,,,,,,,,,,,,,,,,,,,,,,,,,,,,,,,,,,,,,,,,,,,,,,,,,,,,,,,,,,,,,,,,,,,,,,,,,,,,,,,,,,,,,,,,,,,,,,,,,,,,,,,,,,,,,,,,,,,,,,,,,,,,,,,,,,,,,,,,,
,8986,BAC,05/02/2005,001,2023-12-01_13h36.45.896,OS3_Mult_verification,2022.2.4,Win32,59.76571838,,,12,1.9684,1,"[""2"",""backspace"",""1"",""2"",""return""]","[0.7636999999284626,1.3846999999284435,1.6001999999284635,1.7204999999999586,1.9361000000238278]",1,29,60,5,1,12,,,,,,,,,,,,,,,,,,,,,,,,,,,,,,,,,,,,,,,,,,,,,,,,,,,,,,,,,,,,,,,,,,,,,,,,,,,,,,,,,,,,,,,,,,,,,,,,,,,,,,,,,,,,,,,,,,,,,,,,,,,,,,,,,,,,,,,,,,,,,,,,,,,,,,,,,,,,,,,,,
,8986,BAC,05/02/2005,001,2023-12-01_13h36.45.896,OS3_Mult_verification,2022.2.4,Win32,59.76571838,,,21,0.9841,1,"[""2"",""1"",""return""]","[0.6846999999284549,0.8542999999523317,0.9447999999522949]",1,30,61,11,1,21,,,,,,,,,,,,,,,,,,,,,,,,,,,,,,,,,,,,,,,,,,,,,,,,,,,,,,,,,,,,,,,,,,,,,,,,,,,,,,,,,,,,,,,,,,,,,,,,,,,,,,,,,,,,,,,,,,,,,,,,,,,,,,,,,,,,,,,,,,,,,,,,,,,,,,,,,,,,,,,,,
,8986,BAC,05/02/2005,001,2023-12-01_13h36.45.896,OS3_Mult_verification,2022.2.4,Win32,59.76571838,,,,,,,,,,,,,,space,2.0971,,,,,,,,,,,,,,,,,,,,,,,,,,,,,,,,,,,,,,,,,,,,,,,,,,,,,,,,,,,,,,,,,,,,,,,,,,,,,,,,,,,,,,,,,,,,,,,,,,,,,,,,,,,,,,,,,,,,,,,,,,,,,,,,,,,,,,,,,,,,,,,,,,,,,,,,,,,,,,,
,8986,BAC,05/02/2005,001,2023-12-01_13h36.45.896,OS3_Mult_verification,2022.2.4,Win32,59.76571838,,,,,,,,,,,,,,,,,,,,,,,,,,,,,,,,,,,,,,,,,,,,,,,,,,,,,,,,,,,,,,,,,,,,,,,,,,,,,,,,,,,,,,,,,,,,,,,,,,,,,,,,,,,,,,,,,,,,,,,,,,,,,,,,,,,,,,,,,,,,,,,,,,,,,,,,,,,,,,,,,,,,,,,,,,,,,,
,8986,BAC,05/02/2005,001,2023-12-01_13h36.45.896,OS3_Mult_verification,2022.2.4,Win32,59.76571838,,,,,,,,,,,,,,,,space,5.4194,,,,,,,,,,,,,,,,,,,,,,,,,,,,,,,,,,,,,,,,,,,,,,,,,,,,,,,,,,,,,,,,,,,,,,,,,,,,,,,,,,,,,,,,,,,,,,,,,,,,,,,,,,,,,,,,,,,,,,,,,,,,,,,,,,,,,,,,,,,,,,,,,,,,,,,,,,,,,
,8986,BAC,05/02/2005,001,2023-12-01_13h36.45.896,OS3_Mult_verification,2022.2.4,Win32,59.76571838,,,,,,,,,,,,,,,,,,22,1.968,1,"[""2"",""2"",""return""]","[1.3803999999761913,1.5475000000000136,1.6732000000477]",0,0,0,2,1,2 × 11 =,22,,,,,,,,,,,,,,,,,,,,,,,,,,,,,,,,,,,,,,,,,,,,,,,,,,,,,,,,,,,,,,,,,,,,,,,,,,,,,,,,,,,,,,,,,,,,,,,,,,,,,,,,,,,,,,,,,,,,,,,,,,,,,,,,,,,,,,,,,,,,,,,,,
,8986,BAC,05/02/2005,001,2023-12-01_13h36.45.896,OS3_Mult_verification,2022.2.4,Win32,59.76571838,,,,,,,,,,,,,,,,,,20,1.9728,1,"[""2"",""0"",""return""]","[1.2176000000238218,1.3996000000238382,1.6802000000476482]",0,1,1,1,1,2 × 10 =,20,,,,,,,,,,,,,,,,,,,,,,,,,,,,,,,,,,,,,,,,,,,,,,,,,,,,,,,,,,,,,,,,,,,,,,,,,,,,,,,,,,,,,,,,,,,,,,,,,,,,,,,,,,,,,,,,,,,,,,,,,,,,,,,,,,,,,,,,,,,,,,,,,
,8986,BAC,05/02/2005,001,2023-12-01_13h36.45.896,OS3_Mult_verification,2022.2.4,Win32,59.76571838,,,,,,,,,,,,,,,,,,7,1.6843,1,"[""7"",""return""]","[1.2530000000000427,1.38900000000001]",0,2,2,0,1,1 × 7 =,7,,,,,,,,,,,,,,,,,,,,,,,,,,,,,,,,,,,,,,,,,,,,,,,,,,,,,,,,,,,,,,,,,,,,,,,,,,,,,,,,,,,,,,,,,,,,,,,,,,,,,,,,,,,,,,,,,,,,,,,,,,,,,,,,,,,,,,,,,,,,,,,,,
,8986,BAC,05/02/2005,001,2023-12-01_13h36.45.896,OS3_Mult_verification,2022.2.4,Win32,59.76571838,,,,,,,,,,,,,,,,,,,,,,,,,,,,,,,,,,,,,,,,,,,,,,,,,,,,,,,,,,,,,,,,,,,,,,,,,,,,,,,,,,,,,,,,,,,,,,,,,,,,,,,,,,,,,,,,,,,,,,,,,,,,,,,,,,,,,,,,,,,,,,,,,,,,,,,,,,,,,,,,,,,,,,,,,,,,,,
,8986,BAC,05/02/2005,001,2023-12-01_13h36.45.896,OS3_Mult_verification,2022.2.4,Win32,59.76571838,,,,,,,,,,,,,,,,,,,,,,,,,,,,,,,,,,,,,,,,,,,,,,,,,,,,,,,,,,,,,,,,,,,,,,,,,,,,,,,,,,,,,,,,,,,,,,,,,,,,,,,,,,,,,,,,,,,,,,,,,,,,,,,,,,,,,,,,,,,,,,,,,,,,,,,,,,,,,,,,,,,,,,,,,,,,,,
,8986,BAC,05/02/2005,001,2023-12-01_13h36.45.896,OS3_Mult_verification,2022.2.4,Win32,59.76571838,,,,,,,,,,,,,,,,,,6,2.1687,1,"[""5"",""backspace"",""6"",""return""]","[1.1276000000238469,1.5156000000238805,1.7277000000477187,1.8688000000715306]",,,,,,2 × 3 =,6,0,0,0,0,1,,,,,,,,,,,,,,,,,,,,,,,,,,,,,,,,,,,,,,,,,,,,,,,,,,,,,,,,,,,,,,,,,,,,,,,,,,,,,,,,,,,,,,,,,,,,,,,,,,,,,,,,,,,,,,,,,,,,,,,,,,,,,,,,,,,,,,,,,,,,
,8986,BAC,05/02/2005,001,2023-12-01_13h36.45.896,OS3_Mult_verification,2022.2.4,Win32,59.76571838,,,,,,,,,,,,,,,,,,40,2.2954,1,"[""4"",""0"",""return""]","[1.3698999999761554,1.55239999997616,1.9866999999284758]",,,,,,5 × 8 =,40,0,1,1,1,1,,,,,,,,,,,,,,,,,,,,,,,,,,,,,,,,,,,,,,,,,,,,,,,,,,,,,,,,,,,,,,,,,,,,,,,,,,,,,,,,,,,,,,,,,,,,,,,,,,,,,,,,,,,,,,,,,,,,,,,,,,,,,,,,,,,,,,,,,,,,
,8986,BAC,05/02/2005,001,2023-12-01_13h36.45.896,OS3_Mult_verification,2022.2.4,Win32,59.76571838,,,,,,,,,,,,,,,,,,12,1.7332,1,"[""1"",""2"",""return""]","[1.0521999999284617,1.2246999999284753,1.4239999999999782]",,,,,,3 × 4 =,12,0,2,2,2,1,,,,,,,,,,,,,,,,,,,,,,,,,,,,,,,,,,,,,,,,,,,,,,,,,,,,,,,,,,,,,,,,,,,,,,,,,,,,,,,,,,,,,,,,,,,,,,,,,,,,,,,,,,,,,,,,,,,,,,,,,,,,,,,,,,,,,,,,,,,,
,8986,BAC,05/02/2005,001,2023-12-01_13h36.45.896,OS3_Mult_verification,2022.2.4,Win32,59.76571838,,,,,,,,,,,,,,,,,,15,1.7401,1,"[""1"",""5"",""return""]","[1.086100000023805,1.3354999999999677,1.4351000000238514]",,,,,,5 × 3 =,15,0,3,3,3,1,,,,,,,,,,,,,,,,,,,,,,,,,,,,,,,,,,,,,,,,,,,,,,,,,,,,,,,,,,,,,,,,,,,,,,,,,,,,,,,,,,,,,,,,,,,,,,,,,,,,,,,,,,,,,,,,,,,,,,,,,,,,,,,,,,,,,,,,,,,,
,8986,BAC,05/02/2005,001,2023-12-01_13h36.45.896,OS3_Mult_verification,2022.2.4,Win32,59.76571838,,,,,,,,,,,,,,,,,,8,1.6517,1,"[""8"",""return""]","[1.2104999999999677,1.3518000000715347]",,,,,,2 × 4 =,8,0,4,4,4,1,,,,,,,,,,,,,,,,,,,,,,,,,,,,,,,,,,,,,,,,,,,,,,,,,,,,,,,,,,,,,,,,,,,,,,,,,,,,,,,,,,,,,,,,,,,,,,,,,,,,,,,,,,,,,,,,,,,,,,,,,,,,,,,,,,,,,,,,,,,,
,8986,BAC,05/02/2005,001,2023-12-01_13h36.45.896,OS3_Mult_verification,2022.2.4,Win32,59.76571838,,,,,,,,,,,,,,,,,,4,1.9345,1,"[""3"",""backspace"",""4"",""return""]","[0.8713000000715283,1.2858000000715606,1.4684000000953574,1.632000000000005]",,,,,,2 × 2 =,4,0,5,5,5,1,,,,,,,,,,,,,,,,,,,,,,,,,,,,,,,,,,,,,,,,,,,,,,,,,,,,,,,,,,,,,,,,,,,,,,,,,,,,,,,,,,,,,,,,,,,,,,,,,,,,,,,,,,,,,,,,,,,,,,,,,,,,,,,,,,,,,,,,,,,,
,8986,BAC,05/02/2005,001,2023-12-01_13h36.45.896,OS3_Mult_verification,2022.2.4,Win32,59.76571838,,,,,,,,,,,,,,,,,,20,1.9285,1,"[""2"",""0"",""return""]","[1.1112000000476883,1.2874000000953743,1.6229000000953988]",,,,,,4 × 5 =,20,0,6,6,6,1,,,,,,,,,,,,,,,,,,,,,,,,,,,,,,,,,,,,,,,,,,,,,,,,,,,,,,,,,,,,,,,,,,,,,,,,,,,,,,,,,,,,,,,,,,,,,,,,,,,,,,,,,,,,,,,,,,,,,,,,,,,,,,,,,,,,,,,,,,,,
,8986,BAC,05/02/2005,001,2023-12-01_13h36.45.896,OS3_Mult_verification,2022.2.4,Win32,59.76571838,,,,,,,,,,,,,,,,,,6,1.717,0,"[""6"",""return""]","[1.224700000047676,1.4075000000000273]",,,,,,3 × 3 =,9,0,7,7,7,1,,,,,,,,,,,,,,,,,,,,,,,,,,,,,,,,,,,,,,,,,,,,,,,,,,,,,,,,,,,,,,,,,,,,,,,,,,,,,,,,,,,,,,,,,,,,,,,,,,,,,,,,,,,,,,,,,,,,,,,,,,,,,,,,,,,,,,,,,,,,
,8986,BAC,05/02/2005,001,2023-12-01_13h36.45.896,OS3_Mult_verification,2022.2.4,Win32,59.76571838,,,,,,,,,,,,,,,,,,10,2.2239,1,"[""1"",""0"",""return""]","[1.236399999976129,1.6743999999761172,1.9182999999522963]",,,,,,5 × 2 =,10,0,8,8,8,1,,,,,,,,,,,,,,,,,,,,,,,,,,,,,,,,,,,,,,,,,,,,,,,,,,,,,,,,,,,,,,,,,,,,,,,,,,,,,,,,,,,,,,,,,,,,,,,,,,,,,,,,,,,,,,,,,,,,,,,,,,,,,,,,,,,,,,,,,,,,
,8986,BAC,05/02/2005,001,2023-12-01_13h36.45.896,OS3_Mult_verification,2022.2.4,Win32,59.76571838,,,,,,,,,,,,,,,,,,16,1.9616,1,"[""1"",""6"",""return""]","[1.15270000004773,1.5112000000476655,1.6539999999999964]",,,,,,4 × 4 =,16,0,9,9,9,1,,,,,,,,,,,,,,,,,,,,,,,,,,,,,,,,,,,,,,,,,,,,,,,,,,,,,,,,,,,,,,,,,,,,,,,,,,,,,,,,,,,,,,,,,,,,,,,,,,,,,,,,,,,,,,,,,,,,,,,,,,,,,,,,,,,,,,,,,,,,
,8986,BAC,05/02/2005,001,2023-12-01_13h36.45.896,OS3_Mult_verification,2022.2.4,Win32,59.76571838,,,,,,,,,,,,,,,,,,24,1.7336,1,"[""2"",""4"",""return""]","[1.1749000000953629,1.3208000000715288,1.4220000000000255]",,,,,,8 × 3 =,24,0,10,10,10,1,,,,,,,,,,,,,,,,,,,,,,,,,,,,,,,,,,,,,,,,,,,,,,,,,,,,,,,,,,,,,,,,,,,,,,,,,,,,,,,,,,,,,,,,,,,,,,,,,,,,,,,,,,,,,,,,,,,,,,,,,,,,,,,,,,,,,,,,,,,,
,8986,BAC,05/02/2005,001,2023-12-01_13h36.45.896,OS3_Mult_verification,2022.2.4,Win32,59.76571838,,,,,,,,,,,,,,,,,,30,2.0174,1,"[""3"",""0"",""return""]","[1.2719999999999914,1.4206000000238532,1.7032000000476728]",,,,,,6 × 5 =,30,0,11,11,11,1,,,,,,,,,,,,,,,,,,,,,,,,,,,,,,,,,,,,,,,,,,,,,,,,,,,,,,,,,,,,,,,,,,,,,,,,,,,,,,,,,,,,,,,,,,,,,,,,,,,,,,,,,,,,,,,,,,,,,,,,,,,,,,,,,,,,,,,,,,,,
,8986,BAC,05/02/2005,001,2023-12-01_13h36.45.896,OS3_Mult_verification,2022.2.4,Win32,59.76571838,,,,,,,,,,,,,,,,,,14,1.8337,1,"[""1"",""4"",""return""]","[1.1730999999046503,1.4042999999522863,1.5247999999523358]",,,,,,7 × 2 =,14,0,12,12,12,1,,,,,,,,,,,,,,,,,,,,,,,,,,,,,,,,,,,,,,,,,,,,,,,,,,,,,,,,,,,,,,,,,,,,,,,,,,,,,,,,,,,,,,,,,,,,,,,,,,,,,,,,,,,,,,,,,,,,,,,,,,,,,,,,,,,,,,,,,,,,
,8986,BAC,05/02/2005,001,2023-12-01_13h36.45.896,OS3_Mult_verification,2022.2.4,Win32,59.76571838,,,,,,,,,,,,,,,,,,27,2.2074,1,"[""2"",""7"",""return""]","[1.0517999999523227,1.5373999999761168,1.9017999999522885]",,,,,,3 × 9 =,27,0,13,13,13,1,,,,,,,,,,,,,,,,,,,,,,,,,,,,,,,,,,,,,,,,,,,,,,,,,,,,,,,,,,,,,,,,,,,,,,,,,,,,,,,,,,,,,,,,,,,,,,,,,,,,,,,,,,,,,,,,,,,,,,,,,,,,,,,,,,,,,,,,,,,,
,8986,BAC,05/02/2005,001,2023-12-01_13h36.45.896,OS3_Mult_verification,2022.2.4,Win32,59.76571838,,,,,,,,,,,,,,,,,,16,1.6615,1,"[""1"",""6"",""return""]","[0.9041000000238455,1.2418999999761127,1.3527999999523104]",,,,,,2 × 8 =,16,0,14,14,14,1,,,,,,,,,,,,,,,,,,,,,,,,,,,,,,,,,,,,,,,,,,,,,,,,,,,,,,,,,,,,,,,,,,,,,,,,,,,,,,,,,,,,,,,,,,,,,,,,,,,,,,,,,,,,,,,,,,,,,,,,,,,,,,,,,,,,,,,,,,,,
,8986,BAC,05/02/2005,001,2023-12-01_13h36.45.896,OS3_Mult_verification,2022.2.4,Win32,59.76571838,,,,,,,,,,,,,,,,,,24,2.1346,1,"[""2"",""4"",""return""]","[1.4272000000477192,1.6112000000476883,1.8428000000715201]",,,,,,4 × 6 =,24,0,15,15,15,1,,,,,,,,,,,,,,,,,,,,,,,,,,,,,,,,,,,,,,,,,,,,,,,,,,,,,,,,,,,,,,,,,,,,,,,,,,,,,,,,,,,,,,,,,,,,,,,,,,,,,,,,,,,,,,,,,,,,,,,,,,,,,,,,,,,,,,,,,,,,
,8986,BAC,05/02/2005,001,2023-12-01_13h36.45.896,OS3_Mult_verification,2022.2.4,Win32,59.76571838,,,,,,,,,,,,,,,,,,21,1.5662,1,"[""2"",""1"",""return""]","[1.0182000000476705,1.0850000000000364,1.2588999999761654]",,,,,,7 × 3 =,21,0,16,16,16,1,,,,,,,,,,,,,,,,,,,,,,,,,,,,,,,,,,,,,,,,,,,,,,,,,,,,,,,,,,,,,,,,,,,,,,,,,,,,,,,,,,,,,,,,,,,,,,,,,,,,,,,,,,,,,,,,,,,,,,,,,,,,,,,,,,,,,,,,,,,,
,8986,BAC,05/02/2005,001,2023-12-01_13h36.45.896,OS3_Mult_verification,2022.2.4,Win32,59.76571838,,,,,,,,,,,,,,,,,,27,4.4361,1,"[""2"",""7"",""return""]","[2.3704000000953442,3.9635000000000105,4.122100000023806]",,,,,,9 × 3 =,27,0,17,17,17,1,,,,,,,,,,,,,,,,,,,,,,,,,,,,,,,,,,,,,,,,,,,,,,,,,,,,,,,,,,,,,,,,,,,,,,,,,,,,,,,,,,,,,,,,,,,,,,,,,,,,,,,,,,,,,,,,,,,,,,,,,,,,,,,,,,,,,,,,,,,,
,8986,BAC,05/02/2005,001,2023-12-01_13h36.45.896,OS3_Mult_verification,2022.2.4,Win32,59.76571838,,,,,,,,,,,,,,,,,,28,2.5163,1,"[""2"",""8"",""return""]","[1.7205000000000155,2.1031000000238578,2.219299999952341]",,,,,,4 × 7 =,28,0,18,18,18,1,,,,,,,,,,,,,,,,,,,,,,,,,,,,,,,,,,,,,,,,,,,,,,,,,,,,,,,,,,,,,,,,,,,,,,,,,,,,,,,,,,,,,,,,,,,,,,,,,,,,,,,,,,,,,,,,,,,,,,,,,,,,,,,,,,,,,,,,,,,,
,8986,BAC,05/02/2005,001,2023-12-01_13h36.45.896,OS3_Mult_verification,2022.2.4,Win32,59.76571838,,,,,,,,,,,,,,,,,,18,1.9623,1,"[""1"",""8"",""return""]","[1.0232999999523145,1.5196999999284913,1.6539999999999964]",,,,,,2 × 9 =,18,0,19,19,19,1,,,,,,,,,,,,,,,,,,,,,,,,,,,,,,,,,,,,,,,,,,,,,,,,,,,,,,,,,,,,,,,,,,,,,,,,,,,,,,,,,,,,,,,,,,,,,,,,,,,,,,,,,,,,,,,,,,,,,,,,,,,,,,,,,,,,,,,,,,,,
,8986,BAC,05/02/2005,001,2023-12-01_13h36.45.896,OS3_Mult_verification,2022.2.4,Win32,59.76571838,,,,,,,,,,,,,,,,,,72,2.4677,1,"[""7"",""2"",""return""]","[1.5362999999522913,1.693600000023821,2.1569999999999823]",,,,,,9 × 8 =,72,0,20,20,20,1,,,,,,,,,,,,,,,,,,,,,,,,,,,,,,,,,,,,,,,,,,,,,,,,,,,,,,,,,,,,,,,,,,,,,,,,,,,,,,,,,,,,,,,,,,,,,,,,,,,,,,,,,,,,,,,,,,,,,,,,,,,,,,,,,,,,,,,,,,,,
,8986,BAC,05/02/2005,001,2023-12-01_13h36.45.896,OS3_Mult_verification,2022.2.4,Win32,59.76571838,,,,,,,,,,,,,,,,,,42,2.2841,1,"[""4"",""2"",""return""]","[1.4878999999761504,1.8203999999761322,1.9698999999761213]",,,,,,7 × 6 =,42,0,21,21,21,1,,,,,,,,,,,,,,,,,,,,,,,,,,,,,,,,,,,,,,,,,,,,,,,,,,,,,,,,,,,,,,,,,,,,,,,,,,,,,,,,,,,,,,,,,,,,,,,,,,,,,,,,,,,,,,,,,,,,,,,,,,,,,,,,,,,,,,,,,,,,
,8986,BAC,05/02/2005,001,2023-12-01_13h36.45.896,OS3_Mult_verification,2022.2.4,Win32,59.76571838,,,,,,,,,,,,,,,,,,54,4.2858,1,"[""5"",""4"",""return""]","[3.388500000000022,3.5543999999761695,3.995199999928502]",,,,,,6 × 9 =,54,0,22,22,22,1,,,,,,,,,,,,,,,,,,,,,,,,,,,,,,,,,,,,,,,,,,,,,,,,,,,,,,,,,,,,,,,,,,,,,,,,,,,,,,,,,,,,,,,,,,,,,,,,,,,,,,,,,,,,,,,,,,,,,,,,,,,,,,,,,,,,,,,,,,,,
,8986,BAC,05/02/2005,001,2023-12-01_13h36.45.896,OS3_Mult_verification,2022.2.4,Win32,59.76571838,,,,,,,,,,,,,,,,,,45,1.7926,1,"[""4"",""5"",""return""]","[1.1368999999761513,1.308200000047691,1.4863000000715374]",,,,,,9 × 5 =,45,0,23,23,23,1,,,,,,,,,,,,,,,,,,,,,,,,,,,,,,,,,,,,,,,,,,,,,,,,,,,,,,,,,,,,,,,,,,,,,,,,,,,,,,,,,,,,,,,,,,,,,,,,,,,,,,,,,,,,,,,,,,,,,,,,,,,,,,,,,,,,,,,,,,,,
,8986,BAC,05/02/2005,001,2023-12-01_13h36.45.896,OS3_Mult_verification,2022.2.4,Win32,59.76571838,,,,,,,,,,,,,,,,,,56,1.8668,1,"[""5"",""6"",""return""]","[1.25389999997617,1.4262999999523345,1.5535000000000423]",,,,,,8 × 7 =,56,0,24,24,24,1,,,,,,,,,,,,,,,,,,,,,,,,,,,,,,,,,,,,,,,,,,,,,,,,,,,,,,,,,,,,,,,,,,,,,,,,,,,,,,,,,,,,,,,,,,,,,,,,,,,,,,,,,,,,,,,,,,,,,,,,,,,,,,,,,,,,,,,,,,,,
,8986,BAC,05/02/2005,001,2023-12-01_13h36.45.896,OS3_Mult_verification,2022.2.4,Win32,59.76571838,,,,,,,,,,,,,,,,,,36,2.0172,1,"[""3"",""6"",""return""]","[1.336500000000001,1.58660000002385,1.7032000000477296]",,,,,,6 × 6 =,36,0,25,25,25,1,,,,,,,,,,,,,,,,,,,,,,,,,,,,,,,,,,,,,,,,,,,,,,,,,,,,,,,,,,,,,,,,,,,,,,,,,,,,,,,,,,,,,,,,,,,,,,,,,,,,,,,,,,,,,,,,,,,,,,,,,,,,,,,,,,,,,,,,,,,,
,8986,BAC,05/02/2005,001,2023-12-01_13h36.45.896,OS3_Mult_verification,2022.2.4,Win32,59.76571838,,,,,,,,,,,,,,,,,,35,3.2679,1,"[""3"",""5"",""return""]","[2.626699999928462,2.788299999952301,2.96160000002385]",,,,,,5 × 7 =,35,0,26,26,26,1,,,,,,,,,,,,,,,,,,,,,,,,,,,,,,,,,,,,,,,,,,,,,,,,,,,,,,,,,,,,,,,,,,,,,,,,,,,,,,,,,,,,,,,,,,,,,,,,,,,,,,,,,,,,,,,,,,,,,,,,,,,,,,,,,,,,,,,,,,,,
,8986,BAC,05/02/2005,001,2023-12-01_13h36.45.896,OS3_Mult_verification,2022.2.4,Win32,59.76571838,,,,,,,,,,,,,,,,,,36,2.0822,1,"[""3"",""6"",""return""]","[1.2371000000238723,1.6027000000477187,1.7854000000953647]",,,,,,4 × 9 =,36,0,27,27,27,1,,,,,,,,,,,,,,,,,,,,,,,,,,,,,,,,,,,,,,,,,,,,,,,,,,,,,,,,,,,,,,,,,,,,,,,,,,,,,,,,,,,,,,,,,,,,,,,,,,,,,,,,,,,,,,,,,,,,,,,,,,,,,,,,,,,,,,,,,,,,
,8986,BAC,05/02/2005,001,2023-12-01_13h36.45.896,OS3_Mult_verification,2022.2.4,Win32,59.76571838,,,,,,,,,,,,,,,,,,48,2.5523,1,"[""4"",""8"",""return""]","[1.6693999999761786,2.0382999999523577,2.252599999904646]",,,,,,8 × 6 =,48,0,28,28,28,1,,,,,,,,,,,,,,,,,,,,,,,,,,,,,,,,,,,,,,,,,,,,,,,,,,,,,,,,,,,,,,,,,,,,,,,,,,,,,,,,,,,,,,,,,,,,,,,,,,,,,,,,,,,,,,,,,,,,,,,,,,,,,,,,,,,,,,,,,,,,
,8986,BAC,05/02/2005,001,2023-12-01_13h36.45.896,OS3_Mult_verification,2022.2.4,Win32,59.76571838,,,,,,,,,,,,,,,,,,63,4.0141,1,"[""6"",""3"",""return""]","[3.142299999952286,3.590299999952265,3.7098999999761304]",,,,,,9 × 7 =,63,0,29,29,29,1,,,,,,,,,,,,,,,,,,,,,,,,,,,,,,,,,,,,,,,,,,,,,,,,,,,,,,,,,,,,,,,,,,,,,,,,,,,,,,,,,,,,,,,,,,,,,,,,,,,,,,,,,,,,,,,,,,,,,,,,,,,,,,,,,,,,,,,,,,,,
,8986,BAC,05/02/2005,001,2023-12-01_13h36.45.896,OS3_Mult_verification,2022.2.4,Win32,59.76571838,,,,,,,,,,,,,,,,,,12,1.6759,1,"[""1"",""2"",""return""]","[1.069899999976144,1.27049999999997,1.3776999999284953]",,,,,,4 × 3 =,12,0,30,30,30,1,,,,,,,,,,,,,,,,,,,,,,,,,,,,,,,,,,,,,,,,,,,,,,,,,,,,,,,,,,,,,,,,,,,,,,,,,,,,,,,,,,,,,,,,,,,,,,,,,,,,,,,,,,,,,,,,,,,,,,,,,,,,,,,,,,,,,,,,,,,,
,8986,BAC,05/02/2005,001,2023-12-01_13h36.45.896,OS3_Mult_verification,2022.2.4,Win32,59.76571838,,,,,,,,,,,,,,,,,,25,2.4662,1,"[""2"",""5"",""return""]","[1.7576000000238423,2.021500000000003,2.172600000023806]",,,,,,5 × 5 =,25,0,31,31,31,1,,,,,,,,,,,,,,,,,,,,,,,,,,,,,,,,,,,,,,,,,,,,,,,,,,,,,,,,,,,,,,,,,,,,,,,,,,,,,,,,,,,,,,,,,,,,,,,,,,,,,,,,,,,,,,,,,,,,,,,,,,,,,,,,,,,,,,,,,,,,
,8986,BAC,05/02/2005,001,2023-12-01_13h36.45.896,OS3_Mult_verification,2022.2.4,Win32,59.76571838,,,,,,,,,,,,,,,,,,6,1.8568,1,"[""6"",""return""]","[1.386000000000024,1.5486000000238391]",,,,,,3 × 2 =,6,0,32,32,32,1,,,,,,,,,,,,,,,,,,,,,,,,,,,,,,,,,,,,,,,,,,,,,,,,,,,,,,,,,,,,,,,,,,,,,,,,,,,,,,,,,,,,,,,,,,,,,,,,,,,,,,,,,,,,,,,,,,,,,,,,,,,,,,,,,,,,,,,,,,,,
,8986,BAC,05/02/2005,001,2023-12-01_13h36.45.896,OS3_Mult_verification,2022.2.4,Win32,59.76571838,,,,,,,,,,,,,,,,,,20,2.3188,1,"[""2"",""0"",""return""]","[1.2133999999761613,1.804200000047672,2.0188999999761563]",,,,,,5 × 4 =,20,0,33,33,33,1,,,,,,,,,,,,,,,,,,,,,,,,,,,,,,,,,,,,,,,,,,,,,,,,,,,,,,,,,,,,,,,,,,,,,,,,,,,,,,,,,,,,,,,,,,,,,,,,,,,,,,,,,,,,,,,,,,,,,,,,,,,,,,,,,,,,,,,,,,,,
,8986,BAC,05/02/2005,001,2023-12-01_13h36.45.896,OS3_Mult_verification,2022.2.4,Win32,59.76571838,,,,,,,,,,,,,,,,,,8,1.5007,1,"[""8"",""return""]","[1.0937000000477042,1.2022000000476964]",,,,,,4 × 2 =,8,0,34,34,34,1,,,,,,,,,,,,,,,,,,,,,,,,,,,,,,,,,,,,,,,,,,,,,,,,,,,,,,,,,,,,,,,,,,,,,,,,,,,,,,,,,,,,,,,,,,,,,,,,,,,,,,,,,,,,,,,,,,,,,,,,,,,,,,,,,,,,,,,,,,,,
,8986,BAC,05/02/2005,001,2023-12-01_13h36.45.896,OS3_Mult_verification,2022.2.4,Win32,59.76571838,,,,,,,,,,,,,,,,,,12,1.8017,1,"[""1"",""2"",""return""]","[1.1588999999761427,1.359800000071516,1.501800000071512]",,,,,,2 × 6 =,12,0,35,35,35,1,,,,,,,,,,,,,,,,,,,,,,,,,,,,,,,,,,,,,,,,,,,,,,,,,,,,,,,,,,,,,,,,,,,,,,,,,,,,,,,,,,,,,,,,,,,,,,,,,,,,,,,,,,,,,,,,,,,,,,,,,,,,,,,,,,,,,,,,,,,,
,8986,BAC,05/02/2005,001,2023-12-01_13h36.45.896,OS3_Mult_verification,2022.2.4,Win32,59.76571838,,,,,,,,,,,,,,,,,,15,2.0518,1,"[""1"",""5"",""return""]","[1.0937999999522958,1.5898999999761259,1.7517999999523113]",,,,,,3 × 5 =,15,0,36,36,36,1,,,,,,,,,,,,,,,,,,,,,,,,,,,,,,,,,,,,,,,,,,,,,,,,,,,,,,,,,,,,,,,,,,,,,,,,,,,,,,,,,,,,,,,,,,,,,,,,,,,,,,,,,,,,,,,,,,,,,,,,,,,,,,,,,,,,,,,,,,,,
,8986,BAC,05/02/2005,001,2023-12-01_13h36.45.896,OS3_Mult_verification,2022.2.4,Win32,59.76571838,,,,,,,,,,,,,,,,,,18,1.8284,1,"[""1"",""8"",""return""]","[0.9336999999284785,1.3216999999285122,1.5370000000000346]",,,,,,6 × 3 =,18,0,37,37,37,1,,,,,,,,,,,,,,,,,,,,,,,,,,,,,,,,,,,,,,,,,,,,,,,,,,,,,,,,,,,,,,,,,,,,,,,,,,,,,,,,,,,,,,,,,,,,,,,,,,,,,,,,,,,,,,,,,,,,,,,,,,,,,,,,,,,,,,,,,,,,
,8986,BAC,05/02/2005,001,2023-12-01_13h36.45.896,OS3_Mult_verification,2022.2.4,Win32,59.76571838,,,,,,,,,,,,,,,,,,10,2.116,1,"[""1"",""0"",""return""]","[1.1906999999284835,1.6380000000000337,1.805499999999995]",,,,,,2 × 5 =,10,0,38,38,38,1,,,,,,,,,,,,,,,,,,,,,,,,,,,,,,,,,,,,,,,,,,,,,,,,,,,,,,,,,,,,,,,,,,,,,,,,,,,,,,,,,,,,,,,,,,,,,,,,,,,,,,,,,,,,,,,,,,,,,,,,,,,,,,,,,,,,,,,,,,,,
,8986,BAC,05/02/2005,001,2023-12-01_13h36.45.896,OS3_Mult_verification,2022.2.4,Win32,59.76571838,,,,,,,,,,,,,,,,,,32,2.1736,1,"[""3"",""2"",""return""]","[1.4716999999284326,1.569799999952295,1.8689999999999714]",,,,,,4 × 8 =,32,0,39,39,39,1,,,,,,,,,,,,,,,,,,,,,,,,,,,,,,,,,,,,,,,,,,,,,,,,,,,,,,,,,,,,,,,,,,,,,,,,,,,,,,,,,,,,,,,,,,,,,,,,,,,,,,,,,,,,,,,,,,,,,,,,,,,,,,,,,,,,,,,,,,,,
,8986,BAC,05/02/2005,001,2023-12-01_13h36.45.896,OS3_Mult_verification,2022.2.4,Win32,59.76571838,,,,,,,,,,,,,,,,,,1,2.0793,0,"[""1""]",[1.3522999999523222],,,,,,3 × 8 =,24,0,40,40,40,1,,,,,,,,,,,,,,,,,,,,,,,,,,,,,,,,,,,,,,,,,,,,,,,,,,,,,,,,,,,,,,,,,,,,,,,,,,,,,,,,,,,,,,,,,,,,,,,,,,,,,,,,,,,,,,,,,,,,,,,,,,,,,,,,,,,,,,,,,,,,
,8986,BAC,05/02/2005,001,2023-12-01_13h36.45.896,OS3_Mult_verification,2022.2.4,Win32,59.76571838,,,,,,,,,,,,,,,,space,3.9043,,,,,,,,,,,,,,,,,,TRUE,2.6586,0.036111111,-0.341666667,1,0,0,0,0,0,1,1,practice trial,,3,3,,,,,,,,,,,,,,,,,,,,,,,,,,,,,,,,,,,,,,,,,,,,,,,,,,,,,,,,,,,,,,,,,,,,,,,,,,,,,,,,,,,,,,,,,,,,,,,,,,,,,,,,,,,,,,,,,,,,,,,,,,,,
,8986,BAC,05/02/2005,001,2023-12-01_13h36.45.896,OS3_Mult_verification,2022.2.4,Win32,59.76571838,,,,,,,,,,,,,,,,,,,,,,,,,,,,,,,,,,,TRUE,2.2869,0.049074074,-0.349074074,1,0,0,0,1,1,0,1,practice trial,,3,3,,,,,,,,,,,,,,,,,,,,,,,,,,,,,,,,,,,,,,,,,,,,,,,,,,,,,,,,,,,,,,,,,,,,,,,,,,,,,,,,,,,,,,,,,,,,,,,,,,,,,,,,,,,,,,,,,,,,,,,,,,,,
,8986,BAC,05/02/2005,001,2023-12-01_13h36.45.896,OS3_Mult_verification,2022.2.4,Win32,59.76571838,,,,,,,,,,,,,,,,,,,,,,,,,,,,,,,,,,,TRUE,1.9671,0.030555556,-0.35462963,1,0,0,0,2,2,2,1,practice trial,,3,3,,,,,,,,,,,,,,,,,,,,,,,,,,,,,,,,,,,,,,,,,,,,,,,,,,,,,,,,,,,,,,,,,,,,,,,,,,,,,,,,,,,,,,,,,,,,,,,,,,,,,,,,,,,,,,,,,,,,,,,,,,,,
,8986,BAC,05/02/2005,001,2023-12-01_13h36.45.896,OS3_Mult_verification,2022.2.4,Win32,59.76571838,,,,,,,,,,,,,,,,,,,,,,,,,,,,,,,,,,,TRUE,1.3022,-0.080555556,-0.34537037,1,0,0,,,,,,Trial #1,,2,2,0,0,0,0,1,2,,,,,,,,,,,,,,,,,,,,,,,,,,,,,,,,,,,,,,,,,,,,,,,,,,,,,,,,,,,,,,,,,,,,,,,,,,,,,,,,,,,,,,,,,,,,,,,,,,,,,,,,,,,,,,,,,,,,,,
,8986,BAC,05/02/2005,001,2023-12-01_13h36.45.896,OS3_Mult_verification,2022.2.4,Win32,59.76571838,,,,,,,,,,,,,,,,,,,,,,,,,,,,,,,,,,,TRUE,1.4177,0.028703704,-0.337037037,1,0,0,,,,,,Trial #1,,2,2,0,1,1,1,1,2,,,,,,,,,,,,,,,,,,,,,,,,,,,,,,,,,,,,,,,,,,,,,,,,,,,,,,,,,,,,,,,,,,,,,,,,,,,,,,,,,,,,,,,,,,,,,,,,,,,,,,,,,,,,,,,,,,,,,,
,8986,BAC,05/02/2005,001,2023-12-01_13h36.45.896,OS3_Mult_verification,2022.2.4,Win32,59.76571838,,,,,,,,,,,,,,,,,,,,,,,,,,,,,,,,,,,TRUE,1.4347,0.007407407,-0.336111111,1,0,0,,,,,,Trial #1,,2,2,0,2,2,2,1,2,,,,,,,,,,,,,,,,,,,,,,,,,,,,,,,,,,,,,,,,,,,,,,,,,,,,,,,,,,,,,,,,,,,,,,,,,,,,,,,,,,,,,,,,,,,,,,,,,,,,,,,,,,,,,,,,,,,,,,
,8986,BAC,05/02/2005,001,2023-12-01_13h36.45.896,OS3_Mult_verification,2022.2.4,Win32,59.76571838,,,,,,,,,,,,,,,,,,,,,,,,,,,,,,,,,,,TRUE,1.5678,0.030555556,-0.352777778,1,0,0,,,,,,Trial #2,,3,3,0,0,0,0,1,3,,,,,,,,,,,,,,,,,,,,,,,,,,,,,,,,,,,,,,,,,,,,,,,,,,,,,,,,,,,,,,,,,,,,,,,,,,,,,,,,,,,,,,,,,,,,,,,,,,,,,,,,,,,,,,,,,,,,,,
,8986,BAC,05/02/2005,001,2023-12-01_13h36.45.896,OS3_Mult_verification,2022.2.4,Win32,59.76571838,,,,,,,,,,,,,,,,,,,,,,,,,,,,,,,,,,,TRUE,1.592,0.019444444,-0.337037037,1,0,0,,,,,,Trial #2,,3,3,0,1,1,1,1,3,,,,,,,,,,,,,,,,,,,,,,,,,,,,,,,,,,,,,,,,,,,,,,,,,,,,,,,,,,,,,,,,,,,,,,,,,,,,,,,,,,,,,,,,,,,,,,,,,,,,,,,,,,,,,,,,,,,,,,
,8986,BAC,05/02/2005,001,2023-12-01_13h36.45.896,OS3_Mult_verification,2022.2.4,Win32,59.76571838,,,,,,,,,,,,,,,,,,,,,,,,,,,,,,,,,,,TRUE,1.4441,0.024074074,-0.350925926,1,0,0,,,,,,Trial #2,,3,3,0,2,2,2,1,3,,,,,,,,,,,,,,,,,,,,,,,,,,,,,,,,,,,,,,,,,,,,,,,,,,,,,,,,,,,,,,,,,,,,,,,,,,,,,,,,,,,,,,,,,,,,,,,,,,,,,,,,,,,,,,,,,,,,,,
,8986,BAC,05/02/2005,001,2023-12-01_13h36.45.896,OS3_Mult_verification,2022.2.4,Win32,59.76571838,,,,,,,,,,,,,,,,,,,,,,,,,,,,,,,,,,,TRUE,1.7948,0.015740741,-0.376851852,1,0,0,,,,,,Trial #3,,3,3,0,0,0,0,1,4,,,,,,,,,,,,,,,,,,,,,,,,,,,,,,,,,,,,,,,,,,,,,,,,,,,,,,,,,,,,,,,,,,,,,,,,,,,,,,,,,,,,,,,,,,,,,,,,,,,,,,,,,,,,,,,,,,,,,,
,8986,BAC,05/02/2005,001,2023-12-01_13h36.45.896,OS3_Mult_verification,2022.2.4,Win32,59.76571838,,,,,,,,,,,,,,,,,,,,,,,,,,,,,,,,,,,TRUE,1.9187,0.074074074,-0.340740741,1,0,0,,,,,,Trial #3,,3,3,0,1,1,1,1,4,,,,,,,,,,,,,,,,,,,,,,,,,,,,,,,,,,,,,,,,,,,,,,,,,,,,,,,,,,,,,,,,,,,,,,,,,,,,,,,,,,,,,,,,,,,,,,,,,,,,,,,,,,,,,,,,,,,,,,
,8986,BAC,05/02/2005,001,2023-12-01_13h36.45.896,OS3_Mult_verification,2022.2.4,Win32,59.76571838,,,,,,,,,,,,,,,,,,,,,,,,,,,,,,,,,,,TRUE,1.6513,0.012037037,-0.324074074,1,0,0,,,,,,Trial #3,,3,3,0,2,2,2,1,4,,,,,,,,,,,,,,,,,,,,,,,,,,,,,,,,,,,,,,,,,,,,,,,,,,,,,,,,,,,,,,,,,,,,,,,,,,,,,,,,,,,,,,,,,,,,,,,,,,,,,,,,,,,,,,,,,,,,,,
,8986,BAC,05/02/2005,001,2023-12-01_13h36.45.896,OS3_Mult_verification,2022.2.4,Win32,59.76571838,,,,,,,,,,,,,,,,,,,,,,,,,,,,,,,,,,,TRUE,2.1172,0.038888889,-0.350925926,1,0,0,,,,,,Trial #4,,4,4,0,0,0,0,1,5,,,,,,,,,,,,,,,,,,,,,,,,,,,,,,,,,,,,,,,,,,,,,,,,,,,,,,,,,,,,,,,,,,,,,,,,,,,,,,,,,,,,,,,,,,,,,,,,,,,,,,,,,,,,,,,,,,,,,,
,8986,BAC,05/02/2005,001,2023-12-01_13h36.45.896,OS3_Mult_verification,2022.2.4,Win32,59.76571838,,,,,,,,,,,,,,,,,,,,,,,,,,,,,,,,,,,TRUE,2.1185,0.05,-0.346296296,1,0,0,,,,,,Trial #4,,4,4,0,1,1,1,1,5,,,,,,,,,,,,,,,,,,,,,,,,,,,,,,,,,,,,,,,,,,,,,,,,,,,,,,,,,,,,,,,,,,,,,,,,,,,,,,,,,,,,,,,,,,,,,,,,,,,,,,,,,,,,,,,,,,,,,,
,8986,BAC,05/02/2005,001,2023-12-01_13h36.45.896,OS3_Mult_verification,2022.2.4,Win32,59.76571838,,,,,,,,,,,,,,,,,,,,,,,,,,,,,,,,,,,TRUE,2.118,0.005555556,-0.367592593,1,0,0,,,,,,Trial #4,,4,4,0,2,2,2,1,5,,,,,,,,,,,,,,,,,,,,,,,,,,,,,,,,,,,,,,,,,,,,,,,,,,,,,,,,,,,,,,,,,,,,,,,,,,,,,,,,,,,,,,,,,,,,,,,,,,,,,,,,,,,,,,,,,,,,,,
,8986,BAC,05/02/2005,001,2023-12-01_13h36.45.896,OS3_Mult_verification,2022.2.4,Win32,59.76571838,,,,,,,,,,,,,,,,,,,,,,,,,,,,,,,,,,,TRUE,2.4688,0.057407407,-0.323148148,1,0,0,,,,,,Trial #5,,4,4,0,0,0,0,1,6,,,,,,,,,,,,,,,,,,,,,,,,,,,,,,,,,,,,,,,,,,,,,,,,,,,,,,,,,,,,,,,,,,,,,,,,,,,,,,,,,,,,,,,,,,,,,,,,,,,,,,,,,,,,,,,,,,,,,,
,8986,BAC,05/02/2005,001,2023-12-01_13h36.45.896,OS3_Mult_verification,2022.2.4,Win32,59.76571838,,,,,,,,,,,,,,,,,,,,,,,,,,,,,,,,,,,TRUE,2.7951,-0.003703704,-0.326851852,1,0,0,,,,,,Trial #5,,4,4,0,1,1,1,1,6,,,,,,,,,,,,,,,,,,,,,,,,,,,,,,,,,,,,,,,,,,,,,,,,,,,,,,,,,,,,,,,,,,,,,,,,,,,,,,,,,,,,,,,,,,,,,,,,,,,,,,,,,,,,,,,,,,,,,,
,8986,BAC,05/02/2005,001,2023-12-01_13h36.45.896,OS3_Mult_verification,2022.2.4,Win32,59.76571838,,,,,,,,,,,,,,,,,,,,,,,,,,,,,,,,,,,TRUE,2.4621,0.049074074,-0.321296296,1,0,0,,,,,,Trial #5,,4,4,0,2,2,2,1,6,,,,,,,,,,,,,,,,,,,,,,,,,,,,,,,,,,,,,,,,,,,,,,,,,,,,,,,,,,,,,,,,,,,,,,,,,,,,,,,,,,,,,,,,,,,,,,,,,,,,,,,,,,,,,,,,,,,,,,
,8986,BAC,05/02/2005,001,2023-12-01_13h36.45.896,OS3_Mult_verification,2022.2.4,Win32,59.76571838,,,,,,,,,,,,,,,,,,,,,,,,,,,,,,,,,,,TRUE,2.7351,0.040740741,-0.323148148,1,0,0,,,,,,Trial #6,,4,4,0,0,0,0,1,7,,,,,,,,,,,,,,,,,,,,,,,,,,,,,,,,,,,,,,,,,,,,,,,,,,,,,,,,,,,,,,,,,,,,,,,,,,,,,,,,,,,,,,,,,,,,,,,,,,,,,,,,,,,,,,,,,,,,,,
,8986,BAC,05/02/2005,001,2023-12-01_13h36.45.896,OS3_Mult_verification,2022.2.4,Win32,59.76571838,,,,,,,,,,,,,,,,,,,,,,,,,,,,,,,,,,,TRUE,2.6528,0.028703704,-0.337962963,1,0,0,,,,,,Trial #6,,4,4,0,1,1,1,1,7,,,,,,,,,,,,,,,,,,,,,,,,,,,,,,,,,,,,,,,,,,,,,,,,,,,,,,,,,,,,,,,,,,,,,,,,,,,,,,,,,,,,,,,,,,,,,,,,,,,,,,,,,,,,,,,,,,,,,,
,8986,BAC,05/02/2005,001,2023-12-01_13h36.45.896,OS3_Mult_verification,2022.2.4,Win32,59.76571838,,,,,,,,,,,,,,,,,,,,,,,,,,,,,,,,,,,TRUE,2.5618,0.012037037,-0.359259259,1,0,0,,,,,,Trial #6,,4,4,0,2,2,2,1,7,,,,,,,,,,,,,,,,,,,,,,,,,,,,,,,,,,,,,,,,,,,,,,,,,,,,,,,,,,,,,,,,,,,,,,,,,,,,,,,,,,,,,,,,,,,,,,,,,,,,,,,,,,,,,,,,,,,,,,
,8986,BAC,05/02/2005,001,2023-12-01_13h36.45.896,OS3_Mult_verification,2022.2.4,Win32,59.76571838,,,,,,,,,,,,,,,,,,,,,,,,,,,,,,,,,,,TRUE,4.6543,0.003703704,-0.319444444,1,0,0,,,,,,Trial #7,,4,4,0,0,0,0,1,8,,,,,,,,,,,,,,,,,,,,,,,,,,,,,,,,,,,,,,,,,,,,,,,,,,,,,,,,,,,,,,,,,,,,,,,,,,,,,,,,,,,,,,,,,,,,,,,,,,,,,,,,,,,,,,,,,,,,,,
,8986,BAC,05/02/2005,001,2023-12-01_13h36.45.896,OS3_Mult_verification,2022.2.4,Win32,59.76571838,,,,,,,,,,,,,,,,,,,,,,,,,,,,,,,,,,,TRUE,2.9023,0.02037037,-0.325925926,1,0,0,,,,,,Trial #7,,4,4,0,1,1,1,1,8,,,,,,,,,,,,,,,,,,,,,,,,,,,,,,,,,,,,,,,,,,,,,,,,,,,,,,,,,,,,,,,,,,,,,,,,,,,,,,,,,,,,,,,,,,,,,,,,,,,,,,,,,,,,,,,,,,,,,,
,8986,BAC,05/02/2005,001,2023-12-01_13h36.45.896,OS3_Mult_verification,2022.2.4,Win32,59.76571838,,,,,,,,,,,,,,,,,,,,,,,,,,,,,,,,,,,TRUE,3.1459,0.037037037,-0.319444444,1,0,0,,,,,,Trial #7,,4,4,0,2,2,2,1,8,,,,,,,,,,,,,,,,,,,,,,,,,,,,,,,,,,,,,,,,,,,,,,,,,,,,,,,,,,,,,,,,,,,,,,,,,,,,,,,,,,,,,,,,,,,,,,,,,,,,,,,,,,,,,,,,,,,,,,
,8986,BAC,05/02/2005,001,2023-12-01_13h36.45.896,OS3_Mult_verification,2022.2.4,Win32,59.76571838,,,,,,,,,,,,,,,,,,,,,,,,,,,,,,,,,,,TRUE,3.2022,-0.014814815,-0.381481481,1,0,0,,,,,,Trial #8,,5,5,0,0,0,0,1,9,,,,,,,,,,,,,,,,,,,,,,,,,,,,,,,,,,,,,,,,,,,,,,,,,,,,,,,,,,,,,,,,,,,,,,,,,,,,,,,,,,,,,,,,,,,,,,,,,,,,,,,,,,,,,,,,,,,,,,
,8986,BAC,05/02/2005,001,2023-12-01_13h36.45.896,OS3_Mult_verification,2022.2.4,Win32,59.76571838,,,,,,,,,,,,,,,,,,,,,,,,,,,,,,,,,,,TRUE,3.7697,0.008333333,-0.336111111,1,0,0,,,,,,Trial #8,,5,5,0,1,1,1,1,9,,,,,,,,,,,,,,,,,,,,,,,,,,,,,,,,,,,,,,,,,,,,,,,,,,,,,,,,,,,,,,,,,,,,,,,,,,,,,,,,,,,,,,,,,,,,,,,,,,,,,,,,,,,,,,,,,,,,,,
,8986,BAC,05/02/2005,001,2023-12-01_13h36.45.896,OS3_Mult_verification,2022.2.4,Win32,59.76571838,,,,,,,,,,,,,,,,,,,,,,,,,,,,,,,,,,,TRUE,3.6861,0.027777778,-0.336111111,1,0,0,,,,,,Trial #8,,5,5,0,2,2,2,1,9,,,,,,,,,,,,,,,,,,,,,,,,,,,,,,,,,,,,,,,,,,,,,,,,,,,,,,,,,,,,,,,,,,,,,,,,,,,,,,,,,,,,,,,,,,,,,,,,,,,,,,,,,,,,,,,,,,,,,,
,8986,BAC,05/02/2005,001,2023-12-01_13h36.45.896,OS3_Mult_verification,2022.2.4,Win32,59.76571838,,,,,,,,,,,,,,,,,,,,,,,,,,,,,,,,,,,FALSE,3.527,0.037962963,-0.324074074,1,0,0,,,,,,Trial #9,,5,5,0,0,0,0,1,10,,,,,,,,,,,,,,,,,,,,,,,,,,,,,,,,,,,,,,,,,,,,,,,,,,,,,,,,,,,,,,,,,,,,,,,,,,,,,,,,,,,,,,,,,,,,,,,,,,,,,,,,,,,,,,,,,,,,,,
,8986,BAC,05/02/2005,001,2023-12-01_13h36.45.896,OS3_Mult_verification,2022.2.4,Win32,59.76571838,,,,,,,,,,,,,,,,,,,,,,,,,,,,,,,,,,,FALSE,3.519,-0.04537037,-0.315740741,1,0,0,,,,,,Trial #9,,5,5,0,1,1,1,1,10,,,,,,,,,,,,,,,,,,,,,,,,,,,,,,,,,,,,,,,,,,,,,,,,,,,,,,,,,,,,,,,,,,,,,,,,,,,,,,,,,,,,,,,,,,,,,,,,,,,,,,,,,,,,,,,,,,,,,,
,8986,BAC,05/02/2005,001,2023-12-01_13h36.45.896,OS3_Mult_verification,2022.2.4,Win32,59.76571838,,,,,,,,,,,,,,,,,,,,,,,,,,,,,,,,,,,TRUE,4.5707,0.066666667,-0.326851852,1,0,0,,,,,,Trial #9,,5,5,0,2,2,2,1,10,,,,,,,,,,,,,,,,,,,,,,,,,,,,,,,,,,,,,,,,,,,,,,,,,,,,,,,,,,,,,,,,,,,,,,,,,,,,,,,,,,,,,,,,,,,,,,,,,,,,,,,,,,,,,,,,,,,,,,
,8986,BAC,05/02/2005,001,2023-12-01_13h36.45.896,OS3_Mult_verification,2022.2.4,Win32,59.76571838,,,,,,,,,,,,,,,,,,,,,,,,,,,,,,,,,,,,,,,,,,,,,,,,,,,,,,,,,0,0,0,0,1,,,,,,,,,,,,,,,,,,,,,,,,,,,,,,,,,,,,,,,,,,,,,,,,,,,,,,,,,,,,,,,,,,,,,,,,,,,,,,,,,,,,,,,,,,,,,,,,,,,,,,,,,,,,,,,,,
,8986,BAC,05/02/2005,001,2023-12-01_13h36.45.896,OS3_Mult_verification,2022.2.4,Win32,59.76571838,,,,,,,,,,,,,,,,,,,,,,,,,,,,,,,,,,,,,,,,,,,,,,,,,,,,,,,,,,,,,,0,0,0,0,1,0,1,0,,,,,,,,,,,,,,,,,,,,,,,,,,,,,,,,,,,,,,,,,,,,,,,,,,,,,,,,,,,,,,,,,,,,,,,,,,,,,,,,,,,,,,,,,,,,,,,,,,,,,,,,,
,8986,BAC,05/02/2005,001,2023-12-01_13h36.45.896,OS3_Mult_verification,2022.2.4,Win32,59.76571838,,,,,,,,,,,,,,,,space,1.537,,,,,,,,,,,,,,,,,,,,,,,,,,,,,,,,,,,,,,,,,,,,,,,,,,,,,left,0,1.0047,0,0,0,1,1,practice,7,8,7 | 8,1,0.065,0.05,incongruent,right,,,,,,,,,,,,,,,,,,,,,,,,,,,,,,,,,,,,,,,,,,,,,,,,,,,,,,,,,,,,,,,,,,,,,,,,,,,,,,,,,,,,,,,,
,8986,BAC,05/02/2005,001,2023-12-01_13h36.45.896,OS3_Mult_verification,2022.2.4,Win32,59.76571838,,,,,,,,,,,,,,,,,,,,,,,,,,,,,,,,,,,,,,,,,,,,,,,,,,,,,,,,,,,,,,,,,,,,,,right,1,0.7529,0,1,1,2,1,practice,4,9,4 | 9,5,0.06,0.06,neutral,right,,,,,,,,,,,,,,,,,,,,,,,,,,,,,,,,,,,,,,,,,,,,,,,,,,,,,,,,,,,,,,,,,,,,,,,,,,,,,,,,,,,,,,,,
,8986,BAC,05/02/2005,001,2023-12-01_13h36.45.896,OS3_Mult_verification,2022.2.4,Win32,59.76571838,,,,,,,,,,,,,,,,,,,,,,,,,,,,,,,,,,,,,,,,,,,,,,,,,,,,,,,,,,,,,,,,,,,,,,right,1,1.2105,0,2,2,0,1,practice,1,2,1 | 2,1,0.05,0.065,congruent,right,,,,,,,,,,,,,,,,,,,,,,,,,,,,,,,,,,,,,,,,,,,,,,,,,,,,,,,,,,,,,,,,,,,,,,,,,,,,,,,,,,,,,,,,
,8986,BAC,05/02/2005,001,2023-12-01_13h36.45.896,OS3_Mult_verification,2022.2.4,Win32,59.76571838,,,,,,,,,,,,,,,,,,,,,,,,,,,,,,,,,,,,,,,,,,,,,,,,,,,,,,,,,,,,,,,,,,,,,,right,1,0.83,,,,,,magnitude,8,9,8 | 9,1,0.06,0.06,neutral,right,0,0,0,51,1,,,,,,,,,,,,,,,,,,,,,,,,,,,,,,,,,,,,,,,,,,,,,,,,,,,,,,,,,,,,,,,,,,,,,,,,,,,,,,,,,,,
,8986,BAC,05/02/2005,001,2023-12-01_13h36.45.896,OS3_Mult_verification,2022.2.4,Win32,59.76571838,,,,,,,,,,,,,,,,,,,,,,,,,,,,,,,,,,,,,,,,,,,,,,,,,,,,,,,,,,,,,,,,,,,,,,left,1,0.7453,,,,,,magnitude,2,1,2 | 1,1,0.06,0.06,neutral,left,0,1,1,52,1,,,,,,,,,,,,,,,,,,,,,,,,,,,,,,,,,,,,,,,,,,,,,,,,,,,,,,,,,,,,,,,,,,,,,,,,,,,,,,,,,,,
,8986,BAC,05/02/2005,001,2023-12-01_13h36.45.896,OS3_Mult_verification,2022.2.4,Win32,59.76571838,,,,,,,,,,,,,,,,,,,,,,,,,,,,,,,,,,,,,,,,,,,,,,,,,,,,,,,,,,,,,,,,,,,,,,left,1,0.6796,,,,,,magnitude,9,8,9 | 8,1,0.06,0.06,neutral,left,0,2,2,55,1,,,,,,,,,,,,,,,,,,,,,,,,,,,,,,,,,,,,,,,,,,,,,,,,,,,,,,,,,,,,,,,,,,,,,,,,,,,,,,,,,,,
,8986,BAC,05/02/2005,001,2023-12-01_13h36.45.896,OS3_Mult_verification,2022.2.4,Win32,59.76571838,,,,,,,,,,,,,,,,,,,,,,,,,,,,,,,,,,,,,,,,,,,,,,,,,,,,,,,,,,,,,,,,,,,,,,right,1,0.5926,,,,,,magnitude,1,6,1 | 6,5,0.065,0.05,incongruent,right,0,3,3,40,1,,,,,,,,,,,,,,,,,,,,,,,,,,,,,,,,,,,,,,,,,,,,,,,,,,,,,,,,,,,,,,,,,,,,,,,,,,,,,,,,,,,
,8986,BAC,05/02/2005,001,2023-12-01_13h36.45.896,OS3_Mult_verification,2022.2.4,Win32,59.76571838,,,,,,,,,,,,,,,,,,,,,,,,,,,,,,,,,,,,,,,,,,,,,,,,,,,,,,,,,,,,,,,,,,,,,,right,1,0.784,,,,,,magnitude,2,4,2 | 4,2,0.06,0.06,neutral,right,0,4,4,57,1,,,,,,,,,,,,,,,,,,,,,,,,,,,,,,,,,,,,,,,,,,,,,,,,,,,,,,,,,,,,,,,,,,,,,,,,,,,,,,,,,,,
,8986,BAC,05/02/2005,001,2023-12-01_13h36.45.896,OS3_Mult_verification,2022.2.4,Win32,59.76571838,,,,,,,,,,,,,,,,,,,,,,,,,,,,,,,,,,,,,,,,,,,,,,,,,,,,,,,,,,,,,,,,,,,,,,right,1,0.5472,,,,,,magnitude,1,3,1 | 3,2,0.065,0.05,incongruent,right,0,5,5,32,1,,,,,,,,,,,,,,,,,,,,,,,,,,,,,,,,,,,,,,,,,,,,,,,,,,,,,,,,,,,,,,,,,,,,,,,,,,,,,,,,,,,
,8986,BAC,05/02/2005,001,2023-12-01_13h36.45.896,OS3_Mult_verification,2022.2.4,Win32,59.76571838,,,,,,,,,,,,,,,,,,,,,,,,,,,,,,,,,,,,,,,,,,,,,,,,,,,,,,,,,,,,,,,,,,,,,,right,1,0.4985,,,,,,magnitude,1,6,1 | 6,5,0.06,0.06,neutral,right,0,6,6,64,1,,,,,,,,,,,,,,,,,,,,,,,,,,,,,,,,,,,,,,,,,,,,,,,,,,,,,,,,,,,,,,,,,,,,,,,,,,,,,,,,,,,
,8986,BAC,05/02/2005,001,2023-12-01_13h36.45.896,OS3_Mult_verification,2022.2.4,Win32,59.76571838,,,,,,,,,,,,,,,,,,,,,,,,,,,,,,,,,,,,,,,,,,,,,,,,,,,,,,,,,,,,,,,,,,,,,,left,1,0.5315,,,,,,magnitude,6,1,6 | 1,5,0.06,0.06,neutral,left,0,7,7,68,1,,,,,,,,,,,,,,,,,,,,,,,,,,,,,,,,,,,,,,,,,,,,,,,,,,,,,,,,,,,,,,,,,,,,,,,,,,,,,,,,,,,
,8986,BAC,05/02/2005,001,2023-12-01_13h36.45.896,OS3_Mult_verification,2022.2.4,Win32,59.76571838,,,,,,,,,,,,,,,,,,,,,,,,,,,,,,,,,,,,,,,,,,,,,,,,,,,,,,,,,,,,,,,,,,,,,,right,1,0.4969,,,,,,magnitude,3,8,3 | 8,5,0.05,0.065,congruent,right,0,8,8,18,1,,,,,,,,,,,,,,,,,,,,,,,,,,,,,,,,,,,,,,,,,,,,,,,,,,,,,,,,,,,,,,,,,,,,,,,,,,,,,,,,,,,
,8986,BAC,05/02/2005,001,2023-12-01_13h36.45.896,OS3_Mult_verification,2022.2.4,Win32,59.76571838,,,,,,,,,,,,,,,,,,,,,,,,,,,,,,,,,,,,,,,,,,,,,,,,,,,,,,,,,,,,,,,,,,,,,,left,1,0.6114,,,,,,magnitude,3,1,3 | 1,2,0.06,0.06,neutral,left,0,9,9,60,1,,,,,,,,,,,,,,,,,,,,,,,,,,,,,,,,,,,,,,,,,,,,,,,,,,,,,,,,,,,,,,,,,,,,,,,,,,,,,,,,,,,
,8986,BAC,05/02/2005,001,2023-12-01_13h36.45.896,OS3_Mult_verification,2022.2.4,Win32,59.76571838,,,,,,,,,,,,,,,,,,,,,,,,,,,,,,,,,,,,,,,,,,,,,,,,,,,,,,,,,,,,,,,,,,,,,,left,1,0.694,,,,,,magnitude,9,4,9 | 4,5,0.05,0.065,incongruent,left,0,10,10,47,1,,,,,,,,,,,,,,,,,,,,,,,,,,,,,,,,,,,,,,,,,,,,,,,,,,,,,,,,,,,,,,,,,,,,,,,,,,,,,,,,,,,
,8986,BAC,05/02/2005,001,2023-12-01_13h36.45.896,OS3_Mult_verification,2022.2.4,Win32,59.76571838,,,,,,,,,,,,,,,,,,,,,,,,,,,,,,,,,,,,,,,,,,,,,,,,,,,,,,,,,,,,,,,,,,,,,,left,1,0.4877,,,,,,magnitude,6,1,6 | 1,5,0.065,0.05,congruent,left,0,11,11,20,1,,,,,,,,,,,,,,,,,,,,,,,,,,,,,,,,,,,,,,,,,,,,,,,,,,,,,,,,,,,,,,,,,,,,,,,,,,,,,,,,,,,
,8986,BAC,05/02/2005,001,2023-12-01_13h36.45.896,OS3_Mult_verification,2022.2.4,Win32,59.76571838,,,,,,,,,,,,,,,,,,,,,,,,,,,,,,,,,,,,,,,,,,,,,,,,,,,,,,,,,,,,,,,,,,,,,,left,1,0.6673,,,,,,magnitude,4,2,4 | 2,2,0.05,0.065,incongruent,left,0,12,12,37,1,,,,,,,,,,,,,,,,,,,,,,,,,,,,,,,,,,,,,,,,,,,,,,,,,,,,,,,,,,,,,,,,,,,,,,,,,,,,,,,,,,,
,8986,BAC,05/02/2005,001,2023-12-01_13h36.45.896,OS3_Mult_verification,2022.2.4,Win32,59.76571838,,,,,,,,,,,,,,,,,,,,,,,,,,,,,,,,,,,,,,,,,,,,,,,,,,,,,,,,,,,,,,,,,,,,,,right,1,0.7293,,,,,,magnitude,8,9,8 | 9,1,0.05,0.065,congruent,right,0,13,13,3,1,,,,,,,,,,,,,,,,,,,,,,,,,,,,,,,,,,,,,,,,,,,,,,,,,,,,,,,,,,,,,,,,,,,,,,,,,,,,,,,,,,,
,8986,BAC,05/02/2005,001,2023-12-01_13h36.45.896,OS3_Mult_verification,2022.2.4,Win32,59.76571838,,,,,,,,,,,,,,,,,,,,,,,,,,,,,,,,,,,,,,,,,,,,,,,,,,,,,,,,,,,,,,,,,,,,,,left,1,0.6059,,,,,,magnitude,4,3,4 | 3,1,0.05,0.065,incongruent,left,0,14,14,29,1,,,,,,,,,,,,,,,,,,,,,,,,,,,,,,,,,,,,,,,,,,,,,,,,,,,,,,,,,,,,,,,,,,,,,,,,,,,,,,,,,,,
,8986,BAC,05/02/2005,001,2023-12-01_13h36.45.896,OS3_Mult_verification,2022.2.4,Win32,59.76571838,,,,,,,,,,,,,,,,,,,,,,,,,,,,,,,,,,,,,,,,,,,,,,,,,,,,,,,,,,,,,,,,,,,,,,right,1,0.5207,,,,,,magnitude,3,4,3 | 4,1,0.065,0.05,incongruent,right,0,15,15,25,1,,,,,,,,,,,,,,,,,,,,,,,,,,,,,,,,,,,,,,,,,,,,,,,,,,,,,,,,,,,,,,,,,,,,,,,,,,,,,,,,,,,
,8986,BAC,05/02/2005,001,2023-12-01_13h36.45.896,OS3_Mult_verification,2022.2.4,Win32,59.76571838,,,,,,,,,,,,,,,,,,,,,,,,,,,,,,,,,,,,,,,,,,,,,,,,,,,,,,,,,,,,,,,,,,,,,,right,1,0.8608,,,,,,magnitude,6,7,6 | 7,1,0.065,0.05,incongruent,right,0,16,16,26,1,,,,,,,,,,,,,,,,,,,,,,,,,,,,,,,,,,,,,,,,,,,,,,,,,,,,,,,,,,,,,,,,,,,,,,,,,,,,,,,,,,,
,8986,BAC,05/02/2005,001,2023-12-01_13h36.45.896,OS3_Mult_verification,2022.2.4,Win32,59.76571838,,,,,,,,,,,,,,,,,,,,,,,,,,,,,,,,,,,,,,,,,,,,,,,,,,,,,,,,,,,,,,,,,,,,,,left,1,0.6607,,,,,,magnitude,7,6,7 | 6,1,0.06,0.06,neutral,left,0,17,17,54,1,,,,,,,,,,,,,,,,,,,,,,,,,,,,,,,,,,,,,,,,,,,,,,,,,,,,,,,,,,,,,,,,,,,,,,,,,,,,,,,,,,,
,8986,BAC,05/02/2005,001,2023-12-01_13h36.45.896,OS3_Mult_verification,2022.2.4,Win32,59.76571838,,,,,,,,,,,,,,,,,,,,,,,,,,,,,,,,,,,,,,,,,,,,,,,,,,,,,,,,,,,,,,,,,,,,,,right,1,0.5552,,,,,,magnitude,2,4,2 | 4,2,0.065,0.05,incongruent,right,0,18,18,33,1,,,,,,,,,,,,,,,,,,,,,,,,,,,,,,,,,,,,,,,,,,,,,,,,,,,,,,,,,,,,,,,,,,,,,,,,,,,,,,,,,,,
,8986,BAC,05/02/2005,001,2023-12-01_13h36.45.896,OS3_Mult_verification,2022.2.4,Win32,59.76571838,,,,,,,,,,,,,,,,,,,,,,,,,,,,,,,,,,,,,,,,,,,,,,,,,,,,,,,,,,,,,,,,,,,,,,right,1,0.6667,,,,,,magnitude,8,9,8 | 9,1,0.065,0.05,incongruent,right,0,19,19,27,1,,,,,,,,,,,,,,,,,,,,,,,,,,,,,,,,,,,,,,,,,,,,,,,,,,,,,,,,,,,,,,,,,,,,,,,,,,,,,,,,,,,
,8986,BAC,05/02/2005,001,2023-12-01_13h36.45.896,OS3_Mult_verification,2022.2.4,Win32,59.76571838,,,,,,,,,,,,,,,,,,,,,,,,,,,,,,,,,,,,,,,,,,,,,,,,,,,,,,,,,,,,,,,,,,,,,,right,1,0.5993,,,,,,magnitude,4,9,4 | 9,5,0.05,0.065,congruent,right,0,20,20,19,1,,,,,,,,,,,,,,,,,,,,,,,,,,,,,,,,,,,,,,,,,,,,,,,,,,,,,,,,,,,,,,,,,,,,,,,,,,,,,,,,,,,
,8986,BAC,05/02/2005,001,2023-12-01_13h36.45.896,OS3_Mult_verification,2022.2.4,Win32,59.76571838,,,,,,,,,,,,,,,,,,,,,,,,,,,,,,,,,,,,,,,,,,,,,,,,,,,,,,,,,,,,,,,,,,,,,,left,1,0.6061,,,,,,magnitude,9,4,9 | 4,5,0.06,0.06,neutral,left,0,21,21,71,1,,,,,,,,,,,,,,,,,,,,,,,,,,,,,,,,,,,,,,,,,,,,,,,,,,,,,,,,,,,,,,,,,,,,,,,,,,,,,,,,,,,
,8986,BAC,05/02/2005,001,2023-12-01_13h36.45.896,OS3_Mult_verification,2022.2.4,Win32,59.76571838,,,,,,,,,,,,,,,,,,,,,,,,,,,,,,,,,,,,,,,,,,,,,,,,,,,,,,,,,,,,,,,,,,,,,,left,1,0.6013,,,,,,magnitude,9,7,9 | 7,2,0.065,0.05,congruent,left,0,22,22,15,1,,,,,,,,,,,,,,,,,,,,,,,,,,,,,,,,,,,,,,,,,,,,,,,,,,,,,,,,,,,,,,,,,,,,,,,,,,,,,,,,,,,
,8986,BAC,05/02/2005,001,2023-12-01_13h36.45.896,OS3_Mult_verification,2022.2.4,Win32,59.76571838,,,,,,,,,,,,,,,,,,,,,,,,,,,,,,,,,,,,,,,,,,,,,,,,,,,,,,,,,,,,,,,,,,,,,,right,1,0.6263,,,,,,magnitude,3,4,3 | 4,1,0.05,0.065,congruent,right,0,23,23,1,1,,,,,,,,,,,,,,,,,,,,,,,,,,,,,,,,,,,,,,,,,,,,,,,,,,,,,,,,,,,,,,,,,,,,,,,,,,,,,,,,,,,
,8986,BAC,05/02/2005,001,2023-12-01_13h36.45.896,OS3_Mult_verification,2022.2.4,Win32,59.76571838,,,,,,,,,,,,,,,,,,,,,,,,,,,,,,,,,,,,,,,,,,,,,,,,,,,,,,,,,,,,,,,,,,,,,,left,1,0.6242,,,,,,magnitude,3,1,3 | 1,2,0.065,0.05,congruent,left,0,24,24,12,1,,,,,,,,,,,,,,,,,,,,,,,,,,,,,,,,,,,,,,,,,,,,,,,,,,,,,,,,,,,,,,,,,,,,,,,,,,,,,,,,,,,
,8986,BAC,05/02/2005,001,2023-12-01_13h36.45.896,OS3_Mult_verification,2022.2.4,Win32,59.76571838,,,,,,,,,,,,,,,,,,,,,,,,,,,,,,,,,,,,,,,,,,,,,,,,,,,,,,,,,,,,,,,,,,,,,,right,1,0.6503,,,,,,magnitude,6,8,6 | 8,2,0.065,0.05,incongruent,right,0,25,25,34,1,,,,,,,,,,,,,,,,,,,,,,,,,,,,,,,,,,,,,,,,,,,,,,,,,,,,,,,,,,,,,,,,,,,,,,,,,,,,,,,,,,,
,8986,BAC,05/02/2005,001,2023-12-01_13h36.45.896,OS3_Mult_verification,2022.2.4,Win32,59.76571838,,,,,,,,,,,,,,,,,,,,,,,,,,,,,,,,,,,,,,,,,,,,,,,,,,,,,,,,,,,,,,,,,,,,,,left,1,0.5661,,,,,,magnitude,8,3,8 | 3,5,0.065,0.05,congruent,left,0,26,26,22,1,,,,,,,,,,,,,,,,,,,,,,,,,,,,,,,,,,,,,,,,,,,,,,,,,,,,,,,,,,,,,,,,,,,,,,,,,,,,,,,,,,,
,8986,BAC,05/02/2005,001,2023-12-01_13h36.45.896,OS3_Mult_verification,2022.2.4,Win32,59.76571838,,,,,,,,,,,,,,,,,,,,,,,,,,,,,,,,,,,,,,,,,,,,,,,,,,,,,,,,,,,,,,,,,,,,,,left,1,0.5988,,,,,,magnitude,8,6,8 | 6,2,0.05,0.065,incongruent,left,0,27,27,38,1,,,,,,,,,,,,,,,,,,,,,,,,,,,,,,,,,,,,,,,,,,,,,,,,,,,,,,,,,,,,,,,,,,,,,,,,,,,,,,,,,,,
,8986,BAC,05/02/2005,001,2023-12-01_13h36.45.896,OS3_Mult_verification,2022.2.4,Win32,59.76571838,,,,,,,,,,,,,,,,,,,,,,,,,,,,,,,,,,,,,,,,,,,,,,,,,,,,,,,,,,,,,,,,,,,,,,left,1,0.5487,,,,,,magnitude,8,3,8 | 3,5,0.06,0.06,neutral,left,0,28,28,70,1,,,,,,,,,,,,,,,,,,,,,,,,,,,,,,,,,,,,,,,,,,,,,,,,,,,,,,,,,,,,,,,,,,,,,,,,,,,,,,,,,,,
,8986,BAC,05/02/2005,001,2023-12-01_13h36.45.896,OS3_Mult_verification,2022.2.4,Win32,59.76571838,,,,,,,,,,,,,,,,,,,,,,,,,,,,,,,,,,,,,,,,,,,,,,,,,,,,,,,,,,,,,,,,,,,,,,left,1,0.6072,,,,,,magnitude,7,2,7 | 2,5,0.06,0.06,neutral,left,0,29,29,69,1,,,,,,,,,,,,,,,,,,,,,,,,,,,,,,,,,,,,,,,,,,,,,,,,,,,,,,,,,,,,,,,,,,,,,,,,,,,,,,,,,,,
,8986,BAC,05/02/2005,001,2023-12-01_13h36.45.896,OS3_Mult_verification,2022.2.4,Win32,59.76571838,,,,,,,,,,,,,,,,,,,,,,,,,,,,,,,,,,,,,,,,,,,,,,,,,,,,,,,,,,,,,,,,,,,,,,right,1,0.5566,,,,,,magnitude,4,9,4 | 9,5,0.065,0.05,incongruent,right,0,30,30,43,1,,,,,,,,,,,,,,,,,,,,,,,,,,,,,,,,,,,,,,,,,,,,,,,,,,,,,,,,,,,,,,,,,,,,,,,,,,,,,,,,,,,
,8986,BAC,05/02/2005,001,2023-12-01_13h36.45.896,OS3_Mult_verification,2022.2.4,Win32,59.76571838,,,,,,,,,,,,,,,,,,,,,,,,,,,,,,,,,,,,,,,,,,,,,,,,,,,,,,,,,,,,,,,,,,,,,,right,1,0.647,,,,,,magnitude,6,8,6 | 8,2,0.05,0.065,congruent,right,0,31,31,10,1,,,,,,,,,,,,,,,,,,,,,,,,,,,,,,,,,,,,,,,,,,,,,,,,,,,,,,,,,,,,,,,,,,,,,,,,,,,,,,,,,,,
,8986,BAC,05/02/2005,001,2023-12-01_13h36.45.896,OS3_Mult_verification,2022.2.4,Win32,59.76571838,,,,,,,,,,,,,,,,,,,,,,,,,,,,,,,,,,,,,,,,,,,,,,,,,,,,,,,,,,,,,,,,,,,,,,left,1,0.5752,,,,,,magnitude,7,6,7 | 6,1,0.065,0.05,congruent,left,0,32,32,6,1,,,,,,,,,,,,,,,,,,,,,,,,,,,,,,,,,,,,,,,,,,,,,,,,,,,,,,,,,,,,,,,,,,,,,,,,,,,,,,,,,,,
,8986,BAC,05/02/2005,001,2023-12-01_13h36.45.896,OS3_Mult_verification,2022.2.4,Win32,59.76571838,,,,,,,,,,,,,,,,,,,,,,,,,,,,,,,,,,,,,,,,,,,,,,,,,,,,,,,,,,,,,,,,,,,,,,right,1,0.5591,,,,,,magnitude,1,6,1 | 6,5,0.05,0.065,congruent,right,0,33,33,16,1,,,,,,,,,,,,,,,,,,,,,,,,,,,,,,,,,,,,,,,,,,,,,,,,,,,,,,,,,,,,,,,,,,,,,,,,,,,,,,,,,,,
,8986,BAC,05/02/2005,001,2023-12-01_13h36.45.896,OS3_Mult_verification,2022.2.4,Win32,59.76571838,,,,,,,,,,,,,,,,,,,,,,,,,,,,,,,,,,,,,,,,,,,,,,,,,,,,,,,,,,,,,,,,,,,,,,left,1,0.565,,,,,,magnitude,2,1,2 | 1,1,0.065,0.05,congruent,left,0,34,34,4,1,,,,,,,,,,,,,,,,,,,,,,,,,,,,,,,,,,,,,,,,,,,,,,,,,,,,,,,,,,,,,,,,,,,,,,,,,,,,,,,,,,,
,8986,BAC,05/02/2005,001,2023-12-01_13h36.45.896,OS3_Mult_verification,2022.2.4,Win32,59.76571838,,,,,,,,,,,,,,,,,,,,,,,,,,,,,,,,,,,,,,,,,,,,,,,,,,,,,,,,,,,,,,,,,,,,,,right,1,0.5905,,,,,,magnitude,3,8,3 | 8,5,0.06,0.06,neutral,right,0,35,35,66,1,,,,,,,,,,,,,,,,,,,,,,,,,,,,,,,,,,,,,,,,,,,,,,,,,,,,,,,,,,,,,,,,,,,,,,,,,,,,,,,,,,,
,8986,BAC,05/02/2005,001,2023-12-01_13h36.45.896,OS3_Mult_verification,2022.2.4,Win32,59.76571838,,,,,,,,,,,,,,,,,,,,,,,,,,,,,,,,,,,,,,,,,,,,,,,,,,,,,,,,,,,,,,,,,,,,,,right,1,0.5411,,,,,,magnitude,1,3,1 | 3,2,0.05,0.065,congruent,right,0,36,36,8,1,,,,,,,,,,,,,,,,,,,,,,,,,,,,,,,,,,,,,,,,,,,,,,,,,,,,,,,,,,,,,,,,,,,,,,,,,,,,,,,,,,,
,8986,BAC,05/02/2005,001,2023-12-01_13h36.45.896,OS3_Mult_verification,2022.2.4,Win32,59.76571838,,,,,,,,,,,,,,,,,,,,,,,,,,,,,,,,,,,,,,,,,,,,,,,,,,,,,,,,,,,,,,,,,,,,,,left,1,0.5815,,,,,,magnitude,9,7,9 | 7,2,0.06,0.06,neutral,left,0,37,37,63,1,,,,,,,,,,,,,,,,,,,,,,,,,,,,,,,,,,,,,,,,,,,,,,,,,,,,,,,,,,,,,,,,,,,,,,,,,,,,,,,,,,,
,8986,BAC,05/02/2005,001,2023-12-01_13h36.45.896,OS3_Mult_verification,2022.2.4,Win32,59.76571838,,,,,,,,,,,,,,,,,,,,,,,,,,,,,,,,,,,,,,,,,,,,,,,,,,,,,,,,,,,,,,,,,,,,,,right,1,0.6264,,,,,,magnitude,2,7,2 | 7,5,0.065,0.05,incongruent,right,0,38,38,41,1,,,,,,,,,,,,,,,,,,,,,,,,,,,,,,,,,,,,,,,,,,,,,,,,,,,,,,,,,,,,,,,,,,,,,,,,,,,,,,,,,,,
,8986,BAC,05/02/2005,001,2023-12-01_13h36.45.896,OS3_Mult_verification,2022.2.4,Win32,59.76571838,,,,,,,,,,,,,,,,,,,,,,,,,,,,,,,,,,,,,,,,,,,,,,,,,,,,,,,,,,,,,,,,,,,,,,right,1,0.7804,,,,,,magnitude,3,4,3 | 4,1,0.06,0.06,neutral,right,0,39,39,49,1,,,,,,,,,,,,,,,,,,,,,,,,,,,,,,,,,,,,,,,,,,,,,,,,,,,,,,,,,,,,,,,,,,,,,,,,,,,,,,,,,,,
,8986,BAC,05/02/2005,001,2023-12-01_13h36.45.896,OS3_Mult_verification,2022.2.4,Win32,59.76571838,,,,,,,,,,,,,,,,,,,,,,,,,,,,,,,,,,,,,,,,,,,,,,,,,,,,,,,,,,,,,,,,,,,,,,right,1,0.5742,,,,,,magnitude,6,7,6 | 7,1,0.06,0.06,neutral,right,0,40,40,50,1,,,,,,,,,,,,,,,,,,,,,,,,,,,,,,,,,,,,,,,,,,,,,,,,,,,,,,,,,,,,,,,,,,,,,,,,,,,,,,,,,,,
,8986,BAC,05/02/2005,001,2023-12-01_13h36.45.896,OS3_Mult_verification,2022.2.4,Win32,59.76571838,,,,,,,,,,,,,,,,,,,,,,,,,,,,,,,,,,,,,,,,,,,,,,,,,,,,,,,,,,,,,,,,,,,,,,left,1,0.5927,,,,,,magnitude,7,2,7 | 2,5,0.05,0.065,incongruent,left,0,41,41,45,1,,,,,,,,,,,,,,,,,,,,,,,,,,,,,,,,,,,,,,,,,,,,,,,,,,,,,,,,,,,,,,,,,,,,,,,,,,,,,,,,,,,
,8986,BAC,05/02/2005,001,2023-12-01_13h36.45.896,OS3_Mult_verification,2022.2.4,Win32,59.76571838,,,,,,,,,,,,,,,,,,,,,,,,,,,,,,,,,,,,,,,,,,,,,,,,,,,,,,,,,,,,,,,,,,,,,,right,1,0.5413,,,,,,magnitude,3,8,3 | 8,5,0.065,0.05,incongruent,right,0,42,42,42,1,,,,,,,,,,,,,,,,,,,,,,,,,,,,,,,,,,,,,,,,,,,,,,,,,,,,,,,,,,,,,,,,,,,,,,,,,,,,,,,,,,,
,8986,BAC,05/02/2005,001,2023-12-01_13h36.45.896,OS3_Mult_verification,2022.2.4,Win32,59.76571838,,,,,,,,,,,,,,,,,,,,,,,,,,,,,,,,,,,,,,,,,,,,,,,,,,,,,,,,,,,,,,,,,,,,,,right,1,0.6797,,,,,,magnitude,7,9,7 | 9,2,0.065,0.05,incongruent,right,0,43,43,35,1,,,,,,,,,,,,,,,,,,,,,,,,,,,,,,,,,,,,,,,,,,,,,,,,,,,,,,,,,,,,,,,,,,,,,,,,,,,,,,,,,,,
,8986,BAC,05/02/2005,001,2023-12-01_13h36.45.896,OS3_Mult_verification,2022.2.4,Win32,59.76571838,,,,,,,,,,,,,,,,,,,,,,,,,,,,,,,,,,,,,,,,,,,,,,,,,,,,,,,,,,,,,,,,,,,,,,left,1,0.5211,,,,,,magnitude,7,2,7 | 2,5,0.065,0.05,congruent,left,0,44,44,21,1,,,,,,,,,,,,,,,,,,,,,,,,,,,,,,,,,,,,,,,,,,,,,,,,,,,,,,,,,,,,,,,,,,,,,,,,,,,,,,,,,,,
,8986,BAC,05/02/2005,001,2023-12-01_13h36.45.896,OS3_Mult_verification,2022.2.4,Win32,59.76571838,,,,,,,,,,,,,,,,,,,,,,,,,,,,,,,,,,,,,,,,,,,,,,,,,,,,,,,,,,,,,,,,,,,,,,left,1,0.6785,,,,,,magnitude,7,6,7 | 6,1,0.05,0.065,incongruent,left,0,45,45,30,1,,,,,,,,,,,,,,,,,,,,,,,,,,,,,,,,,,,,,,,,,,,,,,,,,,,,,,,,,,,,,,,,,,,,,,,,,,,,,,,,,,,
,8986,BAC,05/02/2005,001,2023-12-01_13h36.45.896,OS3_Mult_verification,2022.2.4,Win32,59.76571838,,,,,,,,,,,,,,,,,,,,,,,,,,,,,,,,,,,,,,,,,,,,,,,,,,,,,,,,,,,,,,,,,,,,,,right,1,0.561,,,,,,magnitude,2,4,2 | 4,2,0.05,0.065,congruent,right,0,46,46,9,1,,,,,,,,,,,,,,,,,,,,,,,,,,,,,,,,,,,,,,,,,,,,,,,,,,,,,,,,,,,,,,,,,,,,,,,,,,,,,,,,,,,
,8986,BAC,05/02/2005,001,2023-12-01_13h36.45.896,OS3_Mult_verification,2022.2.4,Win32,59.76571838,,,,,,,,,,,,,,,,,,,,,,,,,,,,,,,,,,,,,,,,,,,,,,,,,,,,,,,,,,,,,,,,,,,,,,left,1,0.659,,,,,,magnitude,6,1,6 | 1,5,0.05,0.065,incongruent,left,0,47,47,44,1,,,,,,,,,,,,,,,,,,,,,,,,,,,,,,,,,,,,,,,,,,,,,,,,,,,,,,,,,,,,,,,,,,,,,,,,,,,,,,,,,,,
,8986,BAC,05/02/2005,001,2023-12-01_13h36.45.896,OS3_Mult_verification,2022.2.4,Win32,59.76571838,,,,,,,,,,,,,,,,,,,,,,,,,,,,,,,,,,,,,,,,,,,,,,,,,,,,,,,,,,,,,,,,,,,,,,right,1,0.5986,,,,,,magnitude,1,3,1 | 3,2,0.06,0.06,neutral,right,0,48,48,56,1,,,,,,,,,,,,,,,,,,,,,,,,,,,,,,,,,,,,,,,,,,,,,,,,,,,,,,,,,,,,,,,,,,,,,,,,,,,,,,,,,,,
,8986,BAC,05/02/2005,001,2023-12-01_13h36.45.896,OS3_Mult_verification,2022.2.4,Win32,59.76571838,,,,,,,,,,,,,,,,,,,,,,,,,,,,,,,,,,,,,,,,,,,,,,,,,,,,,,,,,,,,,,,,,,,,,,right,1,0.6674,,,,,,magnitude,7,9,7 | 9,2,0.05,0.065,congruent,right,0,49,49,11,1,,,,,,,,,,,,,,,,,,,,,,,,,,,,,,,,,,,,,,,,,,,,,,,,,,,,,,,,,,,,,,,,,,,,,,,,,,,,,,,,,,,
,8986,BAC,05/02/2005,001,2023-12-01_13h36.45.896,OS3_Mult_verification,2022.2.4,Win32,59.76571838,,,,,,,,,,,,,,,,,,,,,,,,,,,,,,,,,,,,,,,,,,,,,,,,,,,,,,,,,,,,,,,,,,,,,,right,1,0.6097,,,,,,magnitude,1,2,1 | 2,1,0.06,0.06,neutral,right,0,50,50,48,1,,,,,,,,,,,,,,,,,,,,,,,,,,,,,,,,,,,,,,,,,,,,,,,,,,,,,,,,,,,,,,,,,,,,,,,,,,,,,,,,,,,
,8986,BAC,05/02/2005,001,2023-12-01_13h36.45.896,OS3_Mult_verification,2022.2.4,Win32,59.76571838,,,,,,,,,,,,,,,,,,,,,,,,,,,,,,,,,,,,,,,,,,,,,,,,,,,,,,,,,,,,,,,,,,,,,,left,1,0.5441,,,,,,magnitude,4,3,4 | 3,1,0.06,0.06,neutral,left,0,51,51,53,1,,,,,,,,,,,,,,,,,,,,,,,,,,,,,,,,,,,,,,,,,,,,,,,,,,,,,,,,,,,,,,,,,,,,,,,,,,,,,,,,,,,
,8986,BAC,05/02/2005,001,2023-12-01_13h36.45.896,OS3_Mult_verification,2022.2.4,Win32,59.76571838,,,,,,,,,,,,,,,,,,,,,,,,,,,,,,,,,,,,,,,,,,,,,,,,,,,,,,,,,,,,,,,,,,,,,,left,1,0.61,,,,,,magnitude,4,2,4 | 2,2,0.06,0.06,neutral,left,0,52,52,61,1,,,,,,,,,,,,,,,,,,,,,,,,,,,,,,,,,,,,,,,,,,,,,,,,,,,,,,,,,,,,,,,,,,,,,,,,,,,,,,,,,,,
,8986,BAC,05/02/2005,001,2023-12-01_13h36.45.896,OS3_Mult_verification,2022.2.4,Win32,59.76571838,,,,,,,,,,,,,,,,,,,,,,,,,,,,,,,,,,,,,,,,,,,,,,,,,,,,,,,,,,,,,,,,,,,,,,right,1,0.652,,,,,,magnitude,4,9,4 | 9,5,0.06,0.06,neutral,right,0,53,53,67,1,,,,,,,,,,,,,,,,,,,,,,,,,,,,,,,,,,,,,,,,,,,,,,,,,,,,,,,,,,,,,,,,,,,,,,,,,,,,,,,,,,,
,8986,BAC,05/02/2005,001,2023-12-01_13h36.45.896,OS3_Mult_verification,2022.2.4,Win32,59.76571838,,,,,,,,,,,,,,,,,,,,,,,,,,,,,,,,,,,,,,,,,,,,,,,,,,,,,,,,,,,,,,,,,,,,,,left,1,0.6177,,,,,,magnitude,9,7,9 | 7,2,0.05,0.065,incongruent,left,0,54,54,39,1,,,,,,,,,,,,,,,,,,,,,,,,,,,,,,,,,,,,,,,,,,,,,,,,,,,,,,,,,,,,,,,,,,,,,,,,,,,,,,,,,,,
,8986,BAC,05/02/2005,001,2023-12-01_13h36.45.896,OS3_Mult_verification,2022.2.4,Win32,59.76571838,,,,,,,,,,,,,,,,,,,,,,,,,,,,,,,,,,,,,,,,,,,,,,,,,,,,,,,,,,,,,,,,,,,,,,left,1,0.5887,,,,,,magnitude,9,4,9 | 4,5,0.065,0.05,congruent,left,0,55,55,23,1,,,,,,,,,,,,,,,,,,,,,,,,,,,,,,,,,,,,,,,,,,,,,,,,,,,,,,,,,,,,,,,,,,,,,,,,,,,,,,,,,,,
,8986,BAC,05/02/2005,001,2023-12-01_13h36.45.896,OS3_Mult_verification,2022.2.4,Win32,59.76571838,,,,,,,,,,,,,,,,,,,,,,,,,,,,,,,,,,,,,,,,,,,,,,,,,,,,,,,,,,,,,,,,,,,,,,right,1,0.608,,,,,,magnitude,2,7,2 | 7,5,0.06,0.06,neutral,right,0,56,56,65,1,,,,,,,,,,,,,,,,,,,,,,,,,,,,,,,,,,,,,,,,,,,,,,,,,,,,,,,,,,,,,,,,,,,,,,,,,,,,,,,,,,,
,8986,BAC,05/02/2005,001,2023-12-01_13h36.45.896,OS3_Mult_verification,2022.2.4,Win32,59.76571838,,,,,,,,,,,,,,,,,,,,,,,,,,,,,,,,,,,,,,,,,,,,,,,,,,,,,,,,,,,,,,,,,,,,,,left,1,0.5589,,,,,,magnitude,4,2,4 | 2,2,0.065,0.05,congruent,left,0,57,57,13,1,,,,,,,,,,,,,,,,,,,,,,,,,,,,,,,,,,,,,,,,,,,,,,,,,,,,,,,,,,,,,,,,,,,,,,,,,,,,,,,,,,,
,8986,BAC,05/02/2005,001,2023-12-01_13h36.45.896,OS3_Mult_verification,2022.2.4,Win32,59.76571838,,,,,,,,,,,,,,,,,,,,,,,,,,,,,,,,,,,,,,,,,,,,,,,,,,,,,,,,,,,,,,,,,,,,,,right,1,0.6399,,,,,,magnitude,6,8,6 | 8,2,0.06,0.06,neutral,right,0,58,58,58,1,,,,,,,,,,,,,,,,,,,,,,,,,,,,,,,,,,,,,,,,,,,,,,,,,,,,,,,,,,,,,,,,,,,,,,,,,,,,,,,,,,,
,8986,BAC,05/02/2005,001,2023-12-01_13h36.45.896,OS3_Mult_verification,2022.2.4,Win32,59.76571838,,,,,,,,,,,,,,,,,,,,,,,,,,,,,,,,,,,,,,,,,,,,,,,,,,,,,,,,,,,,,,,,,,,,,,right,1,0.5736,,,,,,magnitude,1,2,1 | 2,1,0.065,0.05,incongruent,right,0,59,59,24,1,,,,,,,,,,,,,,,,,,,,,,,,,,,,,,,,,,,,,,,,,,,,,,,,,,,,,,,,,,,,,,,,,,,,,,,,,,,,,,,,,,,
,8986,BAC,05/02/2005,001,2023-12-01_13h36.45.896,OS3_Mult_verification,2022.2.4,Win32,59.76571838,,,,,,,,,,,,,,,,,,,,,,,,,,,,,,,,,,,,,,,,,,,,,,,,,,,,,,,,,,,,,,,,,,,,,,right,1,0.6287,,,,,,magnitude,2,7,2 | 7,5,0.05,0.065,congruent,right,0,60,60,17,1,,,,,,,,,,,,,,,,,,,,,,,,,,,,,,,,,,,,,,,,,,,,,,,,,,,,,,,,,,,,,,,,,,,,,,,,,,,,,,,,,,,
,8986,BAC,05/02/2005,001,2023-12-01_13h36.45.896,OS3_Mult_verification,2022.2.4,Win32,59.76571838,,,,,,,,,,,,,,,,,,,,,,,,,,,,,,,,,,,,,,,,,,,,,,,,,,,,,,,,,,,,,,,,,,,,,,left,1,0.557,,,,,,magnitude,8,3,8 | 3,5,0.05,0.065,incongruent,left,0,61,61,46,1,,,,,,,,,,,,,,,,,,,,,,,,,,,,,,,,,,,,,,,,,,,,,,,,,,,,,,,,,,,,,,,,,,,,,,,,,,,,,,,,,,,
,8986,BAC,05/02/2005,001,2023-12-01_13h36.45.896,OS3_Mult_verification,2022.2.4,Win32,59.76571838,,,,,,,,,,,,,,,,,,,,,,,,,,,,,,,,,,,,,,,,,,,,,,,,,,,,,,,,,,,,,,,,,,,,,,left,1,0.6092,,,,,,magnitude,9,8,9 | 8,1,0.05,0.065,incongruent,left,0,62,62,31,1,,,,,,,,,,,,,,,,,,,,,,,,,,,,,,,,,,,,,,,,,,,,,,,,,,,,,,,,,,,,,,,,,,,,,,,,,,,,,,,,,,,
,8986,BAC,05/02/2005,001,2023-12-01_13h36.45.896,OS3_Mult_verification,2022.2.4,Win32,59.76571838,,,,,,,,,,,,,,,,,,,,,,,,,,,,,,,,,,,,,,,,,,,,,,,,,,,,,,,,,,,,,,,,,,,,,,left,1,0.579,,,,,,magnitude,9,8,9 | 8,1,0.065,0.05,congruent,left,0,63,63,7,1,,,,,,,,,,,,,,,,,,,,,,,,,,,,,,,,,,,,,,,,,,,,,,,,,,,,,,,,,,,,,,,,,,,,,,,,,,,,,,,,,,,
,8986,BAC,05/02/2005,001,2023-12-01_13h36.45.896,OS3_Mult_verification,2022.2.4,Win32,59.76571838,,,,,,,,,,,,,,,,,,,,,,,,,,,,,,,,,,,,,,,,,,,,,,,,,,,,,,,,,,,,,,,,,,,,,,left,1,0.7674,,,,,,magnitude,3,1,3 | 1,2,0.05,0.065,incongruent,left,0,64,64,36,1,,,,,,,,,,,,,,,,,,,,,,,,,,,,,,,,,,,,,,,,,,,,,,,,,,,,,,,,,,,,,,,,,,,,,,,,,,,,,,,,,,,
,8986,BAC,05/02/2005,001,2023-12-01_13h36.45.896,OS3_Mult_verification,2022.2.4,Win32,59.76571838,,,,,,,,,,,,,,,,,,,,,,,,,,,,,,,,,,,,,,,,,,,,,,,,,,,,,,,,,,,,,,,,,,,,,,right,1,0.5177,,,,,,magnitude,1,2,1 | 2,1,0.05,0.065,congruent,right,0,65,65,0,1,,,,,,,,,,,,,,,,,,,,,,,,,,,,,,,,,,,,,,,,,,,,,,,,,,,,,,,,,,,,,,,,,,,,,,,,,,,,,,,,,,,
,8986,BAC,05/02/2005,001,2023-12-01_13h36.45.896,OS3_Mult_verification,2022.2.4,Win32,59.76571838,,,,,,,,,,,,,,,,,,,,,,,,,,,,,,,,,,,,,,,,,,,,,,,,,,,,,,,,,,,,,,,,,,,,,,left,1,0.6064,,,,,,magnitude,4,3,4 | 3,1,0.065,0.05,congruent,left,0,66,66,5,1,,,,,,,,,,,,,,,,,,,,,,,,,,,,,,,,,,,,,,,,,,,,,,,,,,,,,,,,,,,,,,,,,,,,,,,,,,,,,,,,,,,
,8986,BAC,05/02/2005,001,2023-12-01_13h36.45.896,OS3_Mult_verification,2022.2.4,Win32,59.76571838,,,,,,,,,,,,,,,,,,,,,,,,,,,,,,,,,,,,,,,,,,,,,,,,,,,,,,,,,,,,,,,,,,,,,,left,1,0.6555,,,,,,magnitude,2,1,2 | 1,1,0.05,0.065,incongruent,left,0,67,67,28,1,,,,,,,,,,,,,,,,,,,,,,,,,,,,,,,,,,,,,,,,,,,,,,,,,,,,,,,,,,,,,,,,,,,,,,,,,,,,,,,,,,,
,8986,BAC,05/02/2005,001,2023-12-01_13h36.45.896,OS3_Mult_verification,2022.2.4,Win32,59.76571838,,,,,,,,,,,,,,,,,,,,,,,,,,,,,,,,,,,,,,,,,,,,,,,,,,,,,,,,,,,,,,,,,,,,,,left,1,0.6121,,,,,,magnitude,8,6,8 | 6,2,0.06,0.06,neutral,left,0,68,68,62,1,,,,,,,,,,,,,,,,,,,,,,,,,,,,,,,,,,,,,,,,,,,,,,,,,,,,,,,,,,,,,,,,,,,,,,,,,,,,,,,,,,,
,8986,BAC,05/02/2005,001,2023-12-01_13h36.45.896,OS3_Mult_verification,2022.2.4,Win32,59.76571838,,,,,,,,,,,,,,,,,,,,,,,,,,,,,,,,,,,,,,,,,,,,,,,,,,,,,,,,,,,,,,,,,,,,,,right,1,0.7123,,,,,,magnitude,6,7,6 | 7,1,0.05,0.065,congruent,right,0,69,69,2,1,,,,,,,,,,,,,,,,,,,,,,,,,,,,,,,,,,,,,,,,,,,,,,,,,,,,,,,,,,,,,,,,,,,,,,,,,,,,,,,,,,,
,8986,BAC,05/02/2005,001,2023-12-01_13h36.45.896,OS3_Mult_verification,2022.2.4,Win32,59.76571838,,,,,,,,,,,,,,,,,,,,,,,,,,,,,,,,,,,,,,,,,,,,,,,,,,,,,,,,,,,,,,,,,,,,,,left,1,0.6615,,,,,,magnitude,8,6,8 | 6,2,0.065,0.05,congruent,left,0,70,70,14,1,,,,,,,,,,,,,,,,,,,,,,,,,,,,,,,,,,,,,,,,,,,,,,,,,,,,,,,,,,,,,,,,,,,,,,,,,,,,,,,,,,,
,8986,BAC,05/02/2005,001,2023-12-01_13h36.45.896,OS3_Mult_verification,2022.2.4,Win32,59.76571838,,,,,,,,,,,,,,,,,,,,,,,,,,,,,,,,,,,,,,,,,,,,,,,,,,,,,,,,,,,,,,,,,,,,,,right,1,0.6266,,,,,,magnitude,7,9,7 | 9,2,0.06,0.06,neutral,right,0,71,71,59,1,,,,,,,,,,,,,,,,,,,,,,,,,,,,,,,,,,,,,,,,,,,,,,,,,,,,,,,,,,,,,,,,,,,,,,,,,,,,,,,,,,,
,8986,BAC,05/02/2005,001,2023-12-01_13h36.45.896,OS3_Mult_verification,2022.2.4,Win32,59.76571838,,,,,,,,,,,,,,,,,,,,,,,,,,,,,,,,,,,,,,,,,,,,,,,,,,,,,,,,,,,,,,,,,,,,,,,,,,,,,,,,,,,,,,,,,,,,0,0,0,0,1,stroop_stim/magnitude.xlsx,stroop_stim/prac_magnitude.xlsx,NUMERICALLY larger (larger coefficient).,images/numericallyLarger.png,,,,,,,,,,,,,,,,,,,,,,,,,,,,,,,,,,,,,,,,,,,,,,,,,,,,,,,,,,,,,,,,,,,,,,,,,,
,8986,BAC,05/02/2005,001,2023-12-01_13h36.45.896,OS3_Mult_verification,2022.2.4,Win32,59.76571838,,,,,,,,,,,,,,,,space,1.0032,,,,,,,,,,,,,,,,,,,,,,,,,,,,,,,,,,,,,,,,,,,,,,,,,,,,,right,1,0.5983,0,0,0,1,1,practice,4,3,4 | 3,1,0.05,0.065,incongruent,right,,,,,,,,,,,,,,,,,,,,,,,,,,,,,,,,,,,,,,,,,,,,,,,,,,,,,,,,,,,,,,,,,,,,,,,,,,,,,,,,,,,,,,,,
,8986,BAC,05/02/2005,001,2023-12-01_13h36.45.896,OS3_Mult_verification,2022.2.4,Win32,59.76571838,,,,,,,,,,,,,,,,,,,,,,,,,,,,,,,,,,,,,,,,,,,,,,,,,,,,,,,,,,,,,,,,,,,,,,left,1,0.4418,0,1,1,0,1,practice,9,8,9 | 8,1,0.065,0.05,congruent,left,,,,,,,,,,,,,,,,,,,,,,,,,,,,,,,,,,,,,,,,,,,,,,,,,,,,,,,,,,,,,,,,,,,,,,,,,,,,,,,,,,,,,,,,
,8986,BAC,05/02/2005,001,2023-12-01_13h36.45.896,OS3_Mult_verification,2022.2.4,Win32,59.76571838,,,,,,,,,,,,,,,,,,,,,,,,,,,,,,,,,,,,,,,,,,,,,,,,,,,,,,,,,,,,,,,,,,,,,,right,1,0.829,0,2,2,2,1,practice,9,9,9 | 9,0,0.05,0.065,neutral,right,,,,,,,,,,,,,,,,,,,,,,,,,,,,,,,,,,,,,,,,,,,,,,,,,,,,,,,,,,,,,,,,,,,,,,,,,,,,,,,,,,,,,,,,
,8986,BAC,05/02/2005,001,2023-12-01_13h36.45.896,OS3_Mult_verification,2022.2.4,Win32,59.76571838,,,,,,,,,,,,,,,,,,,,,,,,,,,,,,,,,,,,,,,,,,,,,,,,,,,,,,,,,,,,,,,,,,,,,,left,1,0.6114,,,,,,physical,9,9,9 | 9,0,0.065,0.05,neutral,left,0,0,0,55,1,,,,,,,,,,,,,,,,,,,,,,,,,,,,,,,,,,,,,,,,,,,,,,,,,,,,,,,,,,,,,,,,,,,,,,,,,,,,,,,,,,,
,8986,BAC,05/02/2005,001,2023-12-01_13h36.45.896,OS3_Mult_verification,2022.2.4,Win32,59.76571838,,,,,,,,,,,,,,,,,,,,,,,,,,,,,,,,,,,,,,,,,,,,,,,,,,,,,,,,,,,,,,,,,,,,,,left,1,0.4541,,,,,,physical,4,3,4 | 3,1,0.065,0.05,congruent,left,0,1,1,5,1,,,,,,,,,,,,,,,,,,,,,,,,,,,,,,,,,,,,,,,,,,,,,,,,,,,,,,,,,,,,,,,,,,,,,,,,,,,,,,,,,,,
,8986,BAC,05/02/2005,001,2023-12-01_13h36.45.896,OS3_Mult_verification,2022.2.4,Win32,59.76571838,,,,,,,,,,,,,,,,,,,,,,,,,,,,,,,,,,,,,,,,,,,,,,,,,,,,,,,,,,,,,,,,,,,,,,left,1,0.6442,,,,,,physical,2,7,2 | 7,5,0.065,0.05,incongruent,left,0,2,2,41,1,,,,,,,,,,,,,,,,,,,,,,,,,,,,,,,,,,,,,,,,,,,,,,,,,,,,,,,,,,,,,,,,,,,,,,,,,,,,,,,,,,,
,8986,BAC,05/02/2005,001,2023-12-01_13h36.45.896,OS3_Mult_verification,2022.2.4,Win32,59.76571838,,,,,,,,,,,,,,,,,,,,,,,,,,,,,,,,,,,,,,,,,,,,,,,,,,,,,,,,,,,,,,,,,,,,,,right,1,0.5824,,,,,,physical,6,1,6 | 1,5,0.05,0.065,incongruent,right,0,3,3,44,1,,,,,,,,,,,,,,,,,,,,,,,,,,,,,,,,,,,,,,,,,,,,,,,,,,,,,,,,,,,,,,,,,,,,,,,,,,,,,,,,,,,
,8986,BAC,05/02/2005,001,2023-12-01_13h36.45.896,OS3_Mult_verification,2022.2.4,Win32,59.76571838,,,,,,,,,,,,,,,,,,,,,,,,,,,,,,,,,,,,,,,,,,,,,,,,,,,,,,,,,,,,,,,,,,,,,,left,1,0.5311,,,,,,physical,8,8,8 | 8,0,0.065,0.05,neutral,left,0,4,4,70,1,,,,,,,,,,,,,,,,,,,,,,,,,,,,,,,,,,,,,,,,,,,,,,,,,,,,,,,,,,,,,,,,,,,,,,,,,,,,,,,,,,,
,8986,BAC,05/02/2005,001,2023-12-01_13h36.45.896,OS3_Mult_verification,2022.2.4,Win32,59.76571838,,,,,,,,,,,,,,,,,,,,,,,,,,,,,,,,,,,,,,,,,,,,,,,,,,,,,,,,,,,,,,,,,,,,,,left,1,0.5501,,,,,,physical,9,8,9 | 8,1,0.065,0.05,congruent,left,0,5,5,7,1,,,,,,,,,,,,,,,,,,,,,,,,,,,,,,,,,,,,,,,,,,,,,,,,,,,,,,,,,,,,,,,,,,,,,,,,,,,,,,,,,,,
,8986,BAC,05/02/2005,001,2023-12-01_13h36.45.896,OS3_Mult_verification,2022.2.4,Win32,59.76571838,,,,,,,,,,,,,,,,,,,,,,,,,,,,,,,,,,,,,,,,,,,,,,,,,,,,,,,,,,,,,,,,,,,,,,left,1,0.714,,,,,,physical,1,6,1 | 6,5,0.065,0.05,incongruent,left,0,6,6,40,1,,,,,,,,,,,,,,,,,,,,,,,,,,,,,,,,,,,,,,,,,,,,,,,,,,,,,,,,,,,,,,,,,,,,,,,,,,,,,,,,,,,
,8986,BAC,05/02/2005,001,2023-12-01_13h36.45.896,OS3_Mult_verification,2022.2.4,Win32,59.76571838,,,,,,,,,,,,,,,,,,,,,,,,,,,,,,,,,,,,,,,,,,,,,,,,,,,,,,,,,,,,,,,,,,,,,,right,1,0.5568,,,,,,physical,4,2,4 | 2,2,0.05,0.065,incongruent,right,0,7,7,37,1,,,,,,,,,,,,,,,,,,,,,,,,,,,,,,,,,,,,,,,,,,,,,,,,,,,,,,,,,,,,,,,,,,,,,,,,,,,,,,,,,,,
,8986,BAC,05/02/2005,001,2023-12-01_13h36.45.896,OS3_Mult_verification,2022.2.4,Win32,59.76571838,,,,,,,,,,,,,,,,,,,,,,,,,,,,,,,,,,,,,,,,,,,,,,,,,,,,,,,,,,,,,,,,,,,,,,left,1,0.5422,,,,,,physical,1,3,1 | 3,2,0.065,0.05,incongruent,left,0,8,8,32,1,,,,,,,,,,,,,,,,,,,,,,,,,,,,,,,,,,,,,,,,,,,,,,,,,,,,,,,,,,,,,,,,,,,,,,,,,,,,,,,,,,,
,8986,BAC,05/02/2005,001,2023-12-01_13h36.45.896,OS3_Mult_verification,2022.2.4,Win32,59.76571838,,,,,,,,,,,,,,,,,,,,,,,,,,,,,,,,,,,,,,,,,,,,,,,,,,,,,,,,,,,,,,,,,,,,,,right,1,0.5316,,,,,,physical,7,6,7 | 6,1,0.05,0.065,incongruent,right,0,9,9,30,1,,,,,,,,,,,,,,,,,,,,,,,,,,,,,,,,,,,,,,,,,,,,,,,,,,,,,,,,,,,,,,,,,,,,,,,,,,,,,,,,,,,
,8986,BAC,05/02/2005,001,2023-12-01_13h36.45.896,OS3_Mult_verification,2022.2.4,Win32,59.76571838,,,,,,,,,,,,,,,,,,,,,,,,,,,,,,,,,,,,,,,,,,,,,,,,,,,,,,,,,,,,,,,,,,,,,,right,1,0.5906,,,,,,physical,3,3,3 | 3,0,0.05,0.065,neutral,right,0,10,10,60,1,,,,,,,,,,,,,,,,,,,,,,,,,,,,,,,,,,,,,,,,,,,,,,,,,,,,,,,,,,,,,,,,,,,,,,,,,,,,,,,,,,,
,8986,BAC,05/02/2005,001,2023-12-01_13h36.45.896,OS3_Mult_verification,2022.2.4,Win32,59.76571838,,,,,,,,,,,,,,,,,,,,,,,,,,,,,,,,,,,,,,,,,,,,,,,,,,,,,,,,,,,,,,,,,,,,,,right,1,0.6338,,,,,,physical,8,9,8 | 9,1,0.05,0.065,congruent,right,0,11,11,3,1,,,,,,,,,,,,,,,,,,,,,,,,,,,,,,,,,,,,,,,,,,,,,,,,,,,,,,,,,,,,,,,,,,,,,,,,,,,,,,,,,,,
,8986,BAC,05/02/2005,001,2023-12-01_13h36.45.896,OS3_Mult_verification,2022.2.4,Win32,59.76571838,,,,,,,,,,,,,,,,,,,,,,,,,,,,,,,,,,,,,,,,,,,,,,,,,,,,,,,,,,,,,,,,,,,,,,right,1,0.5885,,,,,,physical,7,2,7 | 2,5,0.05,0.065,incongruent,right,0,12,12,45,1,,,,,,,,,,,,,,,,,,,,,,,,,,,,,,,,,,,,,,,,,,,,,,,,,,,,,,,,,,,,,,,,,,,,,,,,,,,,,,,,,,,
,8986,BAC,05/02/2005,001,2023-12-01_13h36.45.896,OS3_Mult_verification,2022.2.4,Win32,59.76571838,,,,,,,,,,,,,,,,,,,,,,,,,,,,,,,,,,,,,,,,,,,,,,,,,,,,,,,,,,,,,,,,,,,,,,right,1,0.6418,,,,,,physical,1,1,1 | 1,0,0.05,0.065,neutral,right,0,13,13,56,1,,,,,,,,,,,,,,,,,,,,,,,,,,,,,,,,,,,,,,,,,,,,,,,,,,,,,,,,,,,,,,,,,,,,,,,,,,,,,,,,,,,
,8986,BAC,05/02/2005,001,2023-12-01_13h36.45.896,OS3_Mult_verification,2022.2.4,Win32,59.76571838,,,,,,,,,,,,,,,,,,,,,,,,,,,,,,,,,,,,,,,,,,,,,,,,,,,,,,,,,,,,,,,,,,,,,,left,1,0.5068,,,,,,physical,1,2,1 | 2,1,0.065,0.05,incongruent,left,0,14,14,24,1,,,,,,,,,,,,,,,,,,,,,,,,,,,,,,,,,,,,,,,,,,,,,,,,,,,,,,,,,,,,,,,,,,,,,,,,,,,,,,,,,,,
,8986,BAC,05/02/2005,001,2023-12-01_13h36.45.896,OS3_Mult_verification,2022.2.4,Win32,59.76571838,,,,,,,,,,,,,,,,,,,,,,,,,,,,,,,,,,,,,,,,,,,,,,,,,,,,,,,,,,,,,,,,,,,,,,right,1,0.542,,,,,,physical,6,7,6 | 7,1,0.05,0.065,congruent,right,0,15,15,2,1,,,,,,,,,,,,,,,,,,,,,,,,,,,,,,,,,,,,,,,,,,,,,,,,,,,,,,,,,,,,,,,,,,,,,,,,,,,,,,,,,,,
,8986,BAC,05/02/2005,001,2023-12-01_13h36.45.896,OS3_Mult_verification,2022.2.4,Win32,59.76571838,,,,,,,,,,,,,,,,,,,,,,,,,,,,,,,,,,,,,,,,,,,,,,,,,,,,,,,,,,,,,,,,,,,,,,right,1,0.5569,,,,,,physical,9,9,9 | 9,0,0.05,0.065,neutral,right,0,16,16,71,1,,,,,,,,,,,,,,,,,,,,,,,,,,,,,,,,,,,,,,,,,,,,,,,,,,,,,,,,,,,,,,,,,,,,,,,,,,,,,,,,,,,
,8986,BAC,05/02/2005,001,2023-12-01_13h36.45.896,OS3_Mult_verification,2022.2.4,Win32,59.76571838,,,,,,,,,,,,,,,,,,,,,,,,,,,,,,,,,,,,,,,,,,,,,,,,,,,,,,,,,,,,,,,,,,,,,,left,1,0.5551,,,,,,physical,4,9,4 | 9,5,0.065,0.05,incongruent,left,0,17,17,43,1,,,,,,,,,,,,,,,,,,,,,,,,,,,,,,,,,,,,,,,,,,,,,,,,,,,,,,,,,,,,,,,,,,,,,,,,,,,,,,,,,,,
,8986,BAC,05/02/2005,001,2023-12-01_13h36.45.896,OS3_Mult_verification,2022.2.4,Win32,59.76571838,,,,,,,,,,,,,,,,,,,,,,,,,,,,,,,,,,,,,,,,,,,,,,,,,,,,,,,,,,,,,,,,,,,,,,right,1,0.5649,,,,,,physical,7,9,7 | 9,2,0.05,0.065,congruent,right,0,18,18,11,1,,,,,,,,,,,,,,,,,,,,,,,,,,,,,,,,,,,,,,,,,,,,,,,,,,,,,,,,,,,,,,,,,,,,,,,,,,,,,,,,,,,
,8986,BAC,05/02/2005,001,2023-12-01_13h36.45.896,OS3_Mult_verification,2022.2.4,Win32,59.76571838,,,,,,,,,,,,,,,,,,,,,,,,,,,,,,,,,,,,,,,,,,,,,,,,,,,,,,,,,,,,,,,,,,,,,,right,1,0.6108,,,,,,physical,4,3,4 | 3,1,0.05,0.065,incongruent,right,0,19,19,29,1,,,,,,,,,,,,,,,,,,,,,,,,,,,,,,,,,,,,,,,,,,,,,,,,,,,,,,,,,,,,,,,,,,,,,,,,,,,,,,,,,,,
,8986,BAC,05/02/2005,001,2023-12-01_13h36.45.896,OS3_Mult_verification,2022.2.4,Win32,59.76571838,,,,,,,,,,,,,,,,,,,,,,,,,,,,,,,,,,,,,,,,,,,,,,,,,,,,,,,,,,,,,,,,,,,,,,left,1,0.5318,,,,,,physical,3,4,3 | 4,1,0.065,0.05,incongruent,left,0,20,20,25,1,,,,,,,,,,,,,,,,,,,,,,,,,,,,,,,,,,,,,,,,,,,,,,,,,,,,,,,,,,,,,,,,,,,,,,,,,,,,,,,,,,,
,8986,BAC,05/02/2005,001,2023-12-01_13h36.45.896,OS3_Mult_verification,2022.2.4,Win32,59.76571838,,,,,,,,,,,,,,,,,,,,,,,,,,,,,,,,,,,,,,,,,,,,,,,,,,,,,,,,,,,,,,,,,,,,,,left,1,0.5743,,,,,,physical,1,1,1 | 1,0,0.065,0.05,neutral,left,0,21,21,48,1,,,,,,,,,,,,,,,,,,,,,,,,,,,,,,,,,,,,,,,,,,,,,,,,,,,,,,,,,,,,,,,,,,,,,,,,,,,,,,,,,,,
,8986,BAC,05/02/2005,001,2023-12-01_13h36.45.896,OS3_Mult_verification,2022.2.4,Win32,59.76571838,,,,,,,,,,,,,,,,,,,,,,,,,,,,,,,,,,,,,,,,,,,,,,,,,,,,,,,,,,,,,,,,,,,,,,right,1,0.5783,,,,,,physical,8,6,8 | 6,2,0.05,0.065,incongruent,right,0,22,22,38,1,,,,,,,,,,,,,,,,,,,,,,,,,,,,,,,,,,,,,,,,,,,,,,,,,,,,,,,,,,,,,,,,,,,,,,,,,,,,,,,,,,,
,8986,BAC,05/02/2005,001,2023-12-01_13h36.45.896,OS3_Mult_verification,2022.2.4,Win32,59.76571838,,,,,,,,,,,,,,,,,,,,,,,,,,,,,,,,,,,,,,,,,,,,,,,,,,,,,,,,,,,,,,,,,,,,,,right,1,0.5599,,,,,,physical,9,9,9 | 9,0,0.05,0.065,neutral,right,0,23,23,63,1,,,,,,,,,,,,,,,,,,,,,,,,,,,,,,,,,,,,,,,,,,,,,,,,,,,,,,,,,,,,,,,,,,,,,,,,,,,,,,,,,,,
,8986,BAC,05/02/2005,001,2023-12-01_13h36.45.896,OS3_Mult_verification,2022.2.4,Win32,59.76571838,,,,,,,,,,,,,,,,,,,,,,,,,,,,,,,,,,,,,,,,,,,,,,,,,,,,,,,,,,,,,,,,,,,,,,left,1,0.5244,,,,,,physical,2,1,2 | 1,1,0.065,0.05,congruent,left,0,24,24,4,1,,,,,,,,,,,,,,,,,,,,,,,,,,,,,,,,,,,,,,,,,,,,,,,,,,,,,,,,,,,,,,,,,,,,,,,,,,,,,,,,,,,
,8986,BAC,05/02/2005,001,2023-12-01_13h36.45.896,OS3_Mult_verification,2022.2.4,Win32,59.76571838,,,,,,,,,,,,,,,,,,,,,,,,,,,,,,,,,,,,,,,,,,,,,,,,,,,,,,,,,,,,,,,,,,,,,,left,1,0.6121,,,,,,physical,8,9,8 | 9,1,0.065,0.05,incongruent,left,0,25,25,27,1,,,,,,,,,,,,,,,,,,,,,,,,,,,,,,,,,,,,,,,,,,,,,,,,,,,,,,,,,,,,,,,,,,,,,,,,,,,,,,,,,,,
,8986,BAC,05/02/2005,001,2023-12-01_13h36.45.896,OS3_Mult_verification,2022.2.4,Win32,59.76571838,,,,,,,,,,,,,,,,,,,,,,,,,,,,,,,,,,,,,,,,,,,,,,,,,,,,,,,,,,,,,,,,,,,,,,right,1,0.5232,,,,,,physical,1,2,1 | 2,1,0.05,0.065,congruent,right,0,26,26,0,1,,,,,,,,,,,,,,,,,,,,,,,,,,,,,,,,,,,,,,,,,,,,,,,,,,,,,,,,,,,,,,,,,,,,,,,,,,,,,,,,,,,
,8986,BAC,05/02/2005,001,2023-12-01_13h36.45.896,OS3_Mult_verification,2022.2.4,Win32,59.76571838,,,,,,,,,,,,,,,,,,,,,,,,,,,,,,,,,,,,,,,,,,,,,,,,,,,,,,,,,,,,,,,,,,,,,,left,1,0.4399,,,,,,physical,8,3,8 | 3,5,0.065,0.05,congruent,left,0,27,27,22,1,,,,,,,,,,,,,,,,,,,,,,,,,,,,,,,,,,,,,,,,,,,,,,,,,,,,,,,,,,,,,,,,,,,,,,,,,,,,,,,,,,,
,8986,BAC,05/02/2005,001,2023-12-01_13h36.45.896,OS3_Mult_verification,2022.2.4,Win32,59.76571838,,,,,,,,,,,,,,,,,,,,,,,,,,,,,,,,,,,,,,,,,,,,,,,,,,,,,,,,,,,,,,,,,,,,,,left,1,0.6709,,,,,,physical,6,8,6 | 8,2,0.065,0.05,incongruent,left,0,28,28,34,1,,,,,,,,,,,,,,,,,,,,,,,,,,,,,,,,,,,,,,,,,,,,,,,,,,,,,,,,,,,,,,,,,,,,,,,,,,,,,,,,,,,
,8986,BAC,05/02/2005,001,2023-12-01_13h36.45.896,OS3_Mult_verification,2022.2.4,Win32,59.76571838,,,,,,,,,,,,,,,,,,,,,,,,,,,,,,,,,,,,,,,,,,,,,,,,,,,,,,,,,,,,,,,,,,,,,,right,1,0.5159,,,,,,physical,2,7,2 | 7,5,0.05,0.065,congruent,right,0,29,29,17,1,,,,,,,,,,,,,,,,,,,,,,,,,,,,,,,,,,,,,,,,,,,,,,,,,,,,,,,,,,,,,,,,,,,,,,,,,,,,,,,,,,,
,8986,BAC,05/02/2005,001,2023-12-01_13h36.45.896,OS3_Mult_verification,2022.2.4,Win32,59.76571838,,,,,,,,,,,,,,,,,,,,,,,,,,,,,,,,,,,,,,,,,,,,,,,,,,,,,,,,,,,,,,,,,,,,,,left,1,0.459,,,,,,physical,7,2,7 | 2,5,0.065,0.05,congruent,left,0,30,30,21,1,,,,,,,,,,,,,,,,,,,,,,,,,,,,,,,,,,,,,,,,,,,,,,,,,,,,,,,,,,,,,,,,,,,,,,,,,,,,,,,,,,,
,8986,BAC,05/02/2005,001,2023-12-01_13h36.45.896,OS3_Mult_verification,2022.2.4,Win32,59.76571838,,,,,,,,,,,,,,,,,,,,,,,,,,,,,,,,,,,,,,,,,,,,,,,,,,,,,,,,,,,,,,,,,,,,,,right,1,0.5401,,,,,,physical,9,4,9 | 4,5,0.05,0.065,incongruent,right,0,31,31,47,1,,,,,,,,,,,,,,,,,,,,,,,,,,,,,,,,,,,,,,,,,,,,,,,,,,,,,,,,,,,,,,,,,,,,,,,,,,,,,,,,,,,
,8986,BAC,05/02/2005,001,2023-12-01_13h36.45.896,OS3_Mult_verification,2022.2.4,Win32,59.76571838,,,,,,,,,,,,,,,,,,,,,,,,,,,,,,,,,,,,,,,,,,,,,,,,,,,,,,,,,,,,,,,,,,,,,,left,1,0.4222,,,,,,physical,3,1,3 | 1,2,0.065,0.05,congruent,left,0,32,32,12,1,,,,,,,,,,,,,,,,,,,,,,,,,,,,,,,,,,,,,,,,,,,,,,,,,,,,,,,,,,,,,,,,,,,,,,,,,,,,,,,,,,,
,8986,BAC,05/02/2005,001,2023-12-01_13h36.45.896,OS3_Mult_verification,2022.2.4,Win32,59.76571838,,,,,,,,,,,,,,,,,,,,,,,,,,,,,,,,,,,,,,,,,,,,,,,,,,,,,,,,,,,,,,,,,,,,,,right,1,0.4247,,,,,,physical,6,8,6 | 8,2,0.05,0.065,congruent,right,0,33,33,10,1,,,,,,,,,,,,,,,,,,,,,,,,,,,,,,,,,,,,,,,,,,,,,,,,,,,,,,,,,,,,,,,,,,,,,,,,,,,,,,,,,,,
,8986,BAC,05/02/2005,001,2023-12-01_13h36.45.896,OS3_Mult_verification,2022.2.4,Win32,59.76571838,,,,,,,,,,,,,,,,,,,,,,,,,,,,,,,,,,,,,,,,,,,,,,,,,,,,,,,,,,,,,,,,,,,,,,left,1,0.3782,,,,,,physical,3,3,3 | 3,0,0.065,0.05,neutral,left,0,34,34,49,1,,,,,,,,,,,,,,,,,,,,,,,,,,,,,,,,,,,,,,,,,,,,,,,,,,,,,,,,,,,,,,,,,,,,,,,,,,,,,,,,,,,
,8986,BAC,05/02/2005,001,2023-12-01_13h36.45.896,OS3_Mult_verification,2022.2.4,Win32,59.76571838,,,,,,,,,,,,,,,,,,,,,,,,,,,,,,,,,,,,,,,,,,,,,,,,,,,,,,,,,,,,,,,,,,,,,,left,1,0.4744,,,,,,physical,9,4,9 | 4,5,0.065,0.05,congruent,left,0,35,35,23,1,,,,,,,,,,,,,,,,,,,,,,,,,,,,,,,,,,,,,,,,,,,,,,,,,,,,,,,,,,,,,,,,,,,,,,,,,,,,,,,,,,,
,8986,BAC,05/02/2005,001,2023-12-01_13h36.45.896,OS3_Mult_verification,2022.2.4,Win32,59.76571838,,,,,,,,,,,,,,,,,,,,,,,,,,,,,,,,,,,,,,,,,,,,,,,,,,,,,,,,,,,,,,,,,,,,,,right,1,0.4232,,,,,,physical,3,4,3 | 4,1,0.05,0.065,congruent,right,0,36,36,1,1,,,,,,,,,,,,,,,,,,,,,,,,,,,,,,,,,,,,,,,,,,,,,,,,,,,,,,,,,,,,,,,,,,,,,,,,,,,,,,,,,,,
,8986,BAC,05/02/2005,001,2023-12-01_13h36.45.896,OS3_Mult_verification,2022.2.4,Win32,59.76571838,,,,,,,,,,,,,,,,,,,,,,,,,,,,,,,,,,,,,,,,,,,,,,,,,,,,,,,,,,,,,,,,,,,,,,right,1,0.5519,,,,,,physical,3,1,3 | 1,2,0.05,0.065,incongruent,right,0,37,37,36,1,,,,,,,,,,,,,,,,,,,,,,,,,,,,,,,,,,,,,,,,,,,,,,,,,,,,,,,,,,,,,,,,,,,,,,,,,,,,,,,,,,,
,8986,BAC,05/02/2005,001,2023-12-01_13h36.45.896,OS3_Mult_verification,2022.2.4,Win32,59.76571838,,,,,,,,,,,,,,,,,,,,,,,,,,,,,,,,,,,,,,,,,,,,,,,,,,,,,,,,,,,,,,,,,,,,,,right,1,0.5401,,,,,,physical,9,7,9 | 7,2,0.05,0.065,incongruent,right,0,38,38,39,1,,,,,,,,,,,,,,,,,,,,,,,,,,,,,,,,,,,,,,,,,,,,,,,,,,,,,,,,,,,,,,,,,,,,,,,,,,,,,,,,,,,
,8986,BAC,05/02/2005,001,2023-12-01_13h36.45.896,OS3_Mult_verification,2022.2.4,Win32,59.76571838,,,,,,,,,,,,,,,,,,,,,,,,,,,,,,,,,,,,,,,,,,,,,,,,,,,,,,,,,,,,,,,,,,,,,,right,1,0.5648,,,,,,physical,2,2,2 | 2,0,0.05,0.065,neutral,right,0,39,39,65,1,,,,,,,,,,,,,,,,,,,,,,,,,,,,,,,,,,,,,,,,,,,,,,,,,,,,,,,,,,,,,,,,,,,,,,,,,,,,,,,,,,,
,8986,BAC,05/02/2005,001,2023-12-01_13h36.45.896,OS3_Mult_verification,2022.2.4,Win32,59.76571838,,,,,,,,,,,,,,,,,,,,,,,,,,,,,,,,,,,,,,,,,,,,,,,,,,,,,,,,,,,,,,,,,,,,,,left,1,0.4151,,,,,,physical,6,1,6 | 1,5,0.065,0.05,congruent,left,0,40,40,20,1,,,,,,,,,,,,,,,,,,,,,,,,,,,,,,,,,,,,,,,,,,,,,,,,,,,,,,,,,,,,,,,,,,,,,,,,,,,,,,,,,,,
,8986,BAC,05/02/2005,001,2023-12-01_13h36.45.896,OS3_Mult_verification,2022.2.4,Win32,59.76571838,,,,,,,,,,,,,,,,,,,,,,,,,,,,,,,,,,,,,,,,,,,,,,,,,,,,,,,,,,,,,,,,,,,,,,right,1,0.4753,,,,,,physical,4,9,4 | 9,5,0.05,0.065,congruent,right,0,41,41,19,1,,,,,,,,,,,,,,,,,,,,,,,,,,,,,,,,,,,,,,,,,,,,,,,,,,,,,,,,,,,,,,,,,,,,,,,,,,,,,,,,,,,
,8986,BAC,05/02/2005,001,2023-12-01_13h36.45.896,OS3_Mult_verification,2022.2.4,Win32,59.76571838,,,,,,,,,,,,,,,,,,,,,,,,,,,,,,,,,,,,,,,,,,,,,,,,,,,,,,,,,,,,,,,,,,,,,,left,1,0.4196,,,,,,physical,7,6,7 | 6,1,0.065,0.05,congruent,left,0,42,42,6,1,,,,,,,,,,,,,,,,,,,,,,,,,,,,,,,,,,,,,,,,,,,,,,,,,,,,,,,,,,,,,,,,,,,,,,,,,,,,,,,,,,,
,8986,BAC,05/02/2005,001,2023-12-01_13h36.45.896,OS3_Mult_verification,2022.2.4,Win32,59.76571838,,,,,,,,,,,,,,,,,,,,,,,,,,,,,,,,,,,,,,,,,,,,,,,,,,,,,,,,,,,,,,,,,,,,,,left,1,0.5178,,,,,,physical,4,4,4 | 4,0,0.065,0.05,neutral,left,0,43,43,53,1,,,,,,,,,,,,,,,,,,,,,,,,,,,,,,,,,,,,,,,,,,,,,,,,,,,,,,,,,,,,,,,,,,,,,,,,,,,,,,,,,,,
,8986,BAC,05/02/2005,001,2023-12-01_13h36.45.896,OS3_Mult_verification,2022.2.4,Win32,59.76571838,,,,,,,,,,,,,,,,,,,,,,,,,,,,,,,,,,,,,,,,,,,,,,,,,,,,,,,,,,,,,,,,,,,,,,right,1,0.4234,,,,,,physical,1,6,1 | 6,5,0.05,0.065,congruent,right,0,44,44,16,1,,,,,,,,,,,,,,,,,,,,,,,,,,,,,,,,,,,,,,,,,,,,,,,,,,,,,,,,,,,,,,,,,,,,,,,,,,,,,,,,,,,
,8986,BAC,05/02/2005,001,2023-12-01_13h36.45.896,OS3_Mult_verification,2022.2.4,Win32,59.76571838,,,,,,,,,,,,,,,,,,,,,,,,,,,,,,,,,,,,,,,,,,,,,,,,,,,,,,,,,,,,,,,,,,,,,,left,1,0.4628,,,,,,physical,6,6,6 | 6,0,0.065,0.05,neutral,left,0,45,45,50,1,,,,,,,,,,,,,,,,,,,,,,,,,,,,,,,,,,,,,,,,,,,,,,,,,,,,,,,,,,,,,,,,,,,,,,,,,,,,,,,,,,,
,8986,BAC,05/02/2005,001,2023-12-01_13h36.45.896,OS3_Mult_verification,2022.2.4,Win32,59.76571838,,,,,,,,,,,,,,,,,,,,,,,,,,,,,,,,,,,,,,,,,,,,,,,,,,,,,,,,,,,,,,,,,,,,,,right,1,0.4642,,,,,,physical,2,2,2 | 2,0,0.05,0.065,neutral,right,0,46,46,57,1,,,,,,,,,,,,,,,,,,,,,,,,,,,,,,,,,,,,,,,,,,,,,,,,,,,,,,,,,,,,,,,,,,,,,,,,,,,,,,,,,,,
,8986,BAC,05/02/2005,001,2023-12-01_13h36.45.896,OS3_Mult_verification,2022.2.4,Win32,59.76571838,,,,,,,,,,,,,,,,,,,,,,,,,,,,,,,,,,,,,,,,,,,,,,,,,,,,,,,,,,,,,,,,,,,,,,right,1,0.5257,,,,,,physical,8,3,8 | 3,5,0.05,0.065,incongruent,right,0,47,47,46,1,,,,,,,,,,,,,,,,,,,,,,,,,,,,,,,,,,,,,,,,,,,,,,,,,,,,,,,,,,,,,,,,,,,,,,,,,,,,,,,,,,,
,8986,BAC,05/02/2005,001,2023-12-01_13h36.45.896,OS3_Mult_verification,2022.2.4,Win32,59.76571838,,,,,,,,,,,,,,,,,,,,,,,,,,,,,,,,,,,,,,,,,,,,,,,,,,,,,,,,,,,,,,,,,,,,,,left,1,0.4618,,,,,,physical,2,4,2 | 4,2,0.065,0.05,incongruent,left,0,48,48,33,1,,,,,,,,,,,,,,,,,,,,,,,,,,,,,,,,,,,,,,,,,,,,,,,,,,,,,,,,,,,,,,,,,,,,,,,,,,,,,,,,,,,
,8986,BAC,05/02/2005,001,2023-12-01_13h36.45.896,OS3_Mult_verification,2022.2.4,Win32,59.76571838,,,,,,,,,,,,,,,,,,,,,,,,,,,,,,,,,,,,,,,,,,,,,,,,,,,,,,,,,,,,,,,,,,,,,,right,1,0.4656,,,,,,physical,8,8,8 | 8,0,0.05,0.065,neutral,right,0,49,49,62,1,,,,,,,,,,,,,,,,,,,,,,,,,,,,,,,,,,,,,,,,,,,,,,,,,,,,,,,,,,,,,,,,,,,,,,,,,,,,,,,,,,,
,8986,BAC,05/02/2005,001,2023-12-01_13h36.45.896,OS3_Mult_verification,2022.2.4,Win32,59.76571838,,,,,,,,,,,,,,,,,,,,,,,,,,,,,,,,,,,,,,,,,,,,,,,,,,,,,,,,,,,,,,,,,,,,,,left,1,0.4758,,,,,,physical,3,8,3 | 8,5,0.065,0.05,incongruent,left,0,50,50,42,1,,,,,,,,,,,,,,,,,,,,,,,,,,,,,,,,,,,,,,,,,,,,,,,,,,,,,,,,,,,,,,,,,,,,,,,,,,,,,,,,,,,
,8986,BAC,05/02/2005,001,2023-12-01_13h36.45.896,OS3_Mult_verification,2022.2.4,Win32,59.76571838,,,,,,,,,,,,,,,,,,,,,,,,,,,,,,,,,,,,,,,,,,,,,,,,,,,,,,,,,,,,,,,,,,,,,,left,1,0.445,,,,,,physical,2,2,2 | 2,0,0.065,0.05,neutral,left,0,51,51,52,1,,,,,,,,,,,,,,,,,,,,,,,,,,,,,,,,,,,,,,,,,,,,,,,,,,,,,,,,,,,,,,,,,,,,,,,,,,,,,,,,,,,
,8986,BAC,05/02/2005,001,2023-12-01_13h36.45.896,OS3_Mult_verification,2022.2.4,Win32,59.76571838,,,,,,,,,,,,,,,,,,,,,,,,,,,,,,,,,,,,,,,,,,,,,,,,,,,,,,,,,,,,,,,,,,,,,,left,1,0.4731,,,,,,physical,7,9,7 | 9,2,0.065,0.05,incongruent,left,0,52,52,35,1,,,,,,,,,,,,,,,,,,,,,,,,,,,,,,,,,,,,,,,,,,,,,,,,,,,,,,,,,,,,,,,,,,,,,,,,,,,,,,,,,,,
,8986,BAC,05/02/2005,001,2023-12-01_13h36.45.896,OS3_Mult_verification,2022.2.4,Win32,59.76571838,,,,,,,,,,,,,,,,,,,,,,,,,,,,,,,,,,,,,,,,,,,,,,,,,,,,,,,,,,,,,,,,,,,,,,left,1,0.5924,,,,,,physical,1,1,1 | 1,0,0.065,0.05,neutral,left,0,53,53,64,1,,,,,,,,,,,,,,,,,,,,,,,,,,,,,,,,,,,,,,,,,,,,,,,,,,,,,,,,,,,,,,,,,,,,,,,,,,,,,,,,,,,
