windowSize,participant,group,DOB (DD/MM/YEAR),session,date,expName,psychopyVersion,OS,frameRate,typing_instr_resp.keys,typing_instr_resp.rt,typing_response,typing_rt,typing_score,typingSpeed_input_resp.keys,typingSpeed_input_resp.rt,typing_speed_trials.thisRepN,typing_speed_trials.thisTrialN,typing_speed_trials.thisN,typing_speed_trials.thisIndex,typing_speed_trials.ran,typing_speed_stim,typing_report_resp.keys,typing_report_resp.rt,vpt_trial_resp1.keys,vpt_trial_resp1.rt,typedResponse,fluency_rt,fluency_score,fluencyInputResp.keys,fluencyInputResp.rt,fluencyPracLoop.thisRepN,fluencyPracLoop.thisTrialN,fluencyPracLoop.thisN,fluencyPracLoop.thisIndex,fluencyPracLoop.ran,problem,answers,fluencyLoop.thisRepN,fluencyLoop.thisTrialN,fluencyLoop.thisN,fluencyLoop.thisIndex,fluencyLoop.ran,vptCorrect,vpt_rt,respMouse.x,respMouse.y,respMouse.leftButton,respMouse.midButton,respMouse.rightButton,vptPracticeLoop.thisRepN,vptPracticeLoop.thisTrialN,vptPracticeLoop.thisN,vptPracticeLoop.thisIndex,vptPracticeLoop.ran,trialType,tiles,rows,cols,vptTrialLoop.thisRepN,vptTrialLoop.thisTrialN,vptTrialLoop.thisN,vptTrialLoop.thisIndex,vptTrialLoop.ran,noOfBlocks,TASK_B.thisRepN,TASK_B.thisTrialN,TASK_B.thisN,TASK_B.thisIndex,TASK_B.ran,controlTaskOrder.thisRepN,controlTaskOrder.thisTrialN,controlTaskOrder.thisN,controlTaskOrder.thisIndex,controlTaskOrder.ran,nRepsTask1,nRepsTask2,nRepsTask3,stroopResp.keys,stroopResp.corr,stroopResp.rt,stroopPracLoop.thisRepN,stroopPracLoop.thisTrialN,stroopPracLoop.thisN,stroopPracLoop.thisIndex,stroopPracLoop.ran,stroopCond,leftNo,rightNo,displayProblem,numDistance,leftNo_size,rightNo_size,Dims,keyAnswer,stroopLoop.thisRepN,stroopLoop.thisTrialN,stroopLoop.thisN,stroopLoop.thisIndex,stroopLoop.ran,stroopBlocks.thisRepN,stroopBlocks.thisTrialN,stroopBlocks.thisN,stroopBlocks.thisIndex,stroopBlocks.ran,stroop_condition,stroop_pracFile,ActionInst,instrImage,TASK_A.thisRepN,TASK_A.thisTrialN,TASK_A.thisN,TASK_A.thisIndex,TASK_A.ran,sampleAudio_resp.keys,sampleAudio_resp.rt,subjResponse,audio_rt,DS_score,inputResp.keys,inputResp.rt,audioPracticeLoop.thisRepN,audioPracticeLoop.thisTrialN,audioPracticeLoop.thisN,audioPracticeLoop.thisIndex,audioPracticeLoop.ran,digitSpan,digits_audioStim,soundsFile,typeDS,audioTrials_Loop.thisRepN,audioTrials_Loop.thisTrialN,audioTrials_Loop.thisN,audioTrials_Loop.thisIndex,audioTrials_Loop.ran,audioBlocks_loop.thisRepN,audioBlocks_loop.thisTrialN,audioBlocks_loop.thisN,audioBlocks_loop.thisIndex,audioBlocks_loop.ran,ConditionFile,digitSpanTask_loop.thisRepN,digitSpanTask_loop.thisTrialN,digitSpanTask_loop.thisN,digitSpanTask_loop.thisIndex,digitSpanTask_loop.ran,dsFile,TASK_C.thisRepN,TASK_C.thisTrialN,TASK_C.thisN,TASK_C.thisIndex,TASK_C.ran,veriStim_resp.keys,veriStim_resp.corr,veriStim_resp.rt,verificationPracLoop.thisRepN,verificationPracLoop.thisTrialN,verificationPracLoop.thisN,verificationPracLoop.thisIndex,verificationPracLoop.ran,mult_problem,mult_answer,mult_type,error_distance,interferenceScore,problemType,interferenceLevel,problemSize,img_leftButton,img_rightButton,veriLoop.thisRepN,veriLoop.thisTrialN,veriLoop.thisN,veriLoop.thisIndex,veriLoop.ran,veriBlock.thisRepN,veriBlock.thisTrialN,veriBlock.thisN,veriBlock.thisIndex,veriBlock.ran,verificationFiles,end_resp.keys,end_resp.rt
"[1280,800]",8761,BAC,1/12/2004,001,2023-12-17_14h34.07.202,OS3_Mult_verification,2022.2.4,MacIntel,62.5,,,,,,,,,,,,,,,,,,,,,,,,,,,,,,,,,,,,,,,,,,,,,,,,,,,,,,,,,,,,,,,,,,,,,,,,,,,,,,,,,,,,,,,,,,,,,,,,,,,,,,,,,,,,,,,,,,,,,,,,,,,,,,,,,,,,,,,,,,,,,,,,,,,,,,,,,,,,,,,,,,,,,,,,,,,,,,
,8761,BAC,1/12/2004,001,2023-12-17_14h34.07.202,OS3_Mult_verification,2022.2.4,MacIntel,62.5,,,,,,,,,,,,,,,,,,,,,,,,,,,,,,,,,,,,,,,,,,,,,,,,,,,,,,,,,,,,,,,,,,,,,,,,,,,,,,,,,,,,,,,,,,,,,,,,,,,,,,,,,,,,,,,,,,,,,,,,,,,,,,,,,,,,,,,,,,,,,,,,,,,,,,,,,,,,,,,,,,,,,,,,,,,,,,
,8761,BAC,1/12/2004,001,2023-12-17_14h34.07.202,OS3_Mult_verification,2022.2.4,MacIntel,62.5,space,8.011,,,,,,,,,,,,,,,,,,,,,,,,,,,,,,,,,,,,,,,,,,,,,,,,,,,,,,,,,,,,,,,,,,,,,,,,,,,,,,,,,,,,,,,,,,,,,,,,,,,,,,,,,,,,,,,,,,,,,,,,,,,,,,,,,,,,,,,,,,,,,,,,,,,,,,,,,,,,,,,,,,,,,,,,,,,,
,8761,BAC,1/12/2004,001,2023-12-17_14h34.07.202,OS3_Mult_verification,2022.2.4,MacIntel,62.5,,,30,2.115,1,"[""3"",""0"",""return""]","[1.242999999999995,1.3119999999999976,2.0799999999999983]",0,0,0,16,1,30,,,,,,,,,,,,,,,,,,,,,,,,,,,,,,,,,,,,,,,,,,,,,,,,,,,,,,,,,,,,,,,,,,,,,,,,,,,,,,,,,,,,,,,,,,,,,,,,,,,,,,,,,,,,,,,,,,,,,,,,,,,,,,,,,,,,,,,,,,,,,,,,,,,,,,,,,,,,,,,,,
,8761,BAC,1/12/2004,001,2023-12-17_14h34.07.202,OS3_Mult_verification,2022.2.4,MacIntel,62.5,,,36,1.817,1,"[""3"",""6"",""return""]","[0.9660000000000082,1.3840000000000003,1.7800000000000011]",0,1,1,19,1,36,,,,,,,,,,,,,,,,,,,,,,,,,,,,,,,,,,,,,,,,,,,,,,,,,,,,,,,,,,,,,,,,,,,,,,,,,,,,,,,,,,,,,,,,,,,,,,,,,,,,,,,,,,,,,,,,,,,,,,,,,,,,,,,,,,,,,,,,,,,,,,,,,,,,,,,,,,,,,,,,,
,8761,BAC,1/12/2004,001,2023-12-17_14h34.07.202,OS3_Mult_verification,2022.2.4,MacIntel,62.5,,,4,1.216,1,"[""4"",""return""]","[0.9639999999999986,1.1799999999999926]",0,2,2,0,1,4,,,,,,,,,,,,,,,,,,,,,,,,,,,,,,,,,,,,,,,,,,,,,,,,,,,,,,,,,,,,,,,,,,,,,,,,,,,,,,,,,,,,,,,,,,,,,,,,,,,,,,,,,,,,,,,,,,,,,,,,,,,,,,,,,,,,,,,,,,,,,,,,,,,,,,,,,,,,,,,,,
,8761,BAC,1/12/2004,001,2023-12-17_14h34.07.202,OS3_Mult_verification,2022.2.4,MacIntel,62.5,,,9,1.315,1,"[""9"",""return""]","[0.929000000000002,1.281000000000006]",0,3,3,3,1,9,,,,,,,,,,,,,,,,,,,,,,,,,,,,,,,,,,,,,,,,,,,,,,,,,,,,,,,,,,,,,,,,,,,,,,,,,,,,,,,,,,,,,,,,,,,,,,,,,,,,,,,,,,,,,,,,,,,,,,,,,,,,,,,,,,,,,,,,,,,,,,,,,,,,,,,,,,,,,,,,,
,8761,BAC,1/12/2004,001,2023-12-17_14h34.07.202,OS3_Mult_verification,2022.2.4,MacIntel,62.5,,,81,1.716,1,"[""8"",""1"",""return""]","[1.3210000000000122,1.4450000000000074,1.6840000000000117]",0,4,4,30,1,81,,,,,,,,,,,,,,,,,,,,,,,,,,,,,,,,,,,,,,,,,,,,,,,,,,,,,,,,,,,,,,,,,,,,,,,,,,,,,,,,,,,,,,,,,,,,,,,,,,,,,,,,,,,,,,,,,,,,,,,,,,,,,,,,,,,,,,,,,,,,,,,,,,,,,,,,,,,,,,,,,
,8761,BAC,1/12/2004,001,2023-12-17_14h34.07.202,OS3_Mult_verification,2022.2.4,MacIntel,62.5,,,72,1.717,1,"[""7"",""2"",""return""]","[1.281000000000006,1.4140000000000157,1.6870000000000118]",0,5,5,29,1,72,,,,,,,,,,,,,,,,,,,,,,,,,,,,,,,,,,,,,,,,,,,,,,,,,,,,,,,,,,,,,,,,,,,,,,,,,,,,,,,,,,,,,,,,,,,,,,,,,,,,,,,,,,,,,,,,,,,,,,,,,,,,,,,,,,,,,,,,,,,,,,,,,,,,,,,,,,,,,,,,,
,8761,BAC,1/12/2004,001,2023-12-17_14h34.07.202,OS3_Mult_verification,2022.2.4,MacIntel,62.5,,,21,1.083,1,"[""2"",""1"",""return""]","[0.8310000000000173,0.896000000000015,1.054000000000002]",0,6,6,11,1,21,,,,,,,,,,,,,,,,,,,,,,,,,,,,,,,,,,,,,,,,,,,,,,,,,,,,,,,,,,,,,,,,,,,,,,,,,,,,,,,,,,,,,,,,,,,,,,,,,,,,,,,,,,,,,,,,,,,,,,,,,,,,,,,,,,,,,,,,,,,,,,,,,,,,,,,,,,,,,,,,,
,8761,BAC,1/12/2004,001,2023-12-17_14h34.07.202,OS3_Mult_verification,2022.2.4,MacIntel,62.5,,,20,1.499,1,"[""2"",""0"",""return""]","[0.7950000000000159,1.004000000000019,1.4699999999999989]",0,7,7,10,1,20,,,,,,,,,,,,,,,,,,,,,,,,,,,,,,,,,,,,,,,,,,,,,,,,,,,,,,,,,,,,,,,,,,,,,,,,,,,,,,,,,,,,,,,,,,,,,,,,,,,,,,,,,,,,,,,,,,,,,,,,,,,,,,,,,,,,,,,,,,,,,,,,,,,,,,,,,,,,,,,,,
,8761,BAC,1/12/2004,001,2023-12-17_14h34.07.202,OS3_Mult_verification,2022.2.4,MacIntel,62.5,,,24,1.3,1,"[""2"",""4"",""return""]","[0.9299999999999784,1.1149999999999807,1.2630000000000052]",0,8,8,12,1,24,,,,,,,,,,,,,,,,,,,,,,,,,,,,,,,,,,,,,,,,,,,,,,,,,,,,,,,,,,,,,,,,,,,,,,,,,,,,,,,,,,,,,,,,,,,,,,,,,,,,,,,,,,,,,,,,,,,,,,,,,,,,,,,,,,,,,,,,,,,,,,,,,,,,,,,,,,,,,,,,,
,8761,BAC,1/12/2004,001,2023-12-17_14h34.07.202,OS3_Mult_verification,2022.2.4,MacIntel,62.5,,,63,2.199,1,"[""6"",""3"",""return""]","[1.8949999999999818,2.0120000000000005,2.1599999999999966]",0,9,9,27,1,63,,,,,,,,,,,,,,,,,,,,,,,,,,,,,,,,,,,,,,,,,,,,,,,,,,,,,,,,,,,,,,,,,,,,,,,,,,,,,,,,,,,,,,,,,,,,,,,,,,,,,,,,,,,,,,,,,,,,,,,,,,,,,,,,,,,,,,,,,,,,,,,,,,,,,,,,,,,,,,,,,
,8761,BAC,1/12/2004,001,2023-12-17_14h34.07.202,OS3_Mult_verification,2022.2.4,MacIntel,62.5,,,45,1.299,1,"[""4"",""5"",""return""]","[1.046999999999997,1.1160000000000139,1.2670000000000243]",0,10,10,22,1,45,,,,,,,,,,,,,,,,,,,,,,,,,,,,,,,,,,,,,,,,,,,,,,,,,,,,,,,,,,,,,,,,,,,,,,,,,,,,,,,,,,,,,,,,,,,,,,,,,,,,,,,,,,,,,,,,,,,,,,,,,,,,,,,,,,,,,,,,,,,,,,,,,,,,,,,,,,,,,,,,,
,8761,BAC,1/12/2004,001,2023-12-17_14h34.07.202,OS3_Mult_verification,2022.2.4,MacIntel,62.5,,,56,1.45,1,"[""5"",""6"",""return""]","[1.1810000000000116,1.2340000000000089,1.4140000000000157]",0,11,11,26,1,56,,,,,,,,,,,,,,,,,,,,,,,,,,,,,,,,,,,,,,,,,,,,,,,,,,,,,,,,,,,,,,,,,,,,,,,,,,,,,,,,,,,,,,,,,,,,,,,,,,,,,,,,,,,,,,,,,,,,,,,,,,,,,,,,,,,,,,,,,,,,,,,,,,,,,,,,,,,,,,,,,
,8761,BAC,1/12/2004,001,2023-12-17_14h34.07.202,OS3_Mult_verification,2022.2.4,MacIntel,62.5,,,28,1.899,1,"[""2"",""8"",""return""]","[1.3789999999999907,1.728999999999985,1.870999999999981]",0,12,12,15,1,28,,,,,,,,,,,,,,,,,,,,,,,,,,,,,,,,,,,,,,,,,,,,,,,,,,,,,,,,,,,,,,,,,,,,,,,,,,,,,,,,,,,,,,,,,,,,,,,,,,,,,,,,,,,,,,,,,,,,,,,,,,,,,,,,,,,,,,,,,,,,,,,,,,,,,,,,,,,,,,,,,
,8761,BAC,1/12/2004,001,2023-12-17_14h34.07.202,OS3_Mult_verification,2022.2.4,MacIntel,62.5,,,14,1.199,1,"[""1"",""4"",""return""]","[0.8799999999999955,1.0159999999999911,1.1620000000000061]",0,13,13,6,1,14,,,,,,,,,,,,,,,,,,,,,,,,,,,,,,,,,,,,,,,,,,,,,,,,,,,,,,,,,,,,,,,,,,,,,,,,,,,,,,,,,,,,,,,,,,,,,,,,,,,,,,,,,,,,,,,,,,,,,,,,,,,,,,,,,,,,,,,,,,,,,,,,,,,,,,,,,,,,,,,,,
,8761,BAC,1/12/2004,001,2023-12-17_14h34.07.202,OS3_Mult_verification,2022.2.4,MacIntel,62.5,,,8,1.233,1,"[""8"",""return""]","[1.1149999999999807,1.195999999999998]",0,14,14,2,1,8,,,,,,,,,,,,,,,,,,,,,,,,,,,,,,,,,,,,,,,,,,,,,,,,,,,,,,,,,,,,,,,,,,,,,,,,,,,,,,,,,,,,,,,,,,,,,,,,,,,,,,,,,,,,,,,,,,,,,,,,,,,,,,,,,,,,,,,,,,,,,,,,,,,,,,,,,,,,,,,,,
,8761,BAC,1/12/2004,001,2023-12-17_14h34.07.202,OS3_Mult_verification,2022.2.4,MacIntel,62.5,,,42,1.567,1,"[""4"",""2"",""return""]","[1.217999999999961,1.3819999999999482,1.5349999999999682]",0,15,15,21,1,42,,,,,,,,,,,,,,,,,,,,,,,,,,,,,,,,,,,,,,,,,,,,,,,,,,,,,,,,,,,,,,,,,,,,,,,,,,,,,,,,,,,,,,,,,,,,,,,,,,,,,,,,,,,,,,,,,,,,,,,,,,,,,,,,,,,,,,,,,,,,,,,,,,,,,,,,,,,,,,,,,
,8761,BAC,1/12/2004,001,2023-12-17_14h34.07.202,OS3_Mult_verification,2022.2.4,MacIntel,62.5,,,48,1.334,1,"[""4"",""8"",""return""]","[0.7810000000000059,1.1830000000000496,1.3029999999999973]",0,16,16,23,1,48,,,,,,,,,,,,,,,,,,,,,,,,,,,,,,,,,,,,,,,,,,,,,,,,,,,,,,,,,,,,,,,,,,,,,,,,,,,,,,,,,,,,,,,,,,,,,,,,,,,,,,,,,,,,,,,,,,,,,,,,,,,,,,,,,,,,,,,,,,,,,,,,,,,,,,,,,,,,,,,,,
,8761,BAC,1/12/2004,001,2023-12-17_14h34.07.202,OS3_Mult_verification,2022.2.4,MacIntel,62.5,,,15,1.316,1,"[""1"",""5"",""return""]","[0.8290000000000077,1.1359999999999957,1.2770000000000152]",0,17,17,7,1,15,,,,,,,,,,,,,,,,,,,,,,,,,,,,,,,,,,,,,,,,,,,,,,,,,,,,,,,,,,,,,,,,,,,,,,,,,,,,,,,,,,,,,,,,,,,,,,,,,,,,,,,,,,,,,,,,,,,,,,,,,,,,,,,,,,,,,,,,,,,,,,,,,,,,,,,,,,,,,,,,,
,8761,BAC,1/12/2004,001,2023-12-17_14h34.07.202,OS3_Mult_verification,2022.2.4,MacIntel,62.5,,,10,1.433,1,"[""1"",""0"",""return""]","[0.7199999999999989,1.2309999999999945,1.3969999999999914]",0,18,18,4,1,10,,,,,,,,,,,,,,,,,,,,,,,,,,,,,,,,,,,,,,,,,,,,,,,,,,,,,,,,,,,,,,,,,,,,,,,,,,,,,,,,,,,,,,,,,,,,,,,,,,,,,,,,,,,,,,,,,,,,,,,,,,,,,,,,,,,,,,,,,,,,,,,,,,,,,,,,,,,,,,,,,
,8761,BAC,1/12/2004,001,2023-12-17_14h34.07.202,OS3_Mult_verification,2022.2.4,MacIntel,62.5,,,35,1.383,1,"[""3"",""5"",""return""]","[0.9550000000000125,1.163000000000011,1.3499999999999943]",0,19,19,18,1,35,,,,,,,,,,,,,,,,,,,,,,,,,,,,,,,,,,,,,,,,,,,,,,,,,,,,,,,,,,,,,,,,,,,,,,,,,,,,,,,,,,,,,,,,,,,,,,,,,,,,,,,,,,,,,,,,,,,,,,,,,,,,,,,,,,,,,,,,,,,,,,,,,,,,,,,,,,,,,,,,,
,8761,BAC,1/12/2004,001,2023-12-17_14h34.07.202,OS3_Mult_verification,2022.2.4,MacIntel,62.5,,,64,1.45,1,"[""6"",""4"",""return""]","[1.1809999999999832,1.282999999999987,1.421999999999997]",0,20,20,28,1,64,,,,,,,,,,,,,,,,,,,,,,,,,,,,,,,,,,,,,,,,,,,,,,,,,,,,,,,,,,,,,,,,,,,,,,,,,,,,,,,,,,,,,,,,,,,,,,,,,,,,,,,,,,,,,,,,,,,,,,,,,,,,,,,,,,,,,,,,,,,,,,,,,,,,,,,,,,,,,,,,,
,8761,BAC,1/12/2004,001,2023-12-17_14h34.07.202,OS3_Mult_verification,2022.2.4,MacIntel,62.5,,,25,1.349,1,"[""2"",""5"",""return""]","[0.945999999999998,1.1620000000000061,1.3170000000000073]",0,21,21,13,1,25,,,,,,,,,,,,,,,,,,,,,,,,,,,,,,,,,,,,,,,,,,,,,,,,,,,,,,,,,,,,,,,,,,,,,,,,,,,,,,,,,,,,,,,,,,,,,,,,,,,,,,,,,,,,,,,,,,,,,,,,,,,,,,,,,,,,,,,,,,,,,,,,,,,,,,,,,,,,,,,,,
,8761,BAC,1/12/2004,001,2023-12-17_14h34.07.202,OS3_Mult_verification,2022.2.4,MacIntel,62.5,,,16,1.6,1,"[""1"",""6"",""return""]","[0.9470000000000027,1.4620000000000175,1.5710000000000264]",0,22,22,8,1,16,,,,,,,,,,,,,,,,,,,,,,,,,,,,,,,,,,,,,,,,,,,,,,,,,,,,,,,,,,,,,,,,,,,,,,,,,,,,,,,,,,,,,,,,,,,,,,,,,,,,,,,,,,,,,,,,,,,,,,,,,,,,,,,,,,,,,,,,,,,,,,,,,,,,,,,,,,,,,,,,,
,8761,BAC,1/12/2004,001,2023-12-17_14h34.07.202,OS3_Mult_verification,2022.2.4,MacIntel,62.5,,,49,1.65,1,"[""4"",""9"",""return""]","[1.0449999999999875,1.478999999999985,1.6129999999999995]",0,23,23,24,1,49,,,,,,,,,,,,,,,,,,,,,,,,,,,,,,,,,,,,,,,,,,,,,,,,,,,,,,,,,,,,,,,,,,,,,,,,,,,,,,,,,,,,,,,,,,,,,,,,,,,,,,,,,,,,,,,,,,,,,,,,,,,,,,,,,,,,,,,,,,,,,,,,,,,,,,,,,,,,,,,,,
,8761,BAC,1/12/2004,001,2023-12-17_14h34.07.202,OS3_Mult_verification,2022.2.4,MacIntel,62.5,,,32,1.15,1,"[""3"",""2"",""return""]","[0.8799999999999955,0.9830000000000041,1.1120000000000232]",0,24,24,17,1,32,,,,,,,,,,,,,,,,,,,,,,,,,,,,,,,,,,,,,,,,,,,,,,,,,,,,,,,,,,,,,,,,,,,,,,,,,,,,,,,,,,,,,,,,,,,,,,,,,,,,,,,,,,,,,,,,,,,,,,,,,,,,,,,,,,,,,,,,,,,,,,,,,,,,,,,,,,,,,,,,,
,8761,BAC,1/12/2004,001,2023-12-17_14h34.07.202,OS3_Mult_verification,2022.2.4,MacIntel,62.5,,,6,1.517,1,"[""6"",""return""]","[1.3160000000000025,1.4850000000000136]",0,25,25,1,1,6,,,,,,,,,,,,,,,,,,,,,,,,,,,,,,,,,,,,,,,,,,,,,,,,,,,,,,,,,,,,,,,,,,,,,,,,,,,,,,,,,,,,,,,,,,,,,,,,,,,,,,,,,,,,,,,,,,,,,,,,,,,,,,,,,,,,,,,,,,,,,,,,,,,,,,,,,,,,,,,,,
,8761,BAC,1/12/2004,001,2023-12-17_14h34.07.202,OS3_Mult_verification,2022.2.4,MacIntel,62.5,,,54,1.35,1,"[""5"",""4"",""return""]","[1.011000000000024,1.1810000000000116,1.3140000000000214]",0,26,26,25,1,54,,,,,,,,,,,,,,,,,,,,,,,,,,,,,,,,,,,,,,,,,,,,,,,,,,,,,,,,,,,,,,,,,,,,,,,,,,,,,,,,,,,,,,,,,,,,,,,,,,,,,,,,,,,,,,,,,,,,,,,,,,,,,,,,,,,,,,,,,,,,,,,,,,,,,,,,,,,,,,,,,
,8761,BAC,1/12/2004,001,2023-12-17_14h34.07.202,OS3_Mult_verification,2022.2.4,MacIntel,62.5,,,12,0.966,1,"[""1"",""2"",""return""]","[0.7509999999999764,0.8289999999999793,0.9350000000000023]",0,27,27,5,1,12,,,,,,,,,,,,,,,,,,,,,,,,,,,,,,,,,,,,,,,,,,,,,,,,,,,,,,,,,,,,,,,,,,,,,,,,,,,,,,,,,,,,,,,,,,,,,,,,,,,,,,,,,,,,,,,,,,,,,,,,,,,,,,,,,,,,,,,,,,,,,,,,,,,,,,,,,,,,,,,,,
,8761,BAC,1/12/2004,001,2023-12-17_14h34.07.202,OS3_Mult_verification,2022.2.4,MacIntel,62.5,,,18,1.417,1,"[""1"",""8"",""return""]","[0.7980000000000018,1.2480000000000189,1.382000000000005]",0,28,28,9,1,18,,,,,,,,,,,,,,,,,,,,,,,,,,,,,,,,,,,,,,,,,,,,,,,,,,,,,,,,,,,,,,,,,,,,,,,,,,,,,,,,,,,,,,,,,,,,,,,,,,,,,,,,,,,,,,,,,,,,,,,,,,,,,,,,,,,,,,,,,,,,,,,,,,,,,,,,,,,,,,,,,
,8761,BAC,1/12/2004,001,2023-12-17_14h34.07.202,OS3_Mult_verification,2022.2.4,MacIntel,62.5,,,27,1.217,1,"[""2"",""7"",""return""]","[0.6479999999999961,1.0320000000000107,1.179000000000002]",0,29,29,14,1,27,,,,,,,,,,,,,,,,,,,,,,,,,,,,,,,,,,,,,,,,,,,,,,,,,,,,,,,,,,,,,,,,,,,,,,,,,,,,,,,,,,,,,,,,,,,,,,,,,,,,,,,,,,,,,,,,,,,,,,,,,,,,,,,,,,,,,,,,,,,,,,,,,,,,,,,,,,,,,,,,,
,8761,BAC,1/12/2004,001,2023-12-17_14h34.07.202,OS3_Mult_verification,2022.2.4,MacIntel,62.5,,,40,1.333,1,"[""4"",""0"",""return""]","[0.8300000000000125,1.1639999999999873,1.2990000000000066]",0,30,30,20,1,40,,,,,,,,,,,,,,,,,,,,,,,,,,,,,,,,,,,,,,,,,,,,,,,,,,,,,,,,,,,,,,,,,,,,,,,,,,,,,,,,,,,,,,,,,,,,,,,,,,,,,,,,,,,,,,,,,,,,,,,,,,,,,,,,,,,,,,,,,,,,,,,,,,,,,,,,,,,,,,,,,
,8761,BAC,1/12/2004,001,2023-12-17_14h34.07.202,OS3_Mult_verification,2022.2.4,MacIntel,62.5,,,36,1.817,1,"[""3"",""6"",""return""]","[1.3640000000000043,1.608000000000004,1.7820000000000107]",1,0,31,19,1,36,,,,,,,,,,,,,,,,,,,,,,,,,,,,,,,,,,,,,,,,,,,,,,,,,,,,,,,,,,,,,,,,,,,,,,,,,,,,,,,,,,,,,,,,,,,,,,,,,,,,,,,,,,,,,,,,,,,,,,,,,,,,,,,,,,,,,,,,,,,,,,,,,,,,,,,,,,,,,,,,,
,8761,BAC,1/12/2004,001,2023-12-17_14h34.07.202,OS3_Mult_verification,2022.2.4,MacIntel,62.5,,,54,1.3,1,"[""5"",""4"",""return""]","[0.8360000000000127,1.1210000000000093,1.2620000000000005]",1,1,32,25,1,54,,,,,,,,,,,,,,,,,,,,,,,,,,,,,,,,,,,,,,,,,,,,,,,,,,,,,,,,,,,,,,,,,,,,,,,,,,,,,,,,,,,,,,,,,,,,,,,,,,,,,,,,,,,,,,,,,,,,,,,,,,,,,,,,,,,,,,,,,,,,,,,,,,,,,,,,,,,,,,,,,
,8761,BAC,1/12/2004,001,2023-12-17_14h34.07.202,OS3_Mult_verification,2022.2.4,MacIntel,62.5,,,10,1.332,1,"[""1"",""0"",""return""]","[0.6980000000000075,1.146000000000015,1.3010000000000161]",1,2,33,4,1,10,,,,,,,,,,,,,,,,,,,,,,,,,,,,,,,,,,,,,,,,,,,,,,,,,,,,,,,,,,,,,,,,,,,,,,,,,,,,,,,,,,,,,,,,,,,,,,,,,,,,,,,,,,,,,,,,,,,,,,,,,,,,,,,,,,,,,,,,,,,,,,,,,,,,,,,,,,,,,,,,,
,8761,BAC,1/12/2004,001,2023-12-17_14h34.07.202,OS3_Mult_verification,2022.2.4,MacIntel,62.5,,,56,1.249,1,"[""5"",""6"",""return""]","[0.8969999999999914,1.0800000000000125,1.217000000000013]",1,3,34,26,1,56,,,,,,,,,,,,,,,,,,,,,,,,,,,,,,,,,,,,,,,,,,,,,,,,,,,,,,,,,,,,,,,,,,,,,,,,,,,,,,,,,,,,,,,,,,,,,,,,,,,,,,,,,,,,,,,,,,,,,,,,,,,,,,,,,,,,,,,,,,,,,,,,,,,,,,,,,,,,,,,,,
,8761,BAC,1/12/2004,001,2023-12-17_14h34.07.202,OS3_Mult_verification,2022.2.4,MacIntel,62.5,,,6,0.899,1,"[""6"",""return""]","[0.7549999999999955,0.8629999999999995]",1,4,35,1,1,6,,,,,,,,,,,,,,,,,,,,,,,,,,,,,,,,,,,,,,,,,,,,,,,,,,,,,,,,,,,,,,,,,,,,,,,,,,,,,,,,,,,,,,,,,,,,,,,,,,,,,,,,,,,,,,,,,,,,,,,,,,,,,,,,,,,,,,,,,,,,,,,,,,,,,,,,,,,,,,,,,
,8761,BAC,1/12/2004,001,2023-12-17_14h34.07.202,OS3_Mult_verification,2022.2.4,MacIntel,62.5,,,27,1.333,1,"[""2"",""7"",""return""]","[0.8299999999999841,1.1500000000000057,1.2959999999999923]",1,5,36,14,1,27,,,,,,,,,,,,,,,,,,,,,,,,,,,,,,,,,,,,,,,,,,,,,,,,,,,,,,,,,,,,,,,,,,,,,,,,,,,,,,,,,,,,,,,,,,,,,,,,,,,,,,,,,,,,,,,,,,,,,,,,,,,,,,,,,,,,,,,,,,,,,,,,,,,,,,,,,,,,,,,,,
,8761,BAC,1/12/2004,001,2023-12-17_14h34.07.202,OS3_Mult_verification,2022.2.4,MacIntel,62.5,,,81,1.816,1,"[""8"",""1"",""return""]","[1.2139999999999986,1.6370000000000005,1.7800000000000011]",1,6,37,30,1,81,,,,,,,,,,,,,,,,,,,,,,,,,,,,,,,,,,,,,,,,,,,,,,,,,,,,,,,,,,,,,,,,,,,,,,,,,,,,,,,,,,,,,,,,,,,,,,,,,,,,,,,,,,,,,,,,,,,,,,,,,,,,,,,,,,,,,,,,,,,,,,,,,,,,,,,,,,,,,,,,,
,8761,BAC,1/12/2004,001,2023-12-17_14h34.07.202,OS3_Mult_verification,2022.2.4,MacIntel,62.5,,,20,1.217,1,"[""2"",""0"",""return""]","[0.6629999999999825,1.054000000000002,1.188999999999993]",1,7,38,10,1,20,,,,,,,,,,,,,,,,,,,,,,,,,,,,,,,,,,,,,,,,,,,,,,,,,,,,,,,,,,,,,,,,,,,,,,,,,,,,,,,,,,,,,,,,,,,,,,,,,,,,,,,,,,,,,,,,,,,,,,,,,,,,,,,,,,,,,,,,,,,,,,,,,,,,,,,,,,,,,,,,,
,8761,BAC,1/12/2004,001,2023-12-17_14h34.07.202,OS3_Mult_verification,2022.2.4,MacIntel,62.5,,,16,1.317,1,"[""1"",""6"",""return""]","[0.7480000000000189,1.1470000000000198,1.2800000000000011]",1,8,39,8,1,16,,,,,,,,,,,,,,,,,,,,,,,,,,,,,,,,,,,,,,,,,,,,,,,,,,,,,,,,,,,,,,,,,,,,,,,,,,,,,,,,,,,,,,,,,,,,,,,,,,,,,,,,,,,,,,,,,,,,,,,,,,,,,,,,,,,,,,,,,,,,,,,,,,,,,,,,,,,,,,,,,
,8761,BAC,1/12/2004,001,2023-12-17_14h34.07.202,OS3_Mult_verification,2022.2.4,MacIntel,62.5,,,63,1.4,1,"[""6"",""3"",""return""]","[0.8500000000000227,1.233000000000004,1.3660000000000139]",1,9,40,27,1,63,,,,,,,,,,,,,,,,,,,,,,,,,,,,,,,,,,,,,,,,,,,,,,,,,,,,,,,,,,,,,,,,,,,,,,,,,,,,,,,,,,,,,,,,,,,,,,,,,,,,,,,,,,,,,,,,,,,,,,,,,,,,,,,,,,,,,,,,,,,,,,,,,,,,,,,,,,,,,,,,,
,8761,BAC,1/12/2004,001,2023-12-17_14h34.07.202,OS3_Mult_verification,2022.2.4,MacIntel,62.5,,,24,1.133,1,"[""2"",""4"",""return""]","[0.7129999999999939,0.9159999999999968,1.0999999999999943]",1,10,41,12,1,24,,,,,,,,,,,,,,,,,,,,,,,,,,,,,,,,,,,,,,,,,,,,,,,,,,,,,,,,,,,,,,,,,,,,,,,,,,,,,,,,,,,,,,,,,,,,,,,,,,,,,,,,,,,,,,,,,,,,,,,,,,,,,,,,,,,,,,,,,,,,,,,,,,,,,,,,,,,,,,,,,
,8761,BAC,1/12/2004,001,2023-12-17_14h34.07.202,OS3_Mult_verification,2022.2.4,MacIntel,62.5,,,45,1.233,1,"[""4"",""5"",""return""]","[0.8620000000000232,1.0480000000000018,1.1970000000000027]",1,11,42,22,1,45,,,,,,,,,,,,,,,,,,,,,,,,,,,,,,,,,,,,,,,,,,,,,,,,,,,,,,,,,,,,,,,,,,,,,,,,,,,,,,,,,,,,,,,,,,,,,,,,,,,,,,,,,,,,,,,,,,,,,,,,,,,,,,,,,,,,,,,,,,,,,,,,,,,,,,,,,,,,,,,,,
,8761,BAC,1/12/2004,001,2023-12-17_14h34.07.202,OS3_Mult_verification,2022.2.4,MacIntel,62.5,,,42,1.247,1,"[""4"",""2"",""return""]","[0.8619999999999948,1.0430000000000064,1.2160000000000082]",1,12,43,21,1,42,,,,,,,,,,,,,,,,,,,,,,,,,,,,,,,,,,,,,,,,,,,,,,,,,,,,,,,,,,,,,,,,,,,,,,,,,,,,,,,,,,,,,,,,,,,,,,,,,,,,,,,,,,,,,,,,,,,,,,,,,,,,,,,,,,,,,,,,,,,,,,,,,,,,,,,,,,,,,,,,,
,8761,BAC,1/12/2004,001,2023-12-17_14h34.07.202,OS3_Mult_verification,2022.2.4,MacIntel,62.5,,,12,1.066,1,"[""1"",""2"",""return""]","[0.6949999999999932,0.8640000000000043,1.0279999999999916]",1,13,44,5,1,12,,,,,,,,,,,,,,,,,,,,,,,,,,,,,,,,,,,,,,,,,,,,,,,,,,,,,,,,,,,,,,,,,,,,,,,,,,,,,,,,,,,,,,,,,,,,,,,,,,,,,,,,,,,,,,,,,,,,,,,,,,,,,,,,,,,,,,,,,,,,,,,,,,,,,,,,,,,,,,,,,
,8761,BAC,1/12/2004,001,2023-12-17_14h34.07.202,OS3_Mult_verification,2022.2.4,MacIntel,62.5,,,15,1.15,1,"[""1"",""5"",""return""]","[0.6520000000000152,0.9639999999999986,1.1119999999999948]",1,14,45,7,1,15,,,,,,,,,,,,,,,,,,,,,,,,,,,,,,,,,,,,,,,,,,,,,,,,,,,,,,,,,,,,,,,,,,,,,,,,,,,,,,,,,,,,,,,,,,,,,,,,,,,,,,,,,,,,,,,,,,,,,,,,,,,,,,,,,,,,,,,,,,,,,,,,,,,,,,,,,,,,,,,,,
,8761,BAC,1/12/2004,001,2023-12-17_14h34.07.202,OS3_Mult_verification,2022.2.4,MacIntel,62.5,,,4,1.015,1,"[""4"",""return""]","[0.7959999999999923,0.9809999999999945]",1,15,46,0,1,4,,,,,,,,,,,,,,,,,,,,,,,,,,,,,,,,,,,,,,,,,,,,,,,,,,,,,,,,,,,,,,,,,,,,,,,,,,,,,,,,,,,,,,,,,,,,,,,,,,,,,,,,,,,,,,,,,,,,,,,,,,,,,,,,,,,,,,,,,,,,,,,,,,,,,,,,,,,,,,,,,
,8761,BAC,1/12/2004,001,2023-12-17_14h34.07.202,OS3_Mult_verification,2022.2.4,MacIntel,62.5,,,72,1.649,1,"[""7"",""2"",""return""]","[1.11099999999999,1.4710000000000036,1.6189999999999998]",1,16,47,29,1,72,,,,,,,,,,,,,,,,,,,,,,,,,,,,,,,,,,,,,,,,,,,,,,,,,,,,,,,,,,,,,,,,,,,,,,,,,,,,,,,,,,,,,,,,,,,,,,,,,,,,,,,,,,,,,,,,,,,,,,,,,,,,,,,,,,,,,,,,,,,,,,,,,,,,,,,,,,,,,,,,,
,8761,BAC,1/12/2004,001,2023-12-17_14h34.07.202,OS3_Mult_verification,2022.2.4,MacIntel,62.5,,,35,1.199,1,"[""3"",""5"",""return""]","[0.7510000000000048,1.01400000000001,1.171999999999997]",1,17,48,18,1,35,,,,,,,,,,,,,,,,,,,,,,,,,,,,,,,,,,,,,,,,,,,,,,,,,,,,,,,,,,,,,,,,,,,,,,,,,,,,,,,,,,,,,,,,,,,,,,,,,,,,,,,,,,,,,,,,,,,,,,,,,,,,,,,,,,,,,,,,,,,,,,,,,,,,,,,,,,,,,,,,,
,8761,BAC,1/12/2004,001,2023-12-17_14h34.07.202,OS3_Mult_verification,2022.2.4,MacIntel,62.5,,,49,1.7,1,"[""4"",""9"",""return""]","[0.8720000000000141,1.5289999999999964,1.6640000000000157]",1,18,49,24,1,49,,,,,,,,,,,,,,,,,,,,,,,,,,,,,,,,,,,,,,,,,,,,,,,,,,,,,,,,,,,,,,,,,,,,,,,,,,,,,,,,,,,,,,,,,,,,,,,,,,,,,,,,,,,,,,,,,,,,,,,,,,,,,,,,,,,,,,,,,,,,,,,,,,,,,,,,,,,,,,,,,
,8761,BAC,1/12/2004,001,2023-12-17_14h34.07.202,OS3_Mult_verification,2022.2.4,MacIntel,62.5,,,64,2.867,1,"[""5"",""backspace"",""6"",""4"",""return""]","[0.8059999999999832,1.6980000000000075,1.936000000000007,2.634999999999991,2.8400000000000034]",1,19,50,28,1,64,,,,,,,,,,,,,,,,,,,,,,,,,,,,,,,,,,,,,,,,,,,,,,,,,,,,,,,,,,,,,,,,,,,,,,,,,,,,,,,,,,,,,,,,,,,,,,,,,,,,,,,,,,,,,,,,,,,,,,,,,,,,,,,,,,,,,,,,,,,,,,,,,,,,,,,,,,,,,,,,,
,8761,BAC,1/12/2004,001,2023-12-17_14h34.07.202,OS3_Mult_verification,2022.2.4,MacIntel,62.5,,,40,1.534,1,"[""4"",""0"",""return""]","[0.9200000000000159,1.2960000000000207,1.5020000000000095]",1,20,51,20,1,40,,,,,,,,,,,,,,,,,,,,,,,,,,,,,,,,,,,,,,,,,,,,,,,,,,,,,,,,,,,,,,,,,,,,,,,,,,,,,,,,,,,,,,,,,,,,,,,,,,,,,,,,,,,,,,,,,,,,,,,,,,,,,,,,,,,,,,,,,,,,,,,,,,,,,,,,,,,,,,,,,
,8761,BAC,1/12/2004,001,2023-12-17_14h34.07.202,OS3_Mult_verification,2022.2.4,MacIntel,62.5,,,32,1.234,1,"[""3"",""2"",""return""]","[0.945999999999998,1.0519999999999925,1.195999999999998]",1,21,52,17,1,32,,,,,,,,,,,,,,,,,,,,,,,,,,,,,,,,,,,,,,,,,,,,,,,,,,,,,,,,,,,,,,,,,,,,,,,,,,,,,,,,,,,,,,,,,,,,,,,,,,,,,,,,,,,,,,,,,,,,,,,,,,,,,,,,,,,,,,,,,,,,,,,,,,,,,,,,,,,,,,,,,
,8761,BAC,1/12/2004,001,2023-12-17_14h34.07.202,OS3_Mult_verification,2022.2.4,MacIntel,62.5,,,30,1.316,1,"[""3"",""0"",""return""]","[0.6690000000000111,1.0620000000000118,1.27800000000002]",1,22,53,16,1,30,,,,,,,,,,,,,,,,,,,,,,,,,,,,,,,,,,,,,,,,,,,,,,,,,,,,,,,,,,,,,,,,,,,,,,,,,,,,,,,,,,,,,,,,,,,,,,,,,,,,,,,,,,,,,,,,,,,,,,,,,,,,,,,,,,,,,,,,,,,,,,,,,,,,,,,,,,,,,,,,,
,8761,BAC,1/12/2004,001,2023-12-17_14h34.07.202,OS3_Mult_verification,2022.2.4,MacIntel,62.5,,,28,1.45,1,"[""2"",""8"",""return""]","[0.867999999999995,1.2489999999999952,1.421999999999997]",1,23,54,15,1,28,,,,,,,,,,,,,,,,,,,,,,,,,,,,,,,,,,,,,,,,,,,,,,,,,,,,,,,,,,,,,,,,,,,,,,,,,,,,,,,,,,,,,,,,,,,,,,,,,,,,,,,,,,,,,,,,,,,,,,,,,,,,,,,,,,,,,,,,,,,,,,,,,,,,,,,,,,,,,,,,,
,8761,BAC,1/12/2004,001,2023-12-17_14h34.07.202,OS3_Mult_verification,2022.2.4,MacIntel,62.5,,,14,1.083,1,"[""1"",""4"",""return""]","[0.7150000000000034,0.9310000000000116,1.0480000000000018]",1,24,55,6,1,14,,,,,,,,,,,,,,,,,,,,,,,,,,,,,,,,,,,,,,,,,,,,,,,,,,,,,,,,,,,,,,,,,,,,,,,,,,,,,,,,,,,,,,,,,,,,,,,,,,,,,,,,,,,,,,,,,,,,,,,,,,,,,,,,,,,,,,,,,,,,,,,,,,,,,,,,,,,,,,,,,
,8761,BAC,1/12/2004,001,2023-12-17_14h34.07.202,OS3_Mult_verification,2022.2.4,MacIntel,62.5,,,48,1.55,1,"[""4"",""8"",""return""]","[0.9320000000000164,1.3150000000000261,1.5130000000000052]",1,25,56,23,1,48,,,,,,,,,,,,,,,,,,,,,,,,,,,,,,,,,,,,,,,,,,,,,,,,,,,,,,,,,,,,,,,,,,,,,,,,,,,,,,,,,,,,,,,,,,,,,,,,,,,,,,,,,,,,,,,,,,,,,,,,,,,,,,,,,,,,,,,,,,,,,,,,,,,,,,,,,,,,,,,,,
,8761,BAC,1/12/2004,001,2023-12-17_14h34.07.202,OS3_Mult_verification,2022.2.4,MacIntel,62.5,,,8,1.299,1,"[""8"",""return""]","[1.0989999999999895,1.2650000000000148]",1,26,57,2,1,8,,,,,,,,,,,,,,,,,,,,,,,,,,,,,,,,,,,,,,,,,,,,,,,,,,,,,,,,,,,,,,,,,,,,,,,,,,,,,,,,,,,,,,,,,,,,,,,,,,,,,,,,,,,,,,,,,,,,,,,,,,,,,,,,,,,,,,,,,,,,,,,,,,,,,,,,,,,,,,,,,
,8761,BAC,1/12/2004,001,2023-12-17_14h34.07.202,OS3_Mult_verification,2022.2.4,MacIntel,62.5,,,21,1.133,1,"[""2"",""1"",""return""]","[0.931999999999988,1.0010000000000048,1.0949999999999989]",1,27,58,11,1,21,,,,,,,,,,,,,,,,,,,,,,,,,,,,,,,,,,,,,,,,,,,,,,,,,,,,,,,,,,,,,,,,,,,,,,,,,,,,,,,,,,,,,,,,,,,,,,,,,,,,,,,,,,,,,,,,,,,,,,,,,,,,,,,,,,,,,,,,,,,,,,,,,,,,,,,,,,,,,,,,,
,8761,BAC,1/12/2004,001,2023-12-17_14h34.07.202,OS3_Mult_verification,2022.2.4,MacIntel,62.5,,,25,1.251,1,"[""2"",""5"",""return""]","[0.5640000000000214,1.0500000000000114,1.2180000000000177]",1,28,59,13,1,25,,,,,,,,,,,,,,,,,,,,,,,,,,,,,,,,,,,,,,,,,,,,,,,,,,,,,,,,,,,,,,,,,,,,,,,,,,,,,,,,,,,,,,,,,,,,,,,,,,,,,,,,,,,,,,,,,,,,,,,,,,,,,,,,,,,,,,,,,,,,,,,,,,,,,,,,,,,,,,,,,
,8761,BAC,1/12/2004,001,2023-12-17_14h34.07.202,OS3_Mult_verification,2022.2.4,MacIntel,62.5,,,18,1.416,1,"[""1"",""8"",""return""]","[0.6850000000000023,1.2139999999999986,1.3810000000000002]",1,29,60,9,1,18,,,,,,,,,,,,,,,,,,,,,,,,,,,,,,,,,,,,,,,,,,,,,,,,,,,,,,,,,,,,,,,,,,,,,,,,,,,,,,,,,,,,,,,,,,,,,,,,,,,,,,,,,,,,,,,,,,,,,,,,,,,,,,,,,,,,,,,,,,,,,,,,,,,,,,,,,,,,,,,,,
,8761,BAC,1/12/2004,001,2023-12-17_14h34.07.202,OS3_Mult_verification,2022.2.4,MacIntel,62.5,,,9,1.216,1,"[""9"",""return""]","[0.9629999999999939,1.179000000000002]",1,30,61,3,1,9,,,,,,,,,,,,,,,,,,,,,,,,,,,,,,,,,,,,,,,,,,,,,,,,,,,,,,,,,,,,,,,,,,,,,,,,,,,,,,,,,,,,,,,,,,,,,,,,,,,,,,,,,,,,,,,,,,,,,,,,,,,,,,,,,,,,,,,,,,,,,,,,,,,,,,,,,,,,,,,,,
,8761,BAC,1/12/2004,001,2023-12-17_14h34.07.202,OS3_Mult_verification,2022.2.4,MacIntel,62.5,,,,,,,,,,,,,,space,1.96,,,,,,,,,,,,,,,,,,,,,,,,,,,,,,,,,,,,,,,,,,,,,,,,,,,,,,,,,,,,,,,,,,,,,,,,,,,,,,,,,,,,,,,,,,,,,,,,,,,,,,,,,,,,,,,,,,,,,,,,,,,,,,,,,,,,,,,,,,,,,,,,,,,,,,,,,,,,,,,
,8761,BAC,1/12/2004,001,2023-12-17_14h34.07.202,OS3_Mult_verification,2022.2.4,MacIntel,62.5,,,,,,,,,,,,,,,,,,,,,,,,,,,,,,,,,,,,,,,,,,,,,,,,,,,,,,,,,,,,,,,,,,,,,,,,,,,,,,,,,,,,,,,,,,,,,,,,,,,,,,,,,,,,,,,,,,,,,,,,,,,,,,,,,,,,,,,,,,,,,,,,,,,,,,,,,,,,,,,,,,,,,,,,,,,,,,
,8761,BAC,1/12/2004,001,2023-12-17_14h34.07.202,OS3_Mult_verification,2022.2.4,MacIntel,62.5,,,,,,,,,,,,,,,,space,1.381,,,,,,,,,,,,,,,,,,,,,,,,,,,,,,,,,,,,,,,,,,,,,,,,,,,,,,,,,,,,,,,,,,,,,,,,,,,,,,,,,,,,,,,,,,,,,,,,,,,,,,,,,,,,,,,,,,,,,,,,,,,,,,,,,,,,,,,,,,,,,,,,,,,,,,,,,,,,,
,8761,BAC,1/12/2004,001,2023-12-17_14h34.07.202,OS3_Mult_verification,2022.2.4,MacIntel,62.5,,,,,,,,,,,,,,,,,,22,2.591,1,"[""2"",""2"",""return""]","[1.7450000000000045,1.8800000000000239,2.2930000000000064]",0,0,0,2,1,2 × 11 =,22,,,,,,,,,,,,,,,,,,,,,,,,,,,,,,,,,,,,,,,,,,,,,,,,,,,,,,,,,,,,,,,,,,,,,,,,,,,,,,,,,,,,,,,,,,,,,,,,,,,,,,,,,,,,,,,,,,,,,,,,,,,,,,,,,,,,,,,,,,,,,,,,,
,8761,BAC,1/12/2004,001,2023-12-17_14h34.07.202,OS3_Mult_verification,2022.2.4,MacIntel,62.5,,,,,,,,,,,,,,,,,,7,1.666,1,"[""7"",""return""]","[1.2639999999999816,1.36099999999999]",0,1,1,0,1,1 × 7 =,7,,,,,,,,,,,,,,,,,,,,,,,,,,,,,,,,,,,,,,,,,,,,,,,,,,,,,,,,,,,,,,,,,,,,,,,,,,,,,,,,,,,,,,,,,,,,,,,,,,,,,,,,,,,,,,,,,,,,,,,,,,,,,,,,,,,,,,,,,,,,,,,,,
,8761,BAC,1/12/2004,001,2023-12-17_14h34.07.202,OS3_Mult_verification,2022.2.4,MacIntel,62.5,,,,,,,,,,,,,,,,,,20,2.65,1,"[""2"",""0"",""return""]","[0.8959999999999866,2.211999999999989,2.359999999999985]",0,2,2,1,1,2 × 10 =,20,,,,,,,,,,,,,,,,,,,,,,,,,,,,,,,,,,,,,,,,,,,,,,,,,,,,,,,,,,,,,,,,,,,,,,,,,,,,,,,,,,,,,,,,,,,,,,,,,,,,,,,,,,,,,,,,,,,,,,,,,,,,,,,,,,,,,,,,,,,,,,,,,
,8761,BAC,1/12/2004,001,2023-12-17_14h34.07.202,OS3_Mult_verification,2022.2.4,MacIntel,62.5,,,,,,,,,,,,,,,,,,,,,,,,,,,,,,,,,,,,,,,,,,,,,,,,,,,,,,,,,,,,,,,,,,,,,,,,,,,,,,,,,,,,,,,,,,,,,,,,,,,,,,,,,,,,,,,,,,,,,,,,,,,,,,,,,,,,,,,,,,,,,,,,,,,,,,,,,,,,,,,,,,,,,,,,,,,,,,
,8761,BAC,1/12/2004,001,2023-12-17_14h34.07.202,OS3_Mult_verification,2022.2.4,MacIntel,62.5,,,,,,,,,,,,,,,,,,,,,,,,,,,,,,,,,,,,,,,,,,,,,,,,,,,,,,,,,,,,,,,,,,,,,,,,,,,,,,,,,,,,,,,,,,,,,,,,,,,,,,,,,,,,,,,,,,,,,,,,,,,,,,,,,,,,,,,,,,,,,,,,,,,,,,,,,,,,,,,,,,,,,,,,,,,,,,
,8761,BAC,1/12/2004,001,2023-12-17_14h34.07.202,OS3_Mult_verification,2022.2.4,MacIntel,62.5,,,,,,,,,,,,,,,,,,6,1.74,1,"[""6"",""return""]","[1.3479999999999848,1.4509999999999934]",,,,,,2 × 3 =,6,0,0,0,0,1,,,,,,,,,,,,,,,,,,,,,,,,,,,,,,,,,,,,,,,,,,,,,,,,,,,,,,,,,,,,,,,,,,,,,,,,,,,,,,,,,,,,,,,,,,,,,,,,,,,,,,,,,,,,,,,,,,,,,,,,,,,,,,,,,,,,,,,,,,,,
,8761,BAC,1/12/2004,001,2023-12-17_14h34.07.202,OS3_Mult_verification,2022.2.4,MacIntel,62.5,,,,,,,,,,,,,,,,,,40,1.915,1,"[""4"",""0"",""return""]","[1.0819999999999936,1.4660000000000082,1.617999999999995]",,,,,,5 × 8 =,40,0,1,1,1,1,,,,,,,,,,,,,,,,,,,,,,,,,,,,,,,,,,,,,,,,,,,,,,,,,,,,,,,,,,,,,,,,,,,,,,,,,,,,,,,,,,,,,,,,,,,,,,,,,,,,,,,,,,,,,,,,,,,,,,,,,,,,,,,,,,,,,,,,,,,,
,8761,BAC,1/12/2004,001,2023-12-17_14h34.07.202,OS3_Mult_verification,2022.2.4,MacIntel,62.5,,,,,,,,,,,,,,,,,,12,1.665,1,"[""1"",""2"",""return""]","[1.1839999999999975,1.2349999999999852,1.36099999999999]",,,,,,3 × 4 =,12,0,2,2,2,1,,,,,,,,,,,,,,,,,,,,,,,,,,,,,,,,,,,,,,,,,,,,,,,,,,,,,,,,,,,,,,,,,,,,,,,,,,,,,,,,,,,,,,,,,,,,,,,,,,,,,,,,,,,,,,,,,,,,,,,,,,,,,,,,,,,,,,,,,,,,
,8761,BAC,1/12/2004,001,2023-12-17_14h34.07.202,OS3_Mult_verification,2022.2.4,MacIntel,62.5,,,,,,,,,,,,,,,,,,15,1.616,1,"[""1"",""5"",""return""]","[0.9659999999999798,1.2159999999999798,1.336999999999989]",,,,,,5 × 3 =,15,0,3,3,3,1,,,,,,,,,,,,,,,,,,,,,,,,,,,,,,,,,,,,,,,,,,,,,,,,,,,,,,,,,,,,,,,,,,,,,,,,,,,,,,,,,,,,,,,,,,,,,,,,,,,,,,,,,,,,,,,,,,,,,,,,,,,,,,,,,,,,,,,,,,,,
,8761,BAC,1/12/2004,001,2023-12-17_14h34.07.202,OS3_Mult_verification,2022.2.4,MacIntel,62.5,,,,,,,,,,,,,,,,,,8,1.999,1,"[""8"",""return""]","[1.6340000000000146,1.6980000000000075]",,,,,,2 × 4 =,8,0,4,4,4,1,,,,,,,,,,,,,,,,,,,,,,,,,,,,,,,,,,,,,,,,,,,,,,,,,,,,,,,,,,,,,,,,,,,,,,,,,,,,,,,,,,,,,,,,,,,,,,,,,,,,,,,,,,,,,,,,,,,,,,,,,,,,,,,,,,,,,,,,,,,,
,8761,BAC,1/12/2004,001,2023-12-17_14h34.07.202,OS3_Mult_verification,2022.2.4,MacIntel,62.5,,,,,,,,,,,,,,,,,,4,1.299,1,"[""4"",""return""]","[0.8509999999999991,1.002999999999986]",,,,,,2 × 2 =,4,0,5,5,5,1,,,,,,,,,,,,,,,,,,,,,,,,,,,,,,,,,,,,,,,,,,,,,,,,,,,,,,,,,,,,,,,,,,,,,,,,,,,,,,,,,,,,,,,,,,,,,,,,,,,,,,,,,,,,,,,,,,,,,,,,,,,,,,,,,,,,,,,,,,,,
,8761,BAC,1/12/2004,001,2023-12-17_14h34.07.202,OS3_Mult_verification,2022.2.4,MacIntel,62.5,,,,,,,,,,,,,,,,,,20,1.898,1,"[""2"",""0"",""return""]","[1.0960000000000036,1.453000000000003,1.6020000000000039]",,,,,,4 × 5 =,20,0,6,6,6,1,,,,,,,,,,,,,,,,,,,,,,,,,,,,,,,,,,,,,,,,,,,,,,,,,,,,,,,,,,,,,,,,,,,,,,,,,,,,,,,,,,,,,,,,,,,,,,,,,,,,,,,,,,,,,,,,,,,,,,,,,,,,,,,,,,,,,,,,,,,,
,8761,BAC,1/12/2004,001,2023-12-17_14h34.07.202,OS3_Mult_verification,2022.2.4,MacIntel,62.5,,,,,,,,,,,,,,,,,,9,1.599,1,"[""9"",""return""]","[1.2129999999999939,1.3009999999999877]",,,,,,3 × 3 =,9,0,7,7,7,1,,,,,,,,,,,,,,,,,,,,,,,,,,,,,,,,,,,,,,,,,,,,,,,,,,,,,,,,,,,,,,,,,,,,,,,,,,,,,,,,,,,,,,,,,,,,,,,,,,,,,,,,,,,,,,,,,,,,,,,,,,,,,,,,,,,,,,,,,,,,
,8761,BAC,1/12/2004,001,2023-12-17_14h34.07.202,OS3_Mult_verification,2022.2.4,MacIntel,62.5,,,,,,,,,,,,,,,,,,10,1.748,1,"[""1"",""0"",""return""]","[0.8979999999999961,1.3309999999999889,1.4509999999999934]",,,,,,5 × 2 =,10,0,8,8,8,1,,,,,,,,,,,,,,,,,,,,,,,,,,,,,,,,,,,,,,,,,,,,,,,,,,,,,,,,,,,,,,,,,,,,,,,,,,,,,,,,,,,,,,,,,,,,,,,,,,,,,,,,,,,,,,,,,,,,,,,,,,,,,,,,,,,,,,,,,,,,
,8761,BAC,1/12/2004,001,2023-12-17_14h34.07.202,OS3_Mult_verification,2022.2.4,MacIntel,62.5,,,,,,,,,,,,,,,,,,16,2.049,1,"[""1"",""6"",""return""]","[1.2339999999999804,1.632000000000005,1.7549999999999955]",,,,,,4 × 4 =,16,0,9,9,9,1,,,,,,,,,,,,,,,,,,,,,,,,,,,,,,,,,,,,,,,,,,,,,,,,,,,,,,,,,,,,,,,,,,,,,,,,,,,,,,,,,,,,,,,,,,,,,,,,,,,,,,,,,,,,,,,,,,,,,,,,,,,,,,,,,,,,,,,,,,,,
,8761,BAC,1/12/2004,001,2023-12-17_14h34.07.202,OS3_Mult_verification,2022.2.4,MacIntel,62.5,,,,,,,,,,,,,,,,,,224,2.032,0,"[""2"",""2"",""4"",""return""]","[1.238000000000028,1.3300000000000125,1.5229999999999961,1.7340000000000089]",,,,,,8 × 3 =,24,0,10,10,10,1,,,,,,,,,,,,,,,,,,,,,,,,,,,,,,,,,,,,,,,,,,,,,,,,,,,,,,,,,,,,,,,,,,,,,,,,,,,,,,,,,,,,,,,,,,,,,,,,,,,,,,,,,,,,,,,,,,,,,,,,,,,,,,,,,,,,,,,,,,,,
,8761,BAC,1/12/2004,001,2023-12-17_14h34.07.202,OS3_Mult_verification,2022.2.4,MacIntel,62.5,,,,,,,,,,,,,,,,,,30,2.916,1,"[""3"",""0"",""return""]","[2.149000000000001,2.502999999999986,2.6129999999999995]",,,,,,6 × 5 =,30,0,11,11,11,1,,,,,,,,,,,,,,,,,,,,,,,,,,,,,,,,,,,,,,,,,,,,,,,,,,,,,,,,,,,,,,,,,,,,,,,,,,,,,,,,,,,,,,,,,,,,,,,,,,,,,,,,,,,,,,,,,,,,,,,,,,,,,,,,,,,,,,,,,,,,
,8761,BAC,1/12/2004,001,2023-12-17_14h34.07.202,OS3_Mult_verification,2022.2.4,MacIntel,62.5,,,,,,,,,,,,,,,,,,1,2.698,0,"[""1"",""return""]","[2.0149999999999864,2.3979999999999677]",,,,,,7 × 2 =,14,0,12,12,12,1,,,,,,,,,,,,,,,,,,,,,,,,,,,,,,,,,,,,,,,,,,,,,,,,,,,,,,,,,,,,,,,,,,,,,,,,,,,,,,,,,,,,,,,,,,,,,,,,,,,,,,,,,,,,,,,,,,,,,,,,,,,,,,,,,,,,,,,,,,,,
,8761,BAC,1/12/2004,001,2023-12-17_14h34.07.202,OS3_Mult_verification,2022.2.4,MacIntel,62.5,,,,,,,,,,,,,,,,,,27,2.55,1,"[""2"",""7"",""return""]","[1.788000000000011,2.1310000000000286,2.26400000000001]",,,,,,3 × 9 =,27,0,13,13,13,1,,,,,,,,,,,,,,,,,,,,,,,,,,,,,,,,,,,,,,,,,,,,,,,,,,,,,,,,,,,,,,,,,,,,,,,,,,,,,,,,,,,,,,,,,,,,,,,,,,,,,,,,,,,,,,,,,,,,,,,,,,,,,,,,,,,,,,,,,,,,
,8761,BAC,1/12/2004,001,2023-12-17_14h34.07.202,OS3_Mult_verification,2022.2.4,MacIntel,62.5,,,,,,,,,,,,,,,,,,16,1.748,1,"[""1"",""6"",""return""]","[0.9149999999999636,1.2980000000000018,1.447999999999979]",,,,,,2 × 8 =,16,0,14,14,14,1,,,,,,,,,,,,,,,,,,,,,,,,,,,,,,,,,,,,,,,,,,,,,,,,,,,,,,,,,,,,,,,,,,,,,,,,,,,,,,,,,,,,,,,,,,,,,,,,,,,,,,,,,,,,,,,,,,,,,,,,,,,,,,,,,,,,,,,,,,,,
,8761,BAC,1/12/2004,001,2023-12-17_14h34.07.202,OS3_Mult_verification,2022.2.4,MacIntel,62.5,,,,,,,,,,,,,,,,,,24,1.617,1,"[""2"",""4"",""return""]","[1.0159999999999627,1.183999999999969,1.336999999999989]",,,,,,4 × 6 =,24,0,15,15,15,1,,,,,,,,,,,,,,,,,,,,,,,,,,,,,,,,,,,,,,,,,,,,,,,,,,,,,,,,,,,,,,,,,,,,,,,,,,,,,,,,,,,,,,,,,,,,,,,,,,,,,,,,,,,,,,,,,,,,,,,,,,,,,,,,,,,,,,,,,,,,
,8761,BAC,1/12/2004,001,2023-12-17_14h34.07.202,OS3_Mult_verification,2022.2.4,MacIntel,62.5,,,,,,,,,,,,,,,,,,21,2.182,1,"[""1"",""backspace"",""2"",""1"",""return""]","[0.9289999999999736,1.5620000000000118,1.586999999999989,1.6610000000000014,1.8829999999999814]",,,,,,7 × 3 =,21,0,16,16,16,1,,,,,,,,,,,,,,,,,,,,,,,,,,,,,,,,,,,,,,,,,,,,,,,,,,,,,,,,,,,,,,,,,,,,,,,,,,,,,,,,,,,,,,,,,,,,,,,,,,,,,,,,,,,,,,,,,,,,,,,,,,,,,,,,,,,,,,,,,,,,
,8761,BAC,1/12/2004,001,2023-12-17_14h34.07.202,OS3_Mult_verification,2022.2.4,MacIntel,62.5,,,,,,,,,,,,,,,,,,27,2.282,1,"[""2"",""7"",""return""]","[1.2160000000000082,1.781000000000006,1.9850000000000136]",,,,,,9 × 3 =,27,0,17,17,17,1,,,,,,,,,,,,,,,,,,,,,,,,,,,,,,,,,,,,,,,,,,,,,,,,,,,,,,,,,,,,,,,,,,,,,,,,,,,,,,,,,,,,,,,,,,,,,,,,,,,,,,,,,,,,,,,,,,,,,,,,,,,,,,,,,,,,,,,,,,,,
,8761,BAC,1/12/2004,001,2023-12-17_14h34.07.202,OS3_Mult_verification,2022.2.4,MacIntel,62.5,,,,,,,,,,,,,,,,,,28,2.249,1,"[""2"",""8"",""return""]","[1.2659999999999627,1.7980000000000018,1.967999999999961]",,,,,,4 × 7 =,28,0,18,18,18,1,,,,,,,,,,,,,,,,,,,,,,,,,,,,,,,,,,,,,,,,,,,,,,,,,,,,,,,,,,,,,,,,,,,,,,,,,,,,,,,,,,,,,,,,,,,,,,,,,,,,,,,,,,,,,,,,,,,,,,,,,,,,,,,,,,,,,,,,,,,,
,8761,BAC,1/12/2004,001,2023-12-17_14h34.07.202,OS3_Mult_verification,2022.2.4,MacIntel,62.5,,,,,,,,,,,,,,,,,,18,2.4,1,"[""1"",""8"",""return""]","[1.4659999999999513,1.9499999999999886,2.113999999999976]",,,,,,2 × 9 =,18,0,19,19,19,1,,,,,,,,,,,,,,,,,,,,,,,,,,,,,,,,,,,,,,,,,,,,,,,,,,,,,,,,,,,,,,,,,,,,,,,,,,,,,,,,,,,,,,,,,,,,,,,,,,,,,,,,,,,,,,,,,,,,,,,,,,,,,,,,,,,,,,,,,,,,
,8761,BAC,1/12/2004,001,2023-12-17_14h34.07.202,OS3_Mult_verification,2022.2.4,MacIntel,62.5,,,,,,,,,,,,,,,,,,72,5.015,1,"[""7"",""2"",""return""]","[4.186000000000092,4.562999999999988,4.713999999999999]",,,,,,9 × 8 =,72,0,20,20,20,1,,,,,,,,,,,,,,,,,,,,,,,,,,,,,,,,,,,,,,,,,,,,,,,,,,,,,,,,,,,,,,,,,,,,,,,,,,,,,,,,,,,,,,,,,,,,,,,,,,,,,,,,,,,,,,,,,,,,,,,,,,,,,,,,,,,,,,,,,,,,
,8761,BAC,1/12/2004,001,2023-12-17_14h34.07.202,OS3_Mult_verification,2022.2.4,MacIntel,62.5,,,,,,,,,,,,,,,,,,42,6.465,1,"[""4"",""2"",""return""]","[5.896000000000015,6.016999999999996,6.168000000000006]",,,,,,7 × 6 =,42,0,21,21,21,1,,,,,,,,,,,,,,,,,,,,,,,,,,,,,,,,,,,,,,,,,,,,,,,,,,,,,,,,,,,,,,,,,,,,,,,,,,,,,,,,,,,,,,,,,,,,,,,,,,,,,,,,,,,,,,,,,,,,,,,,,,,,,,,,,,,,,,,,,,,,
,8761,BAC,1/12/2004,001,2023-12-17_14h34.07.202,OS3_Mult_verification,2022.2.4,MacIntel,62.5,,,,,,,,,,,,,,,,,,54,2.198,1,"[""5"",""4"",""return""]","[1.572999999999979,1.7159999999999513,1.8979999999999677]",,,,,,6 × 9 =,54,0,22,22,22,1,,,,,,,,,,,,,,,,,,,,,,,,,,,,,,,,,,,,,,,,,,,,,,,,,,,,,,,,,,,,,,,,,,,,,,,,,,,,,,,,,,,,,,,,,,,,,,,,,,,,,,,,,,,,,,,,,,,,,,,,,,,,,,,,,,,,,,,,,,,,
,8761,BAC,1/12/2004,001,2023-12-17_14h34.07.202,OS3_Mult_verification,2022.2.4,MacIntel,62.5,,,,,,,,,,,,,,,,,,45,2.032,1,"[""4"",""5"",""return""]","[1.4960000000000377,1.5670000000000073,1.7350000000000136]",,,,,,9 × 5 =,45,0,23,23,23,1,,,,,,,,,,,,,,,,,,,,,,,,,,,,,,,,,,,,,,,,,,,,,,,,,,,,,,,,,,,,,,,,,,,,,,,,,,,,,,,,,,,,,,,,,,,,,,,,,,,,,,,,,,,,,,,,,,,,,,,,,,,,,,,,,,,,,,,,,,,,
,8761,BAC,1/12/2004,001,2023-12-17_14h34.07.202,OS3_Mult_verification,2022.2.4,MacIntel,62.5,,,,,,,,,,,,,,,,,,56,4.915,1,"[""return"",""5"",""6"",""return""]","[2.6160000000000423,4.380000000000052,4.444999999999993,4.615000000000009]",,,,,,8 × 7 =,56,0,24,24,24,1,,,,,,,,,,,,,,,,,,,,,,,,,,,,,,,,,,,,,,,,,,,,,,,,,,,,,,,,,,,,,,,,,,,,,,,,,,,,,,,,,,,,,,,,,,,,,,,,,,,,,,,,,,,,,,,,,,,,,,,,,,,,,,,,,,,,,,,,,,,,
,8761,BAC,1/12/2004,001,2023-12-17_14h34.07.202,OS3_Mult_verification,2022.2.4,MacIntel,62.5,,,,,,,,,,,,,,,,,,36,2.097,1,"[""3"",""6"",""return""]","[1.4139999999999873,1.6809999999999832,1.7989999999999782]",,,,,,6 × 6 =,36,0,25,25,25,1,,,,,,,,,,,,,,,,,,,,,,,,,,,,,,,,,,,,,,,,,,,,,,,,,,,,,,,,,,,,,,,,,,,,,,,,,,,,,,,,,,,,,,,,,,,,,,,,,,,,,,,,,,,,,,,,,,,,,,,,,,,,,,,,,,,,,,,,,,,,
,8761,BAC,1/12/2004,001,2023-12-17_14h34.07.202,OS3_Mult_verification,2022.2.4,MacIntel,62.5,,,,,,,,,,,,,,,,,,35,1.548,1,"[""3"",""5"",""return""]","[0.9729999999999563,1.1319999999999482,1.2559999999999718]",,,,,,5 × 7 =,35,0,26,26,26,1,,,,,,,,,,,,,,,,,,,,,,,,,,,,,,,,,,,,,,,,,,,,,,,,,,,,,,,,,,,,,,,,,,,,,,,,,,,,,,,,,,,,,,,,,,,,,,,,,,,,,,,,,,,,,,,,,,,,,,,,,,,,,,,,,,,,,,,,,,,,
,8761,BAC,1/12/2004,001,2023-12-17_14h34.07.202,OS3_Mult_verification,2022.2.4,MacIntel,62.5,,,,,,,,,,,,,,,,,,32,1.898,0,"[""3"",""2"",""return""]","[1.399000000000001,1.4700000000000273,1.5990000000000464]",,,,,,4 × 9 =,36,0,27,27,27,1,,,,,,,,,,,,,,,,,,,,,,,,,,,,,,,,,,,,,,,,,,,,,,,,,,,,,,,,,,,,,,,,,,,,,,,,,,,,,,,,,,,,,,,,,,,,,,,,,,,,,,,,,,,,,,,,,,,,,,,,,,,,,,,,,,,,,,,,,,,,
,8761,BAC,1/12/2004,001,2023-12-17_14h34.07.202,OS3_Mult_verification,2022.2.4,MacIntel,62.5,,,,,,,,,,,,,,,,,,48,2.399,1,"[""4"",""8"",""return""]","[1.531000000000006,1.9639999999999986,2.098000000000013]",,,,,,8 × 6 =,48,0,28,28,28,1,,,,,,,,,,,,,,,,,,,,,,,,,,,,,,,,,,,,,,,,,,,,,,,,,,,,,,,,,,,,,,,,,,,,,,,,,,,,,,,,,,,,,,,,,,,,,,,,,,,,,,,,,,,,,,,,,,,,,,,,,,,,,,,,,,,,,,,,,,,,
,8761,BAC,1/12/2004,001,2023-12-17_14h34.07.202,OS3_Mult_verification,2022.2.4,MacIntel,62.5,,,,,,,,,,,,,,,,,,63,3.932,1,"[""6"",""3"",""return""]","[3.083000000000027,3.4840000000000373,3.632000000000005]",,,,,,9 × 7 =,63,0,29,29,29,1,,,,,,,,,,,,,,,,,,,,,,,,,,,,,,,,,,,,,,,,,,,,,,,,,,,,,,,,,,,,,,,,,,,,,,,,,,,,,,,,,,,,,,,,,,,,,,,,,,,,,,,,,,,,,,,,,,,,,,,,,,,,,,,,,,,,,,,,,,,,
,8761,BAC,1/12/2004,001,2023-12-17_14h34.07.202,OS3_Mult_verification,2022.2.4,MacIntel,62.5,,,,,,,,,,,,,,,,,,12,1.948,1,"[""1"",""2"",""return""]","[1.0779999999999745,1.4799999999999613,1.6479999999999677]",,,,,,4 × 3 =,12,0,30,30,30,1,,,,,,,,,,,,,,,,,,,,,,,,,,,,,,,,,,,,,,,,,,,,,,,,,,,,,,,,,,,,,,,,,,,,,,,,,,,,,,,,,,,,,,,,,,,,,,,,,,,,,,,,,,,,,,,,,,,,,,,,,,,,,,,,,,,,,,,,,,,,
,8761,BAC,1/12/2004,001,2023-12-17_14h34.07.202,OS3_Mult_verification,2022.2.4,MacIntel,62.5,,,,,,,,,,,,,,,,,,15,1.765,0,"[""1"",""5"",""return""]","[0.9970000000000141,1.2830000000000155,1.4680000000000177]",,,,,,5 × 5 =,25,0,31,31,31,1,,,,,,,,,,,,,,,,,,,,,,,,,,,,,,,,,,,,,,,,,,,,,,,,,,,,,,,,,,,,,,,,,,,,,,,,,,,,,,,,,,,,,,,,,,,,,,,,,,,,,,,,,,,,,,,,,,,,,,,,,,,,,,,,,,,,,,,,,,,,
,8761,BAC,1/12/2004,001,2023-12-17_14h34.07.202,OS3_Mult_verification,2022.2.4,MacIntel,62.5,,,,,,,,,,,,,,,,,,6,2.465,1,"[""5"",""backspace"",""6"",""return""]","[1.2980000000000018,1.9019999999999868,1.9990000000000236,2.165999999999997]",,,,,,3 × 2 =,6,0,32,32,32,1,,,,,,,,,,,,,,,,,,,,,,,,,,,,,,,,,,,,,,,,,,,,,,,,,,,,,,,,,,,,,,,,,,,,,,,,,,,,,,,,,,,,,,,,,,,,,,,,,,,,,,,,,,,,,,,,,,,,,,,,,,,,,,,,,,,,,,,,,,,,
,8761,BAC,1/12/2004,001,2023-12-17_14h34.07.202,OS3_Mult_verification,2022.2.4,MacIntel,62.5,,,,,,,,,,,,,,,,,,20,2.032,1,"[""2"",""0"",""return""]","[1.103999999999985,1.5670000000000073,1.738999999999976]",,,,,,5 × 4 =,20,0,33,33,33,1,,,,,,,,,,,,,,,,,,,,,,,,,,,,,,,,,,,,,,,,,,,,,,,,,,,,,,,,,,,,,,,,,,,,,,,,,,,,,,,,,,,,,,,,,,,,,,,,,,,,,,,,,,,,,,,,,,,,,,,,,,,,,,,,,,,,,,,,,,,,
,8761,BAC,1/12/2004,001,2023-12-17_14h34.07.202,OS3_Mult_verification,2022.2.4,MacIntel,62.5,,,,,,,,,,,,,,,,,,8,1.666,1,"[""8"",""return""]","[1.197999999999979,1.363999999999976]",,,,,,4 × 2 =,8,0,34,34,34,1,,,,,,,,,,,,,,,,,,,,,,,,,,,,,,,,,,,,,,,,,,,,,,,,,,,,,,,,,,,,,,,,,,,,,,,,,,,,,,,,,,,,,,,,,,,,,,,,,,,,,,,,,,,,,,,,,,,,,,,,,,,,,,,,,,,,,,,,,,,,
,8761,BAC,1/12/2004,001,2023-12-17_14h34.07.202,OS3_Mult_verification,2022.2.4,MacIntel,62.5,,,,,,,,,,,,,,,,,,12,1.482,1,"[""1"",""2"",""return""]","[0.9680000000000177,1.0460000000000491,1.1780000000000541]",,,,,,2 × 6 =,12,0,35,35,35,1,,,,,,,,,,,,,,,,,,,,,,,,,,,,,,,,,,,,,,,,,,,,,,,,,,,,,,,,,,,,,,,,,,,,,,,,,,,,,,,,,,,,,,,,,,,,,,,,,,,,,,,,,,,,,,,,,,,,,,,,,,,,,,,,,,,,,,,,,,,,
,8761,BAC,1/12/2004,001,2023-12-17_14h34.07.202,OS3_Mult_verification,2022.2.4,MacIntel,62.5,,,,,,,,,,,,,,,,,,15,1.633,1,"[""1"",""5"",""return""]","[0.8880000000000337,1.1639999999999873,1.330000000000041]",,,,,,3 × 5 =,15,0,36,36,36,1,,,,,,,,,,,,,,,,,,,,,,,,,,,,,,,,,,,,,,,,,,,,,,,,,,,,,,,,,,,,,,,,,,,,,,,,,,,,,,,,,,,,,,,,,,,,,,,,,,,,,,,,,,,,,,,,,,,,,,,,,,,,,,,,,,,,,,,,,,,,
,8761,BAC,1/12/2004,001,2023-12-17_14h34.07.202,OS3_Mult_verification,2022.2.4,MacIntel,62.5,,,,,,,,,,,,,,,,,,18,1.998,1,"[""1"",""8"",""return""]","[1.1270000000000095,1.5459999999999923,1.7019999999999982]",,,,,,6 × 3 =,18,0,37,37,37,1,,,,,,,,,,,,,,,,,,,,,,,,,,,,,,,,,,,,,,,,,,,,,,,,,,,,,,,,,,,,,,,,,,,,,,,,,,,,,,,,,,,,,,,,,,,,,,,,,,,,,,,,,,,,,,,,,,,,,,,,,,,,,,,,,,,,,,,,,,,,
,8761,BAC,1/12/2004,001,2023-12-17_14h34.07.202,OS3_Mult_verification,2022.2.4,MacIntel,62.5,,,,,,,,,,,,,,,,,,10,1.767,1,"[""1"",""0"",""return""]","[0.8629999999999995,1.3290000000000077,1.4800000000000182]",,,,,,2 × 5 =,10,0,38,38,38,1,,,,,,,,,,,,,,,,,,,,,,,,,,,,,,,,,,,,,,,,,,,,,,,,,,,,,,,,,,,,,,,,,,,,,,,,,,,,,,,,,,,,,,,,,,,,,,,,,,,,,,,,,,,,,,,,,,,,,,,,,,,,,,,,,,,,,,,,,,,,
,8761,BAC,1/12/2004,001,2023-12-17_14h34.07.202,OS3_Mult_verification,2022.2.4,MacIntel,62.5,,,,,,,,,,,,,,,,,,,0.498,0,,,,,,,,4 × 8 =,32,0,39,39,39,1,,,,,,,,,,,,,,,,,,,,,,,,,,,,,,,,,,,,,,,,,,,,,,,,,,,,,,,,,,,,,,,,,,,,,,,,,,,,,,,,,,,,,,,,,,,,,,,,,,,,,,,,,,,,,,,,,,,,,,,,,,,,,,,,,,,,,,,,,,,,
,8761,BAC,1/12/2004,001,2023-12-17_14h34.07.202,OS3_Mult_verification,2022.2.4,MacIntel,62.5,,,,,,,,,,,,,,,,space,4.547,,,,,,,,,,,,,,,,,,FALSE,2.731,-0.004310345,-0.372126437,1,0,0,0,0,0,0,1,practice trial,,3,3,,,,,,,,,,,,,,,,,,,,,,,,,,,,,,,,,,,,,,,,,,,,,,,,,,,,,,,,,,,,,,,,,,,,,,,,,,,,,,,,,,,,,,,,,,,,,,,,,,,,,,,,,,,,,,,,,,,,,,,,,,,,
,8761,BAC,1/12/2004,001,2023-12-17_14h34.07.202,OS3_Mult_verification,2022.2.4,MacIntel,62.5,,,,,,,,,,,,,,,,,,,,,,,,,,,,,,,,,,,TRUE,2.649,-0.001436782,-0.341954023,1,0,0,0,1,1,2,1,practice trial,,3,3,,,,,,,,,,,,,,,,,,,,,,,,,,,,,,,,,,,,,,,,,,,,,,,,,,,,,,,,,,,,,,,,,,,,,,,,,,,,,,,,,,,,,,,,,,,,,,,,,,,,,,,,,,,,,,,,,,,,,,,,,,,,
,8761,BAC,1/12/2004,001,2023-12-17_14h34.07.202,OS3_Mult_verification,2022.2.4,MacIntel,62.5,,,,,,,,,,,,,,,,,,,,,,,,,,,,,,,,,,,TRUE,3.133,-0.024425287,-0.323275862,1,0,0,0,2,2,1,1,practice trial,,3,3,,,,,,,,,,,,,,,,,,,,,,,,,,,,,,,,,,,,,,,,,,,,,,,,,,,,,,,,,,,,,,,,,,,,,,,,,,,,,,,,,,,,,,,,,,,,,,,,,,,,,,,,,,,,,,,,,,,,,,,,,,,,
,8761,BAC,1/12/2004,001,2023-12-17_14h34.07.202,OS3_Mult_verification,2022.2.4,MacIntel,62.5,,,,,,,,,,,,,,,,,,,,,,,,,,,,,,,,,,,TRUE,1.883,0.001436782,-0.336206897,1,0,0,,,,,,Trial #1,,2,2,0,0,0,0,1,2,,,,,,,,,,,,,,,,,,,,,,,,,,,,,,,,,,,,,,,,,,,,,,,,,,,,,,,,,,,,,,,,,,,,,,,,,,,,,,,,,,,,,,,,,,,,,,,,,,,,,,,,,,,,,,,,,,,,,,
,8761,BAC,1/12/2004,001,2023-12-17_14h34.07.202,OS3_Mult_verification,2022.2.4,MacIntel,62.5,,,,,,,,,,,,,,,,,,,,,,,,,,,,,,,,,,,TRUE,1.431,-0.005747126,-0.324712644,1,0,0,,,,,,Trial #1,,2,2,0,1,1,1,1,2,,,,,,,,,,,,,,,,,,,,,,,,,,,,,,,,,,,,,,,,,,,,,,,,,,,,,,,,,,,,,,,,,,,,,,,,,,,,,,,,,,,,,,,,,,,,,,,,,,,,,,,,,,,,,,,,,,,,,,
,8761,BAC,1/12/2004,001,2023-12-17_14h34.07.202,OS3_Mult_verification,2022.2.4,MacIntel,62.5,,,,,,,,,,,,,,,,,,,,,,,,,,,,,,,,,,,TRUE,1.716,-0.022988506,-0.323275862,1,0,0,,,,,,Trial #1,,2,2,0,2,2,2,1,2,,,,,,,,,,,,,,,,,,,,,,,,,,,,,,,,,,,,,,,,,,,,,,,,,,,,,,,,,,,,,,,,,,,,,,,,,,,,,,,,,,,,,,,,,,,,,,,,,,,,,,,,,,,,,,,,,,,,,,
,8761,BAC,1/12/2004,001,2023-12-17_14h34.07.202,OS3_Mult_verification,2022.2.4,MacIntel,62.5,,,,,,,,,,,,,,,,,,,,,,,,,,,,,,,,,,,TRUE,1.932,0.073275862,-0.379310345,1,0,0,,,,,,Trial #2,,3,3,0,0,0,0,1,3,,,,,,,,,,,,,,,,,,,,,,,,,,,,,,,,,,,,,,,,,,,,,,,,,,,,,,,,,,,,,,,,,,,,,,,,,,,,,,,,,,,,,,,,,,,,,,,,,,,,,,,,,,,,,,,,,,,,,,
,8761,BAC,1/12/2004,001,2023-12-17_14h34.07.202,OS3_Mult_verification,2022.2.4,MacIntel,62.5,,,,,,,,,,,,,,,,,,,,,,,,,,,,,,,,,,,TRUE,3.399,0.043103448,-0.33045977,1,0,0,,,,,,Trial #2,,3,3,0,1,1,1,1,3,,,,,,,,,,,,,,,,,,,,,,,,,,,,,,,,,,,,,,,,,,,,,,,,,,,,,,,,,,,,,,,,,,,,,,,,,,,,,,,,,,,,,,,,,,,,,,,,,,,,,,,,,,,,,,,,,,,,,,
,8761,BAC,1/12/2004,001,2023-12-17_14h34.07.202,OS3_Mult_verification,2022.2.4,MacIntel,62.5,,,,,,,,,,,,,,,,,,,,,,,,,,,,,,,,,,,TRUE,2.449,0.014367816,-0.318965517,1,0,0,,,,,,Trial #2,,3,3,0,2,2,2,1,3,,,,,,,,,,,,,,,,,,,,,,,,,,,,,,,,,,,,,,,,,,,,,,,,,,,,,,,,,,,,,,,,,,,,,,,,,,,,,,,,,,,,,,,,,,,,,,,,,,,,,,,,,,,,,,,,,,,,,,
,8761,BAC,1/12/2004,001,2023-12-17_14h34.07.202,OS3_Mult_verification,2022.2.4,MacIntel,62.5,,,,,,,,,,,,,,,,,,,,,,,,,,,,,,,,,,,TRUE,2.551,0.027298851,-0.356321839,1,0,0,,,,,,Trial #3,,3,3,0,0,0,0,1,4,,,,,,,,,,,,,,,,,,,,,,,,,,,,,,,,,,,,,,,,,,,,,,,,,,,,,,,,,,,,,,,,,,,,,,,,,,,,,,,,,,,,,,,,,,,,,,,,,,,,,,,,,,,,,,,,,,,,,,
,8761,BAC,1/12/2004,001,2023-12-17_14h34.07.202,OS3_Mult_verification,2022.2.4,MacIntel,62.5,,,,,,,,,,,,,,,,,,,,,,,,,,,,,,,,,,,TRUE,2.116,-0.022988506,-0.36637931,1,0,0,,,,,,Trial #3,,3,3,0,1,1,1,1,4,,,,,,,,,,,,,,,,,,,,,,,,,,,,,,,,,,,,,,,,,,,,,,,,,,,,,,,,,,,,,,,,,,,,,,,,,,,,,,,,,,,,,,,,,,,,,,,,,,,,,,,,,,,,,,,,,,,,,,
,8761,BAC,1/12/2004,001,2023-12-17_14h34.07.202,OS3_Mult_verification,2022.2.4,MacIntel,62.5,,,,,,,,,,,,,,,,,,,,,,,,,,,,,,,,,,,TRUE,2.383,-0.021551724,-0.370689655,1,0,0,,,,,,Trial #3,,3,3,0,2,2,2,1,4,,,,,,,,,,,,,,,,,,,,,,,,,,,,,,,,,,,,,,,,,,,,,,,,,,,,,,,,,,,,,,,,,,,,,,,,,,,,,,,,,,,,,,,,,,,,,,,,,,,,,,,,,,,,,,,,,,,,,,
,8761,BAC,1/12/2004,001,2023-12-17_14h34.07.202,OS3_Mult_verification,2022.2.4,MacIntel,62.5,,,,,,,,,,,,,,,,,,,,,,,,,,,,,,,,,,,TRUE,2.866,-0.03591954,-0.367816092,1,0,0,,,,,,Trial #4,,4,4,0,0,0,0,1,5,,,,,,,,,,,,,,,,,,,,,,,,,,,,,,,,,,,,,,,,,,,,,,,,,,,,,,,,,,,,,,,,,,,,,,,,,,,,,,,,,,,,,,,,,,,,,,,,,,,,,,,,,,,,,,,,,,,,,,
,8761,BAC,1/12/2004,001,2023-12-17_14h34.07.202,OS3_Mult_verification,2022.2.4,MacIntel,62.5,,,,,,,,,,,,,,,,,,,,,,,,,,,,,,,,,,,TRUE,2.833,-0.021551724,-0.372126437,1,0,0,,,,,,Trial #4,,4,4,0,1,1,1,1,5,,,,,,,,,,,,,,,,,,,,,,,,,,,,,,,,,,,,,,,,,,,,,,,,,,,,,,,,,,,,,,,,,,,,,,,,,,,,,,,,,,,,,,,,,,,,,,,,,,,,,,,,,,,,,,,,,,,,,,
,8761,BAC,1/12/2004,001,2023-12-17_14h34.07.202,OS3_Mult_verification,2022.2.4,MacIntel,62.5,,,,,,,,,,,,,,,,,,,,,,,,,,,,,,,,,,,TRUE,2.966,0.030172414,-0.376436782,1,0,0,,,,,,Trial #4,,4,4,0,2,2,2,1,5,,,,,,,,,,,,,,,,,,,,,,,,,,,,,,,,,,,,,,,,,,,,,,,,,,,,,,,,,,,,,,,,,,,,,,,,,,,,,,,,,,,,,,,,,,,,,,,,,,,,,,,,,,,,,,,,,,,,,,
,8761,BAC,1/12/2004,001,2023-12-17_14h34.07.202,OS3_Mult_verification,2022.2.4,MacIntel,62.5,,,,,,,,,,,,,,,,,,,,,,,,,,,,,,,,,,,TRUE,2.916,-0.022988506,-0.323275862,1,0,0,,,,,,Trial #5,,4,4,0,0,0,0,1,6,,,,,,,,,,,,,,,,,,,,,,,,,,,,,,,,,,,,,,,,,,,,,,,,,,,,,,,,,,,,,,,,,,,,,,,,,,,,,,,,,,,,,,,,,,,,,,,,,,,,,,,,,,,,,,,,,,,,,,
,8761,BAC,1/12/2004,001,2023-12-17_14h34.07.202,OS3_Mult_verification,2022.2.4,MacIntel,62.5,,,,,,,,,,,,,,,,,,,,,,,,,,,,,,,,,,,TRUE,3.016,-0.05316092,-0.33045977,1,0,0,,,,,,Trial #5,,4,4,0,1,1,1,1,6,,,,,,,,,,,,,,,,,,,,,,,,,,,,,,,,,,,,,,,,,,,,,,,,,,,,,,,,,,,,,,,,,,,,,,,,,,,,,,,,,,,,,,,,,,,,,,,,,,,,,,,,,,,,,,,,,,,,,,
,8761,BAC,1/12/2004,001,2023-12-17_14h34.07.202,OS3_Mult_verification,2022.2.4,MacIntel,62.5,,,,,,,,,,,,,,,,,,,,,,,,,,,,,,,,,,,TRUE,3.133,-0.00862069,-0.326149425,1,0,0,,,,,,Trial #5,,4,4,0,2,2,2,1,6,,,,,,,,,,,,,,,,,,,,,,,,,,,,,,,,,,,,,,,,,,,,,,,,,,,,,,,,,,,,,,,,,,,,,,,,,,,,,,,,,,,,,,,,,,,,,,,,,,,,,,,,,,,,,,,,,,,,,,
,8761,BAC,1/12/2004,001,2023-12-17_14h34.07.202,OS3_Mult_verification,2022.2.4,MacIntel,62.5,,,,,,,,,,,,,,,,,,,,,,,,,,,,,,,,,,,TRUE,3.966,-0.015804598,-0.357758621,1,0,0,,,,,,Trial #6,,4,4,0,0,0,0,1,7,,,,,,,,,,,,,,,,,,,,,,,,,,,,,,,,,,,,,,,,,,,,,,,,,,,,,,,,,,,,,,,,,,,,,,,,,,,,,,,,,,,,,,,,,,,,,,,,,,,,,,,,,,,,,,,,,,,,,,
,8761,BAC,1/12/2004,001,2023-12-17_14h34.07.202,OS3_Mult_verification,2022.2.4,MacIntel,62.5,,,,,,,,,,,,,,,,,,,,,,,,,,,,,,,,,,,TRUE,4.066,0.043103448,-0.349137931,1,0,0,,,,,,Trial #6,,4,4,0,1,1,1,1,7,,,,,,,,,,,,,,,,,,,,,,,,,,,,,,,,,,,,,,,,,,,,,,,,,,,,,,,,,,,,,,,,,,,,,,,,,,,,,,,,,,,,,,,,,,,,,,,,,,,,,,,,,,,,,,,,,,,,,,
,8761,BAC,1/12/2004,001,2023-12-17_14h34.07.202,OS3_Mult_verification,2022.2.4,MacIntel,62.5,,,,,,,,,,,,,,,,,,,,,,,,,,,,,,,,,,,TRUE,4.25,0.050287356,-0.33045977,1,0,0,,,,,,Trial #6,,4,4,0,2,2,2,1,7,,,,,,,,,,,,,,,,,,,,,,,,,,,,,,,,,,,,,,,,,,,,,,,,,,,,,,,,,,,,,,,,,,,,,,,,,,,,,,,,,,,,,,,,,,,,,,,,,,,,,,,,,,,,,,,,,,,,,,
,8761,BAC,1/12/2004,001,2023-12-17_14h34.07.202,OS3_Mult_verification,2022.2.4,MacIntel,62.5,,,,,,,,,,,,,,,,,,,,,,,,,,,,,,,,,,,TRUE,4.183,0,-0.370689655,1,0,0,,,,,,Trial #7,,4,4,0,0,0,0,1,8,,,,,,,,,,,,,,,,,,,,,,,,,,,,,,,,,,,,,,,,,,,,,,,,,,,,,,,,,,,,,,,,,,,,,,,,,,,,,,,,,,,,,,,,,,,,,,,,,,,,,,,,,,,,,,,,,,,,,,
,8761,BAC,1/12/2004,001,2023-12-17_14h34.07.202,OS3_Mult_verification,2022.2.4,MacIntel,62.5,,,,,,,,,,,,,,,,,,,,,,,,,,,,,,,,,,,TRUE,5.016,0.034482759,-0.33908046,1,0,0,,,,,,Trial #7,,4,4,0,1,1,1,1,8,,,,,,,,,,,,,,,,,,,,,,,,,,,,,,,,,,,,,,,,,,,,,,,,,,,,,,,,,,,,,,,,,,,,,,,,,,,,,,,,,,,,,,,,,,,,,,,,,,,,,,,,,,,,,,,,,,,,,,
,8761,BAC,1/12/2004,001,2023-12-17_14h34.07.202,OS3_Mult_verification,2022.2.4,MacIntel,62.5,,,,,,,,,,,,,,,,,,,,,,,,,,,,,,,,,,,FALSE,5.083,0.047413793,-0.314655172,1,0,0,,,,,,Trial #7,,4,4,0,2,2,2,1,8,,,,,,,,,,,,,,,,,,,,,,,,,,,,,,,,,,,,,,,,,,,,,,,,,,,,,,,,,,,,,,,,,,,,,,,,,,,,,,,,,,,,,,,,,,,,,,,,,,,,,,,,,,,,,,,,,,,,,,
,8761,BAC,1/12/2004,001,2023-12-17_14h34.07.202,OS3_Mult_verification,2022.2.4,MacIntel,62.5,,,,,,,,,,,,,,,,,,,,,,,,,,,,,,,,,,,TRUE,4.499,-0.014367816,-0.360632184,1,0,0,,,,,,Trial #8,,5,5,0,0,0,0,1,9,,,,,,,,,,,,,,,,,,,,,,,,,,,,,,,,,,,,,,,,,,,,,,,,,,,,,,,,,,,,,,,,,,,,,,,,,,,,,,,,,,,,,,,,,,,,,,,,,,,,,,,,,,,,,,,,,,,,,,
,8761,BAC,1/12/2004,001,2023-12-17_14h34.07.202,OS3_Mult_verification,2022.2.4,MacIntel,62.5,,,,,,,,,,,,,,,,,,,,,,,,,,,,,,,,,,,FALSE,5.1,0.015804598,-0.343390805,1,0,0,,,,,,Trial #8,,5,5,0,1,1,1,1,9,,,,,,,,,,,,,,,,,,,,,,,,,,,,,,,,,,,,,,,,,,,,,,,,,,,,,,,,,,,,,,,,,,,,,,,,,,,,,,,,,,,,,,,,,,,,,,,,,,,,,,,,,,,,,,,,,,,,,,
,8761,BAC,1/12/2004,001,2023-12-17_14h34.07.202,OS3_Mult_verification,2022.2.4,MacIntel,62.5,,,,,,,,,,,,,,,,,,,,,,,,,,,,,,,,,,,TRUE,4.701,0.074712644,-0.359195402,1,0,0,,,,,,Trial #8,,5,5,0,2,2,2,1,9,,,,,,,,,,,,,,,,,,,,,,,,,,,,,,,,,,,,,,,,,,,,,,,,,,,,,,,,,,,,,,,,,,,,,,,,,,,,,,,,,,,,,,,,,,,,,,,,,,,,,,,,,,,,,,,,,,,,,,
,8761,BAC,1/12/2004,001,2023-12-17_14h34.07.202,OS3_Mult_verification,2022.2.4,MacIntel,62.5,,,,,,,,,,,,,,,,,,,,,,,,,,,,,,,,,,,TRUE,5.566,0.056034483,-0.334770115,1,0,0,,,,,,Trial #9,,5,5,0,0,0,0,1,10,,,,,,,,,,,,,,,,,,,,,,,,,,,,,,,,,,,,,,,,,,,,,,,,,,,,,,,,,,,,,,,,,,,,,,,,,,,,,,,,,,,,,,,,,,,,,,,,,,,,,,,,,,,,,,,,,,,,,,
,8761,BAC,1/12/2004,001,2023-12-17_14h34.07.202,OS3_Mult_verification,2022.2.4,MacIntel,62.5,,,,,,,,,,,,,,,,,,,,,,,,,,,,,,,,,,,TRUE,5.783,0.011494253,-0.341954023,1,0,0,,,,,,Trial #9,,5,5,0,1,1,1,1,10,,,,,,,,,,,,,,,,,,,,,,,,,,,,,,,,,,,,,,,,,,,,,,,,,,,,,,,,,,,,,,,,,,,,,,,,,,,,,,,,,,,,,,,,,,,,,,,,,,,,,,,,,,,,,,,,,,,,,,
,8761,BAC,1/12/2004,001,2023-12-17_14h34.07.202,OS3_Mult_verification,2022.2.4,MacIntel,62.5,,,,,,,,,,,,,,,,,,,,,,,,,,,,,,,,,,,FALSE,4.483,0.005747126,-0.353448276,1,0,0,,,,,,Trial #9,,5,5,0,2,2,2,1,10,,,,,,,,,,,,,,,,,,,,,,,,,,,,,,,,,,,,,,,,,,,,,,,,,,,,,,,,,,,,,,,,,,,,,,,,,,,,,,,,,,,,,,,,,,,,,,,,,,,,,,,,,,,,,,,,,,,,,,
,8761,BAC,1/12/2004,001,2023-12-17_14h34.07.202,OS3_Mult_verification,2022.2.4,MacIntel,62.5,,,,,,,,,,,,,,,,,,,,,,,,,,,,,,,,,,,FALSE,5.449,0.038793103,-0.336206897,1,0,0,,,,,,Trial #10,,5,5,0,0,0,0,1,11,,,,,,,,,,,,,,,,,,,,,,,,,,,,,,,,,,,,,,,,,,,,,,,,,,,,,,,,,,,,,,,,,,,,,,,,,,,,,,,,,,,,,,,,,,,,,,,,,,,,,,,,,,,,,,,,,,,,,,
,8761,BAC,1/12/2004,001,2023-12-17_14h34.07.202,OS3_Mult_verification,2022.2.4,MacIntel,62.5,,,,,,,,,,,,,,,,,,,,,,,,,,,,,,,,,,,FALSE,9.017,0.022988506,-0.333333333,1,0,0,,,,,,Trial #10,,5,5,0,1,1,1,1,11,,,,,,,,,,,,,,,,,,,,,,,,,,,,,,,,,,,,,,,,,,,,,,,,,,,,,,,,,,,,,,,,,,,,,,,,,,,,,,,,,,,,,,,,,,,,,,,,,,,,,,,,,,,,,,,,,,,,,,
,8761,BAC,1/12/2004,001,2023-12-17_14h34.07.202,OS3_Mult_verification,2022.2.4,MacIntel,62.5,,,,,,,,,,,,,,,,,,,,,,,,,,,,,,,,,,,FALSE,7.933,0.038793103,-0.382183908,1,0,0,,,,,,Trial #10,,5,5,0,2,2,2,1,11,,,,,,,,,,,,,,,,,,,,,,,,,,,,,,,,,,,,,,,,,,,,,,,,,,,,,,,,,,,,,,,,,,,,,,,,,,,,,,,,,,,,,,,,,,,,,,,,,,,,,,,,,,,,,,,,,,,,,,
,8761,BAC,1/12/2004,001,2023-12-17_14h34.07.202,OS3_Mult_verification,2022.2.4,MacIntel,62.5,,,,,,,,,,,,,,,,,,,,,,,,,,,,,,,,,,,,,,,,,,,,,,,,,,,,,,,,,0,0,0,0,1,,,,,,,,,,,,,,,,,,,,,,,,,,,,,,,,,,,,,,,,,,,,,,,,,,,,,,,,,,,,,,,,,,,,,,,,,,,,,,,,,,,,,,,,,,,,,,,,,,,,,,,,,,,,,,,,,
,8761,BAC,1/12/2004,001,2023-12-17_14h34.07.202,OS3_Mult_verification,2022.2.4,MacIntel,62.5,,,,,,,,,,,,,,,,,,,,,,,,,,,,,,,,,,,,,,,,,,,,,,,,,,,,,,,,,,,,,,0,0,0,0,1,0,1,0,,,,,,,,,,,,,,,,,,,,,,,,,,,,,,,,,,,,,,,,,,,,,,,,,,,,,,,,,,,,,,,,,,,,,,,,,,,,,,,,,,,,,,,,,,,,,,,,,,,,,,,,,
,8761,BAC,1/12/2004,001,2023-12-17_14h34.07.202,OS3_Mult_verification,2022.2.4,MacIntel,62.5,,,,,,,,,,,,,,,,space,1.284,,,,,,,,,,,,,,,,,,,,,,,,,,,,,,,,,,,,,,,,,,,,,,,,,,,,,left,1,1.509,0,0,0,0,1,practice,9,8,9 | 8,1,0.065,0.05,congruent,left,,,,,,,,,,,,,,,,,,,,,,,,,,,,,,,,,,,,,,,,,,,,,,,,,,,,,,,,,,,,,,,,,,,,,,,,,,,,,,,,,,,,,,,,
,8761,BAC,1/12/2004,001,2023-12-17_14h34.07.202,OS3_Mult_verification,2022.2.4,MacIntel,62.5,,,,,,,,,,,,,,,,,,,,,,,,,,,,,,,,,,,,,,,,,,,,,,,,,,,,,,,,,,,,,,,,,,,,,,right,1,0.679,0,1,1,2,1,practice,9,9,9 | 9,0,0.05,0.065,neutral,right,,,,,,,,,,,,,,,,,,,,,,,,,,,,,,,,,,,,,,,,,,,,,,,,,,,,,,,,,,,,,,,,,,,,,,,,,,,,,,,,,,,,,,,,
,8761,BAC,1/12/2004,001,2023-12-17_14h34.07.202,OS3_Mult_verification,2022.2.4,MacIntel,62.5,,,,,,,,,,,,,,,,,,,,,,,,,,,,,,,,,,,,,,,,,,,,,,,,,,,,,,,,,,,,,,,,,,,,,,right,1,0.662,0,2,2,1,1,practice,4,3,4 | 3,1,0.05,0.065,incongruent,right,,,,,,,,,,,,,,,,,,,,,,,,,,,,,,,,,,,,,,,,,,,,,,,,,,,,,,,,,,,,,,,,,,,,,,,,,,,,,,,,,,,,,,,,
,8761,BAC,1/12/2004,001,2023-12-17_14h34.07.202,OS3_Mult_verification,2022.2.4,MacIntel,62.5,,,,,,,,,,,,,,,,,,,,,,,,,,,,,,,,,,,,,,,,,,,,,,,,,,,,,,,,,,,,,,,,,,,,,,left,1,0.747,,,,,,physical,1,1,1 | 1,0,0.065,0.05,neutral,left,0,0,0,48,1,,,,,,,,,,,,,,,,,,,,,,,,,,,,,,,,,,,,,,,,,,,,,,,,,,,,,,,,,,,,,,,,,,,,,,,,,,,,,,,,,,,
,8761,BAC,1/12/2004,001,2023-12-17_14h34.07.202,OS3_Mult_verification,2022.2.4,MacIntel,62.5,,,,,,,,,,,,,,,,,,,,,,,,,,,,,,,,,,,,,,,,,,,,,,,,,,,,,,,,,,,,,,,,,,,,,,right,1,1.01,,,,,,physical,9,7,9 | 7,2,0.05,0.065,incongruent,right,0,1,1,39,1,,,,,,,,,,,,,,,,,,,,,,,,,,,,,,,,,,,,,,,,,,,,,,,,,,,,,,,,,,,,,,,,,,,,,,,,,,,,,,,,,,,
,8761,BAC,1/12/2004,001,2023-12-17_14h34.07.202,OS3_Mult_verification,2022.2.4,MacIntel,62.5,,,,,,,,,,,,,,,,,,,,,,,,,,,,,,,,,,,,,,,,,,,,,,,,,,,,,,,,,,,,,,,,,,,,,,left,1,0.561,,,,,,physical,7,6,7 | 6,1,0.065,0.05,congruent,left,0,2,2,6,1,,,,,,,,,,,,,,,,,,,,,,,,,,,,,,,,,,,,,,,,,,,,,,,,,,,,,,,,,,,,,,,,,,,,,,,,,,,,,,,,,,,
,8761,BAC,1/12/2004,001,2023-12-17_14h34.07.202,OS3_Mult_verification,2022.2.4,MacIntel,62.5,,,,,,,,,,,,,,,,,,,,,,,,,,,,,,,,,,,,,,,,,,,,,,,,,,,,,,,,,,,,,,,,,,,,,,right,1,0.595,,,,,,physical,9,9,9 | 9,0,0.05,0.065,neutral,right,0,3,3,63,1,,,,,,,,,,,,,,,,,,,,,,,,,,,,,,,,,,,,,,,,,,,,,,,,,,,,,,,,,,,,,,,,,,,,,,,,,,,,,,,,,,,
,8761,BAC,1/12/2004,001,2023-12-17_14h34.07.202,OS3_Mult_verification,2022.2.4,MacIntel,62.5,,,,,,,,,,,,,,,,,,,,,,,,,,,,,,,,,,,,,,,,,,,,,,,,,,,,,,,,,,,,,,,,,,,,,,left,1,0.696,,,,,,physical,1,3,1 | 3,2,0.065,0.05,incongruent,left,0,4,4,32,1,,,,,,,,,,,,,,,,,,,,,,,,,,,,,,,,,,,,,,,,,,,,,,,,,,,,,,,,,,,,,,,,,,,,,,,,,,,,,,,,,,,
,8761,BAC,1/12/2004,001,2023-12-17_14h34.07.202,OS3_Mult_verification,2022.2.4,MacIntel,62.5,,,,,,,,,,,,,,,,,,,,,,,,,,,,,,,,,,,,,,,,,,,,,,,,,,,,,,,,,,,,,,,,,,,,,,right,1,0.562,,,,,,physical,2,4,2 | 4,2,0.05,0.065,congruent,right,0,5,5,9,1,,,,,,,,,,,,,,,,,,,,,,,,,,,,,,,,,,,,,,,,,,,,,,,,,,,,,,,,,,,,,,,,,,,,,,,,,,,,,,,,,,,
,8761,BAC,1/12/2004,001,2023-12-17_14h34.07.202,OS3_Mult_verification,2022.2.4,MacIntel,62.5,,,,,,,,,,,,,,,,,,,,,,,,,,,,,,,,,,,,,,,,,,,,,,,,,,,,,,,,,,,,,,,,,,,,,,right,1,0.596,,,,,,physical,7,9,7 | 9,2,0.05,0.065,congruent,right,0,6,6,11,1,,,,,,,,,,,,,,,,,,,,,,,,,,,,,,,,,,,,,,,,,,,,,,,,,,,,,,,,,,,,,,,,,,,,,,,,,,,,,,,,,,,
,8761,BAC,1/12/2004,001,2023-12-17_14h34.07.202,OS3_Mult_verification,2022.2.4,MacIntel,62.5,,,,,,,,,,,,,,,,,,,,,,,,,,,,,,,,,,,,,,,,,,,,,,,,,,,,,,,,,,,,,,,,,,,,,,left,1,0.696,,,,,,physical,8,8,8 | 8,0,0.065,0.05,neutral,left,0,7,7,70,1,,,,,,,,,,,,,,,,,,,,,,,,,,,,,,,,,,,,,,,,,,,,,,,,,,,,,,,,,,,,,,,,,,,,,,,,,,,,,,,,,,,
,8761,BAC,1/12/2004,001,2023-12-17_14h34.07.202,OS3_Mult_verification,2022.2.4,MacIntel,62.5,,,,,,,,,,,,,,,,,,,,,,,,,,,,,,,,,,,,,,,,,,,,,,,,,,,,,,,,,,,,,,,,,,,,,,right,1,0.461,,,,,,physical,1,3,1 | 3,2,0.05,0.065,congruent,right,0,8,8,8,1,,,,,,,,,,,,,,,,,,,,,,,,,,,,,,,,,,,,,,,,,,,,,,,,,,,,,,,,,,,,,,,,,,,,,,,,,,,,,,,,,,,
,8761,BAC,1/12/2004,001,2023-12-17_14h34.07.202,OS3_Mult_verification,2022.2.4,MacIntel,62.5,,,,,,,,,,,,,,,,,,,,,,,,,,,,,,,,,,,,,,,,,,,,,,,,,,,,,,,,,,,,,,,,,,,,,,left,1,0.463,,,,,,physical,7,9,7 | 9,2,0.065,0.05,incongruent,left,0,9,9,35,1,,,,,,,,,,,,,,,,,,,,,,,,,,,,,,,,,,,,,,,,,,,,,,,,,,,,,,,,,,,,,,,,,,,,,,,,,,,,,,,,,,,
,8761,BAC,1/12/2004,001,2023-12-17_14h34.07.202,OS3_Mult_verification,2022.2.4,MacIntel,62.5,,,,,,,,,,,,,,,,,,,,,,,,,,,,,,,,,,,,,,,,,,,,,,,,,,,,,,,,,,,,,,,,,,,,,,right,1,0.57,,,,,,physical,2,2,2 | 2,0,0.05,0.065,neutral,right,0,10,10,65,1,,,,,,,,,,,,,,,,,,,,,,,,,,,,,,,,,,,,,,,,,,,,,,,,,,,,,,,,,,,,,,,,,,,,,,,,,,,,,,,,,,,
,8761,BAC,1/12/2004,001,2023-12-17_14h34.07.202,OS3_Mult_verification,2022.2.4,MacIntel,62.5,,,,,,,,,,,,,,,,,,,,,,,,,,,,,,,,,,,,,,,,,,,,,,,,,,,,,,,,,,,,,,,,,,,,,,right,1,0.53,,,,,,physical,6,6,6 | 6,0,0.05,0.065,neutral,right,0,11,11,58,1,,,,,,,,,,,,,,,,,,,,,,,,,,,,,,,,,,,,,,,,,,,,,,,,,,,,,,,,,,,,,,,,,,,,,,,,,,,,,,,,,,,
,8761,BAC,1/12/2004,001,2023-12-17_14h34.07.202,OS3_Mult_verification,2022.2.4,MacIntel,62.5,,,,,,,,,,,,,,,,,,,,,,,,,,,,,,,,,,,,,,,,,,,,,,,,,,,,,,,,,,,,,,,,,,,,,,right,1,0.86,,,,,,physical,1,1,1 | 1,0,0.05,0.065,neutral,right,0,12,12,56,1,,,,,,,,,,,,,,,,,,,,,,,,,,,,,,,,,,,,,,,,,,,,,,,,,,,,,,,,,,,,,,,,,,,,,,,,,,,,,,,,,,,
,8761,BAC,1/12/2004,001,2023-12-17_14h34.07.202,OS3_Mult_verification,2022.2.4,MacIntel,62.5,,,,,,,,,,,,,,,,,,,,,,,,,,,,,,,,,,,,,,,,,,,,,,,,,,,,,,,,,,,,,,,,,,,,,,right,1,0.863,,,,,,physical,4,3,4 | 3,1,0.05,0.065,incongruent,right,0,13,13,29,1,,,,,,,,,,,,,,,,,,,,,,,,,,,,,,,,,,,,,,,,,,,,,,,,,,,,,,,,,,,,,,,,,,,,,,,,,,,,,,,,,,,
,8761,BAC,1/12/2004,001,2023-12-17_14h34.07.202,OS3_Mult_verification,2022.2.4,MacIntel,62.5,,,,,,,,,,,,,,,,,,,,,,,,,,,,,,,,,,,,,,,,,,,,,,,,,,,,,,,,,,,,,,,,,,,,,,left,1,0.602,,,,,,physical,3,3,3 | 3,0,0.065,0.05,neutral,left,0,14,14,49,1,,,,,,,,,,,,,,,,,,,,,,,,,,,,,,,,,,,,,,,,,,,,,,,,,,,,,,,,,,,,,,,,,,,,,,,,,,,,,,,,,,,
,8761,BAC,1/12/2004,001,2023-12-17_14h34.07.202,OS3_Mult_verification,2022.2.4,MacIntel,62.5,,,,,,,,,,,,,,,,,,,,,,,,,,,,,,,,,,,,,,,,,,,,,,,,,,,,,,,,,,,,,,,,,,,,,,right,1,0.627,,,,,,physical,7,7,7 | 7,0,0.05,0.065,neutral,right,0,15,15,59,1,,,,,,,,,,,,,,,,,,,,,,,,,,,,,,,,,,,,,,,,,,,,,,,,,,,,,,,,,,,,,,,,,,,,,,,,,,,,,,,,,,,
,8761,BAC,1/12/2004,001,2023-12-17_14h34.07.202,OS3_Mult_verification,2022.2.4,MacIntel,62.5,,,,,,,,,,,,,,,,,,,,,,,,,,,,,,,,,,,,,,,,,,,,,,,,,,,,,,,,,,,,,,,,,,,,,,right,1,0.831,,,,,,physical,7,6,7 | 6,1,0.05,0.065,incongruent,right,0,16,16,30,1,,,,,,,,,,,,,,,,,,,,,,,,,,,,,,,,,,,,,,,,,,,,,,,,,,,,,,,,,,,,,,,,,,,,,,,,,,,,,,,,,,,
,8761,BAC,1/12/2004,001,2023-12-17_14h34.07.202,OS3_Mult_verification,2022.2.4,MacIntel,62.5,,,,,,,,,,,,,,,,,,,,,,,,,,,,,,,,,,,,,,,,,,,,,,,,,,,,,,,,,,,,,,,,,,,,,,left,1,0.728,,,,,,physical,7,2,7 | 2,5,0.065,0.05,congruent,left,0,17,17,21,1,,,,,,,,,,,,,,,,,,,,,,,,,,,,,,,,,,,,,,,,,,,,,,,,,,,,,,,,,,,,,,,,,,,,,,,,,,,,,,,,,,,
,8761,BAC,1/12/2004,001,2023-12-17_14h34.07.202,OS3_Mult_verification,2022.2.4,MacIntel,62.5,,,,,,,,,,,,,,,,,,,,,,,,,,,,,,,,,,,,,,,,,,,,,,,,,,,,,,,,,,,,,,,,,,,,,,left,1,0.632,,,,,,physical,2,2,2 | 2,0,0.065,0.05,neutral,left,0,18,18,52,1,,,,,,,,,,,,,,,,,,,,,,,,,,,,,,,,,,,,,,,,,,,,,,,,,,,,,,,,,,,,,,,,,,,,,,,,,,,,,,,,,,,
,8761,BAC,1/12/2004,001,2023-12-17_14h34.07.202,OS3_Mult_verification,2022.2.4,MacIntel,62.5,,,,,,,,,,,,,,,,,,,,,,,,,,,,,,,,,,,,,,,,,,,,,,,,,,,,,,,,,,,,,,,,,,,,,,left,1,0.593,,,,,,physical,7,7,7 | 7,0,0.065,0.05,neutral,left,0,19,19,54,1,,,,,,,,,,,,,,,,,,,,,,,,,,,,,,,,,,,,,,,,,,,,,,,,,,,,,,,,,,,,,,,,,,,,,,,,,,,,,,,,,,,
,8761,BAC,1/12/2004,001,2023-12-17_14h34.07.202,OS3_Mult_verification,2022.2.4,MacIntel,62.5,,,,,,,,,,,,,,,,,,,,,,,,,,,,,,,,,,,,,,,,,,,,,,,,,,,,,,,,,,,,,,,,,,,,,,right,1,0.692,,,,,,physical,8,9,8 | 9,1,0.05,0.065,congruent,right,0,20,20,3,1,,,,,,,,,,,,,,,,,,,,,,,,,,,,,,,,,,,,,,,,,,,,,,,,,,,,,,,,,,,,,,,,,,,,,,,,,,,,,,,,,,,
,8761,BAC,1/12/2004,001,2023-12-17_14h34.07.202,OS3_Mult_verification,2022.2.4,MacIntel,62.5,,,,,,,,,,,,,,,,,,,,,,,,,,,,,,,,,,,,,,,,,,,,,,,,,,,,,,,,,,,,,,,,,,,,,,left,1,0.565,,,,,,physical,4,9,4 | 9,5,0.065,0.05,incongruent,left,0,21,21,43,1,,,,,,,,,,,,,,,,,,,,,,,,,,,,,,,,,,,,,,,,,,,,,,,,,,,,,,,,,,,,,,,,,,,,,,,,,,,,,,,,,,,
,8761,BAC,1/12/2004,001,2023-12-17_14h34.07.202,OS3_Mult_verification,2022.2.4,MacIntel,62.5,,,,,,,,,,,,,,,,,,,,,,,,,,,,,,,,,,,,,,,,,,,,,,,,,,,,,,,,,,,,,,,,,,,,,,right,1,0.603,,,,,,physical,4,4,4 | 4,0,0.05,0.065,neutral,right,0,22,22,67,1,,,,,,,,,,,,,,,,,,,,,,,,,,,,,,,,,,,,,,,,,,,,,,,,,,,,,,,,,,,,,,,,,,,,,,,,,,,,,,,,,,,
,8761,BAC,1/12/2004,001,2023-12-17_14h34.07.202,OS3_Mult_verification,2022.2.4,MacIntel,62.5,,,,,,,,,,,,,,,,,,,,,,,,,,,,,,,,,,,,,,,,,,,,,,,,,,,,,,,,,,,,,,,,,,,,,,left,1,0.61,,,,,,physical,6,6,6 | 6,0,0.065,0.05,neutral,left,0,23,23,50,1,,,,,,,,,,,,,,,,,,,,,,,,,,,,,,,,,,,,,,,,,,,,,,,,,,,,,,,,,,,,,,,,,,,,,,,,,,,,,,,,,,,
,8761,BAC,1/12/2004,001,2023-12-17_14h34.07.202,OS3_Mult_verification,2022.2.4,MacIntel,62.5,,,,,,,,,,,,,,,,,,,,,,,,,,,,,,,,,,,,,,,,,,,,,,,,,,,,,,,,,,,,,,,,,,,,,,right,1,0.43,,,,,,physical,2,2,2 | 2,0,0.05,0.065,neutral,right,0,24,24,57,1,,,,,,,,,,,,,,,,,,,,,,,,,,,,,,,,,,,,,,,,,,,,,,,,,,,,,,,,,,,,,,,,,,,,,,,,,,,,,,,,,,,
,8761,BAC,1/12/2004,001,2023-12-17_14h34.07.202,OS3_Mult_verification,2022.2.4,MacIntel,62.5,,,,,,,,,,,,,,,,,,,,,,,,,,,,,,,,,,,,,,,,,,,,,,,,,,,,,,,,,,,,,,,,,,,,,,left,1,0.527,,,,,,physical,4,2,4 | 2,2,0.065,0.05,congruent,left,0,25,25,13,1,,,,,,,,,,,,,,,,,,,,,,,,,,,,,,,,,,,,,,,,,,,,,,,,,,,,,,,,,,,,,,,,,,,,,,,,,,,,,,,,,,,
,8761,BAC,1/12/2004,001,2023-12-17_14h34.07.202,OS3_Mult_verification,2022.2.4,MacIntel,62.5,,,,,,,,,,,,,,,,,,,,,,,,,,,,,,,,,,,,,,,,,,,,,,,,,,,,,,,,,,,,,,,,,,,,,,right,0,0.331,,,,,,physical,6,6,6 | 6,0,0.065,0.05,neutral,left,0,26,26,68,1,,,,,,,,,,,,,,,,,,,,,,,,,,,,,,,,,,,,,,,,,,,,,,,,,,,,,,,,,,,,,,,,,,,,,,,,,,,,,,,,,,,
,8761,BAC,1/12/2004,001,2023-12-17_14h34.07.202,OS3_Mult_verification,2022.2.4,MacIntel,62.5,,,,,,,,,,,,,,,,,,,,,,,,,,,,,,,,,,,,,,,,,,,,,,,,,,,,,,,,,,,,,,,,,,,,,,left,1,0.809,,,,,,physical,1,1,1 | 1,0,0.065,0.05,neutral,left,0,27,27,64,1,,,,,,,,,,,,,,,,,,,,,,,,,,,,,,,,,,,,,,,,,,,,,,,,,,,,,,,,,,,,,,,,,,,,,,,,,,,,,,,,,,,
,8761,BAC,1/12/2004,001,2023-12-17_14h34.07.202,OS3_Mult_verification,2022.2.4,MacIntel,62.5,,,,,,,,,,,,,,,,,,,,,,,,,,,,,,,,,,,,,,,,,,,,,,,,,,,,,,,,,,,,,,,,,,,,,,left,1,0.677,,,,,,physical,8,8,8 | 8,0,0.065,0.05,neutral,left,0,28,28,51,1,,,,,,,,,,,,,,,,,,,,,,,,,,,,,,,,,,,,,,,,,,,,,,,,,,,,,,,,,,,,,,,,,,,,,,,,,,,,,,,,,,,
,8761,BAC,1/12/2004,001,2023-12-17_14h34.07.202,OS3_Mult_verification,2022.2.4,MacIntel,62.5,,,,,,,,,,,,,,,,,,,,,,,,,,,,,,,,,,,,,,,,,,,,,,,,,,,,,,,,,,,,,,,,,,,,,,left,1,0.49,,,,,,physical,6,8,6 | 8,2,0.065,0.05,incongruent,left,0,29,29,34,1,,,,,,,,,,,,,,,,,,,,,,,,,,,,,,,,,,,,,,,,,,,,,,,,,,,,,,,,,,,,,,,,,,,,,,,,,,,,,,,,,,,
,8761,BAC,1/12/2004,001,2023-12-17_14h34.07.202,OS3_Mult_verification,2022.2.4,MacIntel,62.5,,,,,,,,,,,,,,,,,,,,,,,,,,,,,,,,,,,,,,,,,,,,,,,,,,,,,,,,,,,,,,,,,,,,,,right,1,0.559,,,,,,physical,3,3,3 | 3,0,0.05,0.065,neutral,right,0,30,30,60,1,,,,,,,,,,,,,,,,,,,,,,,,,,,,,,,,,,,,,,,,,,,,,,,,,,,,,,,,,,,,,,,,,,,,,,,,,,,,,,,,,,,
,8761,BAC,1/12/2004,001,2023-12-17_14h34.07.202,OS3_Mult_verification,2022.2.4,MacIntel,62.5,,,,,,,,,,,,,,,,,,,,,,,,,,,,,,,,,,,,,,,,,,,,,,,,,,,,,,,,,,,,,,,,,,,,,,left,1,0.417,,,,,,physical,8,3,8 | 3,5,0.065,0.05,congruent,left,0,31,31,22,1,,,,,,,,,,,,,,,,,,,,,,,,,,,,,,,,,,,,,,,,,,,,,,,,,,,,,,,,,,,,,,,,,,,,,,,,,,,,,,,,,,,
,8761,BAC,1/12/2004,001,2023-12-17_14h34.07.202,OS3_Mult_verification,2022.2.4,MacIntel,62.5,,,,,,,,,,,,,,,,,,,,,,,,,,,,,,,,,,,,,,,,,,,,,,,,,,,,,,,,,,,,,,,,,,,,,,left,0,0.404,,,,,,physical,8,8,8 | 8,0,0.05,0.065,neutral,right,0,32,32,62,1,,,,,,,,,,,,,,,,,,,,,,,,,,,,,,,,,,,,,,,,,,,,,,,,,,,,,,,,,,,,,,,,,,,,,,,,,,,,,,,,,,,
,8761,BAC,1/12/2004,001,2023-12-17_14h34.07.202,OS3_Mult_verification,2022.2.4,MacIntel,62.5,,,,,,,,,,,,,,,,,,,,,,,,,,,,,,,,,,,,,,,,,,,,,,,,,,,,,,,,,,,,,,,,,,,,,,left,1,0.634,,,,,,physical,8,6,8 | 6,2,0.065,0.05,congruent,left,0,33,33,14,1,,,,,,,,,,,,,,,,,,,,,,,,,,,,,,,,,,,,,,,,,,,,,,,,,,,,,,,,,,,,,,,,,,,,,,,,,,,,,,,,,,,
,8761,BAC,1/12/2004,001,2023-12-17_14h34.07.202,OS3_Mult_verification,2022.2.4,MacIntel,62.5,,,,,,,,,,,,,,,,,,,,,,,,,,,,,,,,,,,,,,,,,,,,,,,,,,,,,,,,,,,,,,,,,,,,,,right,1,0.478,,,,,,physical,9,4,9 | 4,5,0.05,0.065,incongruent,right,0,34,34,47,1,,,,,,,,,,,,,,,,,,,,,,,,,,,,,,,,,,,,,,,,,,,,,,,,,,,,,,,,,,,,,,,,,,,,,,,,,,,,,,,,,,,
,8761,BAC,1/12/2004,001,2023-12-17_14h34.07.202,OS3_Mult_verification,2022.2.4,MacIntel,62.5,,,,,,,,,,,,,,,,,,,,,,,,,,,,,,,,,,,,,,,,,,,,,,,,,,,,,,,,,,,,,,,,,,,,,,left,1,0.504,,,,,,physical,9,7,9 | 7,2,0.065,0.05,congruent,left,0,35,35,15,1,,,,,,,,,,,,,,,,,,,,,,,,,,,,,,,,,,,,,,,,,,,,,,,,,,,,,,,,,,,,,,,,,,,,,,,,,,,,,,,,,,,
,8761,BAC,1/12/2004,001,2023-12-17_14h34.07.202,OS3_Mult_verification,2022.2.4,MacIntel,62.5,,,,,,,,,,,,,,,,,,,,,,,,,,,,,,,,,,,,,,,,,,,,,,,,,,,,,,,,,,,,,,,,,,,,,,left,1,0.636,,,,,,physical,9,9,9 | 9,0,0.065,0.05,neutral,left,0,36,36,55,1,,,,,,,,,,,,,,,,,,,,,,,,,,,,,,,,,,,,,,,,,,,,,,,,,,,,,,,,,,,,,,,,,,,,,,,,,,,,,,,,,,,
,8761,BAC,1/12/2004,001,2023-12-17_14h34.07.202,OS3_Mult_verification,2022.2.4,MacIntel,62.5,,,,,,,,,,,,,,,,,,,,,,,,,,,,,,,,,,,,,,,,,,,,,,,,,,,,,,,,,,,,,,,,,,,,,,left,1,0.595,,,,,,physical,3,4,3 | 4,1,0.065,0.05,incongruent,left,0,37,37,25,1,,,,,,,,,,,,,,,,,,,,,,,,,,,,,,,,,,,,,,,,,,,,,,,,,,,,,,,,,,,,,,,,,,,,,,,,,,,,,,,,,,,
,8761,BAC,1/12/2004,001,2023-12-17_14h34.07.202,OS3_Mult_verification,2022.2.4,MacIntel,62.5,,,,,,,,,,,,,,,,,,,,,,,,,,,,,,,,,,,,,,,,,,,,,,,,,,,,,,,,,,,,,,,,,,,,,,left,1,0.58,,,,,,physical,6,7,6 | 7,1,0.065,0.05,incongruent,left,0,38,38,26,1,,,,,,,,,,,,,,,,,,,,,,,,,,,,,,,,,,,,,,,,,,,,,,,,,,,,,,,,,,,,,,,,,,,,,,,,,,,,,,,,,,,
,8761,BAC,1/12/2004,001,2023-12-17_14h34.07.202,OS3_Mult_verification,2022.2.4,MacIntel,62.5,,,,,,,,,,,,,,,,,,,,,,,,,,,,,,,,,,,,,,,,,,,,,,,,,,,,,,,,,,,,,,,,,,,,,,right,1,0.513,,,,,,physical,3,1,3 | 1,2,0.05,0.065,incongruent,right,0,39,39,36,1,,,,,,,,,,,,,,,,,,,,,,,,,,,,,,,,,,,,,,,,,,,,,,,,,,,,,,,,,,,,,,,,,,,,,,,,,,,,,,,,,,,
,8761,BAC,1/12/2004,001,2023-12-17_14h34.07.202,OS3_Mult_verification,2022.2.4,MacIntel,62.5,,,,,,,,,,,,,,,,,,,,,,,,,,,,,,,,,,,,,,,,,,,,,,,,,,,,,,,,,,,,,,,,,,,,,,left,1,1.102,,,,,,physical,1,6,1 | 6,5,0.065,0.05,incongruent,left,0,40,40,40,1,,,,,,,,,,,,,,,,,,,,,,,,,,,,,,,,,,,,,,,,,,,,,,,,,,,,,,,,,,,,,,,,,,,,,,,,,,,,,,,,,,,
,8761,BAC,1/12/2004,001,2023-12-17_14h34.07.202,OS3_Mult_verification,2022.2.4,MacIntel,62.5,,,,,,,,,,,,,,,,,,,,,,,,,,,,,,,,,,,,,,,,,,,,,,,,,,,,,,,,,,,,,,,,,,,,,,left,1,0.861,,,,,,physical,9,8,9 | 8,1,0.065,0.05,congruent,left,0,41,41,7,1,,,,,,,,,,,,,,,,,,,,,,,,,,,,,,,,,,,,,,,,,,,,,,,,,,,,,,,,,,,,,,,,,,,,,,,,,,,,,,,,,,,
,8761,BAC,1/12/2004,001,2023-12-17_14h34.07.202,OS3_Mult_verification,2022.2.4,MacIntel,62.5,,,,,,,,,,,,,,,,,,,,,,,,,,,,,,,,,,,,,,,,,,,,,,,,,,,,,,,,,,,,,,,,,,,,,,left,1,1.193,,,,,,physical,3,8,3 | 8,5,0.065,0.05,incongruent,left,0,42,42,42,1,,,,,,,,,,,,,,,,,,,,,,,,,,,,,,,,,,,,,,,,,,,,,,,,,,,,,,,,,,,,,,,,,,,,,,,,,,,,,,,,,,,
,8761,BAC,1/12/2004,001,2023-12-17_14h34.07.202,OS3_Mult_verification,2022.2.4,MacIntel,62.5,,,,,,,,,,,,,,,,,,,,,,,,,,,,,,,,,,,,,,,,,,,,,,,,,,,,,,,,,,,,,,,,,,,,,,left,1,0.929,,,,,,physical,4,4,4 | 4,0,0.065,0.05,neutral,left,0,43,43,53,1,,,,,,,,,,,,,,,,,,,,,,,,,,,,,,,,,,,,,,,,,,,,,,,,,,,,,,,,,,,,,,,,,,,,,,,,,,,,,,,,,,,
,8761,BAC,1/12/2004,001,2023-12-17_14h34.07.202,OS3_Mult_verification,2022.2.4,MacIntel,62.5,,,,,,,,,,,,,,,,,,,,,,,,,,,,,,,,,,,,,,,,,,,,,,,,,,,,,,,,,,,,,,,,,,,,,,right,1,0.609,,,,,,physical,3,8,3 | 8,5,0.05,0.065,congruent,right,0,44,44,18,1,,,,,,,,,,,,,,,,,,,,,,,,,,,,,,,,,,,,,,,,,,,,,,,,,,,,,,,,,,,,,,,,,,,,,,,,,,,,,,,,,,,
,8761,BAC,1/12/2004,001,2023-12-17_14h34.07.202,OS3_Mult_verification,2022.2.4,MacIntel,62.5,,,,,,,,,,,,,,,,,,,,,,,,,,,,,,,,,,,,,,,,,,,,,,,,,,,,,,,,,,,,,,,,,,,,,,right,1,0.761,,,,,,physical,1,6,1 | 6,5,0.05,0.065,congruent,right,0,45,45,16,1,,,,,,,,,,,,,,,,,,,,,,,,,,,,,,,,,,,,,,,,,,,,,,,,,,,,,,,,,,,,,,,,,,,,,,,,,,,,,,,,,,,
,8761,BAC,1/12/2004,001,2023-12-17_14h34.07.202,OS3_Mult_verification,2022.2.4,MacIntel,62.5,,,,,,,,,,,,,,,,,,,,,,,,,,,,,,,,,,,,,,,,,,,,,,,,,,,,,,,,,,,,,,,,,,,,,,right,1,0.564,,,,,,physical,7,2,7 | 2,5,0.05,0.065,incongruent,right,0,46,46,45,1,,,,,,,,,,,,,,,,,,,,,,,,,,,,,,,,,,,,,,,,,,,,,,,,,,,,,,,,,,,,,,,,,,,,,,,,,,,,,,,,,,,
,8761,BAC,1/12/2004,001,2023-12-17_14h34.07.202,OS3_Mult_verification,2022.2.4,MacIntel,62.5,,,,,,,,,,,,,,,,,,,,,,,,,,,,,,,,,,,,,,,,,,,,,,,,,,,,,,,,,,,,,,,,,,,,,,right,1,0.634,,,,,,physical,9,9,9 | 9,0,0.05,0.065,neutral,right,0,47,47,71,1,,,,,,,,,,,,,,,,,,,,,,,,,,,,,,,,,,,,,,,,,,,,,,,,,,,,,,,,,,,,,,,,,,,,,,,,,,,,,,,,,,,
,8761,BAC,1/12/2004,001,2023-12-17_14h34.07.202,OS3_Mult_verification,2022.2.4,MacIntel,62.5,,,,,,,,,,,,,,,,,,,,,,,,,,,,,,,,,,,,,,,,,,,,,,,,,,,,,,,,,,,,,,,,,,,,,,left,1,0.61,,,,,,physical,2,4,2 | 4,2,0.065,0.05,incongruent,left,0,48,48,33,1,,,,,,,,,,,,,,,,,,,,,,,,,,,,,,,,,,,,,,,,,,,,,,,,,,,,,,,,,,,,,,,,,,,,,,,,,,,,,,,,,,,
,8761,BAC,1/12/2004,001,2023-12-17_14h34.07.202,OS3_Mult_verification,2022.2.4,MacIntel,62.5,,,,,,,,,,,,,,,,,,,,,,,,,,,,,,,,,,,,,,,,,,,,,,,,,,,,,,,,,,,,,,,,,,,,,,left,1,0.795,,,,,,physical,8,9,8 | 9,1,0.065,0.05,incongruent,left,0,49,49,27,1,,,,,,,,,,,,,,,,,,,,,,,,,,,,,,,,,,,,,,,,,,,,,,,,,,,,,,,,,,,,,,,,,,,,,,,,,,,,,,,,,,,
,8761,BAC,1/12/2004,001,2023-12-17_14h34.07.202,OS3_Mult_verification,2022.2.4,MacIntel,62.5,,,,,,,,,,,,,,,,,,,,,,,,,,,,,,,,,,,,,,,,,,,,,,,,,,,,,,,,,,,,,,,,,,,,,,right,1,0.549,,,,,,physical,8,6,8 | 6,2,0.05,0.065,incongruent,right,0,50,50,38,1,,,,,,,,,,,,,,,,,,,,,,,,,,,,,,,,,,,,,,,,,,,,,,,,,,,,,,,,,,,,,,,,,,,,,,,,,,,,,,,,,,,
,8761,BAC,1/12/2004,001,2023-12-17_14h34.07.202,OS3_Mult_verification,2022.2.4,MacIntel,62.5,,,,,,,,,,,,,,,,,,,,,,,,,,,,,,,,,,,,,,,,,,,,,,,,,,,,,,,,,,,,,,,,,,,,,,left,1,0.695,,,,,,physical,3,1,3 | 1,2,0.065,0.05,congruent,left,0,51,51,12,1,,,,,,,,,,,,,,,,,,,,,,,,,,,,,,,,,,,,,,,,,,,,,,,,,,,,,,,,,,,,,,,,,,,,,,,,,,,,,,,,,,,
,8761,BAC,1/12/2004,001,2023-12-17_14h34.07.202,OS3_Mult_verification,2022.2.4,MacIntel,62.5,,,,,,,,,,,,,,,,,,,,,,,,,,,,,,,,,,,,,,,,,,,,,,,,,,,,,,,,,,,,,,,,,,,,,,right,1,0.516,,,,,,physical,2,7,2 | 7,5,0.05,0.065,congruent,right,0,52,52,17,1,,,,,,,,,,,,,,,,,,,,,,,,,,,,,,,,,,,,,,,,,,,,,,,,,,,,,,,,,,,,,,,,,,,,,,,,,,,,,,,,,,,
,8761,BAC,1/12/2004,001,2023-12-17_14h34.07.202,OS3_Mult_verification,2022.2.4,MacIntel,62.5,,,,,,,,,,,,,,,,,,,,,,,,,,,,,,,,,,,,,,,,,,,,,,,,,,,,,,,,,,,,,,,,,,,,,,left,1,0.544,,,,,,physical,2,1,2 | 1,1,0.065,0.05,congruent,left,0,53,53,4,1,,,,,,,,,,,,,,,,,,,,,,,,,,,,,,,,,,,,,,,,,,,,,,,,,,,,,,,,,,,,,,,,,,,,,,,,,,,,,,,,,,,
,8761,BAC,1/12/2004,001,2023-12-17_14h34.07.202,OS3_Mult_verification,2022.2.4,MacIntel,62.5,,,,,,,,,,,,,,,,,,,,,,,,,,,,,,,,,,,,,,,,,,,,,,,,,,,,,,,,,,,,,,,,,,,,,,left,1,0.564,,,,,,physical,6,1,6 | 1,5,0.065,0.05,congruent,left,0,54,54,20,1,,,,,,,,,,,,,,,,,,,,,,,,,,,,,,,,,,,,,,,,,,,,,,,,,,,,,,,,,,,,,,,,,,,,,,,,,,,,,,,,,,,
,8761,BAC,1/12/2004,001,2023-12-17_14h34.07.202,OS3_Mult_verification,2022.2.4,MacIntel,62.5,,,,,,,,,,,,,,,,,,,,,,,,,,,,,,,,,,,,,,,,,,,,,,,,,,,,,,,,,,,,,,,,,,,,,,left,1,0.664,,,,,,physical,3,3,3 | 3,0,0.065,0.05,neutral,left,0,55,55,66,1,,,,,,,,,,,,,,,,,,,,,,,,,,,,,,,,,,,,,,,,,,,,,,,,,,,,,,,,,,,,,,,,,,,,,,,,,,,,,,,,,,,
,8761,BAC,1/12/2004,001,2023-12-17_14h34.07.202,OS3_Mult_verification,2022.2.4,MacIntel,62.5,,,,,,,,,,,,,,,,,,,,,,,,,,,,,,,,,,,,,,,,,,,,,,,,,,,,,,,,,,,,,,,,,,,,,,left,1,0.584,,,,,,physical,9,4,9 | 4,5,0.065,0.05,congruent,left,0,56,56,23,1,,,,,,,,,,,,,,,,,,,,,,,,,,,,,,,,,,,,,,,,,,,,,,,,,,,,,,,,,,,,,,,,,,,,,,,,,,,,,,,,,,,
,8761,BAC,1/12/2004,001,2023-12-17_14h34.07.202,OS3_Mult_verification,2022.2.4,MacIntel,62.5,,,,,,,,,,,,,,,,,,,,,,,,,,,,,,,,,,,,,,,,,,,,,,,,,,,,,,,,,,,,,,,,,,,,,,left,1,1.195,,,,,,physical,2,7,2 | 7,5,0.065,0.05,incongruent,left,0,57,57,41,1,,,,,,,,,,,,,,,,,,,,,,,,,,,,,,,,,,,,,,,,,,,,,,,,,,,,,,,,,,,,,,,,,,,,,,,,,,,,,,,,,,,
,8761,BAC,1/12/2004,001,2023-12-17_14h34.07.202,OS3_Mult_verification,2022.2.4,MacIntel,62.5,,,,,,,,,,,,,,,,,,,,,,,,,,,,,,,,,,,,,,,,,,,,,,,,,,,,,,,,,,,,,,,,,,,,,,right,1,0.68,,,,,,physical,3,4,3 | 4,1,0.05,0.065,congruent,right,0,58,58,1,1,,,,,,,,,,,,,,,,,,,,,,,,,,,,,,,,,,,,,,,,,,,,,,,,,,,,,,,,,,,,,,,,,,,,,,,,,,,,,,,,,,,
,8761,BAC,1/12/2004,001,2023-12-17_14h34.07.202,OS3_Mult_verification,2022.2.4,MacIntel,62.5,,,,,,,,,,,,,,,,,,,,,,,,,,,,,,,,,,,,,,,,,,,,,,,,,,,,,,,,,,,,,,,,,,,,,,right,1,0.559,,,,,,physical,9,8,9 | 8,1,0.05,0.065,incongruent,right,0,59,59,31,1,,,,,,,,,,,,,,,,,,,,,,,,,,,,,,,,,,,,,,,,,,,,,,,,,,,,,,,,,,,,,,,,,,,,,,,,,,,,,,,,,,,
,8761,BAC,1/12/2004,001,2023-12-17_14h34.07.202,OS3_Mult_verification,2022.2.4,MacIntel,62.5,,,,,,,,,,,,,,,,,,,,,,,,,,,,,,,,,,,,,,,,,,,,,,,,,,,,,,,,,,,,,,,,,,,,,,right,1,0.479,,,,,,physical,8,3,8 | 3,5,0.05,0.065,incongruent,right,0,60,60,46,1,,,,,,,,,,,,,,,,,,,,,,,,,,,,,,,,,,,,,,,,,,,,,,,,,,,,,,,,,,,,,,,,,,,,,,,,,,,,,,,,,,,
,8761,BAC,1/12/2004,001,2023-12-17_14h34.07.202,OS3_Mult_verification,2022.2.4,MacIntel,62.5,,,,,,,,,,,,,,,,,,,,,,,,,,,,,,,,,,,,,,,,,,,,,,,,,,,,,,,,,,,,,,,,,,,,,,left,1,0.544,,,,,,physical,4,3,4 | 3,1,0.065,0.05,congruent,left,0,61,61,5,1,,,,,,,,,,,,,,,,,,,,,,,,,,,,,,,,,,,,,,,,,,,,,,,,,,,,,,,,,,,,,,,,,,,,,,,,,,,,,,,,,,,
,8761,BAC,1/12/2004,001,2023-12-17_14h34.07.202,OS3_Mult_verification,2022.2.4,MacIntel,62.5,,,,,,,,,,,,,,,,,,,,,,,,,,,,,,,,,,,,,,,,,,,,,,,,,,,,,,,,,,,,,,,,,,,,,,right,1,0.478,,,,,,physical,4,4,4 | 4,0,0.05,0.065,neutral,right,0,62,62,61,1,,,,,,,,,,,,,,,,,,,,,,,,,,,,,,,,,,,,,,,,,,,,,,,,,,,,,,,,,,,,,,,,,,,,,,,,,,,,,,,,,,,
,8761,BAC,1/12/2004,001,2023-12-17_14h34.07.202,OS3_Mult_verification,2022.2.4,MacIntel,62.5,,,,,,,,,,,,,,,,,,,,,,,,,,,,,,,,,,,,,,,,,,,,,,,,,,,,,,,,,,,,,,,,,,,,,,right,1,0.758,,,,,,physical,1,2,1 | 2,1,0.05,0.065,congruent,right,0,63,63,0,1,,,,,,,,,,,,,,,,,,,,,,,,,,,,,,,,,,,,,,,,,,,,,,,,,,,,,,,,,,,,,,,,,,,,,,,,,,,,,,,,,,,
,8761,BAC,1/12/2004,001,2023-12-17_14h34.07.202,OS3_Mult_verification,2022.2.4,MacIntel,62.5,,,,,,,,,,,,,,,,,,,,,,,,,,,,,,,,,,,,,,,,,,,,,,,,,,,,,,,,,,,,,,,,,,,,,,right,1,1.244,,,,,,physical,2,1,2 | 1,1,0.05,0.065,incongruent,right,0,64,64,28,1,,,,,,,,,,,,,,,,,,,,,,,,,,,,,,,,,,,,,,,,,,,,,,,,,,,,,,,,,,,,,,,,,,,,,,,,,,,,,,,,,,,
,8761,BAC,1/12/2004,001,2023-12-17_14h34.07.202,OS3_Mult_verification,2022.2.4,MacIntel,62.5,,,,,,,,,,,,,,,,,,,,,,,,,,,,,,,,,,,,,,,,,,,,,,,,,,,,,,,,,,,,,,,,,,,,,,right,1,0.511,,,,,,physical,6,7,6 | 7,1,0.05,0.065,congruent,right,0,65,65,2,1,,,,,,,,,,,,,,,,,,,,,,,,,,,,,,,,,,,,,,,,,,,,,,,,,,,,,,,,,,,,,,,,,,,,,,,,,,,,,,,,,,,
,8761,BAC,1/12/2004,001,2023-12-17_14h34.07.202,OS3_Mult_verification,2022.2.4,MacIntel,62.5,,,,,,,,,,,,,,,,,,,,,,,,,,,,,,,,,,,,,,,,,,,,,,,,,,,,,,,,,,,,,,,,,,,,,,left,0,0.701,,,,,,physical,7,7,7 | 7,0,0.05,0.065,neutral,right,0,66,66,69,1,,,,,,,,,,,,,,,,,,,,,,,,,,,,,,,,,,,,,,,,,,,,,,,,,,,,,,,,,,,,,,,,,,,,,,,,,,,,,,,,,,,
,8761,BAC,1/12/2004,001,2023-12-17_14h34.07.202,OS3_Mult_verification,2022.2.4,MacIntel,62.5,,,,,,,,,,,,,,,,,,,,,,,,,,,,,,,,,,,,,,,,,,,,,,,,,,,,,,,,,,,,,,,,,,,,,,right,1,0.719,,,,,,physical,4,9,4 | 9,5,0.05,0.065,congruent,right,0,67,67,19,1,,,,,,,,,,,,,,,,,,,,,,,,,,,,,,,,,,,,,,,,,,,,,,,,,,,,,,,,,,,,,,,,,,,,,,,,,,,,,,,,,,,
,8761,BAC,1/12/2004,001,2023-12-17_14h34.07.202,OS3_Mult_verification,2022.2.4,MacIntel,62.5,,,,,,,,,,,,,,,,,,,,,,,,,,,,,,,,,,,,,,,,,,,,,,,,,,,,,,,,,,,,,,,,,,,,,,right,1,0.563,,,,,,physical,6,1,6 | 1,5,0.05,0.065,incongruent,right,0,68,68,44,1,,,,,,,,,,,,,,,,,,,,,,,,,,,,,,,,,,,,,,,,,,,,,,,,,,,,,,,,,,,,,,,,,,,,,,,,,,,,,,,,,,,
,8761,BAC,1/12/2004,001,2023-12-17_14h34.07.202,OS3_Mult_verification,2022.2.4,MacIntel,62.5,,,,,,,,,,,,,,,,,,,,,,,,,,,,,,,,,,,,,,,,,,,,,,,,,,,,,,,,,,,,,,,,,,,,,,right,1,0.696,,,,,,physical,4,2,4 | 2,2,0.05,0.065,incongruent,right,0,69,69,37,1,,,,,,,,,,,,,,,,,,,,,,,,,,,,,,,,,,,,,,,,,,,,,,,,,,,,,,,,,,,,,,,,,,,,,,,,,,,,,,,,,,,
,8761,BAC,1/12/2004,001,2023-12-17_14h34.07.202,OS3_Mult_verification,2022.2.4,MacIntel,62.5,,,,,,,,,,,,,,,,,,,,,,,,,,,,,,,,,,,,,,,,,,,,,,,,,,,,,,,,,,,,,,,,,,,,,,left,1,0.61,,,,,,physical,1,2,1 | 2,1,0.065,0.05,incongruent,left,0,70,70,24,1,,,,,,,,,,,,,,,,,,,,,,,,,,,,,,,,,,,,,,,,,,,,,,,,,,,,,,,,,,,,,,,,,,,,,,,,,,,,,,,,,,,
,8761,BAC,1/12/2004,001,2023-12-17_14h34.07.202,OS3_Mult_verification,2022.2.4,MacIntel,62.5,,,,,,,,,,,,,,,,,,,,,,,,,,,,,,,,,,,,,,,,,,,,,,,,,,,,,,,,,,,,,,,,,,,,,,right,1,0.53,,,,,,physical,6,8,6 | 8,2,0.05,0.065,congruent,right,0,71,71,10,1,,,,,,,,,,,,,,,,,,,,,,,,,,,,,,,,,,,,,,,,,,,,,,,,,,,,,,,,,,,,,,,,,,,,,,,,,,,,,,,,,,,
,8761,BAC,1/12/2004,001,2023-12-17_14h34.07.202,OS3_Mult_verification,2022.2.4,MacIntel,62.5,,,,,,,,,,,,,,,,,,,,,,,,,,,,,,,,,,,,,,,,,,,,,,,,,,,,,,,,,,,,,,,,,,,,,,,,,,,,,,,,,,,,,,,,,,,,0,0,0,1,1,stroop_stim/physical.xlsx,stroop_stim/prac_physical.xlsx,PHYSICALLY larger (larger font size).,images/physicallyLarger.png,,,,,,,,,,,,,,,,,,,,,,,,,,,,,,,,,,,,,,,,,,,,,,,,,,,,,,,,,,,,,,,,,,,,,,,,,,
,8761,BAC,1/12/2004,001,2023-12-17_14h34.07.202,OS3_Mult_verification,2022.2.4,MacIntel,62.5,,,,,,,,,,,,,,,,space,0.891,,,,,,,,,,,,,,,,,,,,,,,,,,,,,,,,,,,,,,,,,,,,,,,,,,,,,left,0,0.861,0,0,0,1,1,practice,7,8,7 | 8,1,0.065,0.05,incongruent,right,,,,,,,,,,,,,,,,,,,,,,,,,,,,,,,,,,,,,,,,,,,,,,,,,,,,,,,,,,,,,,,,,,,,,,,,,,,,,,,,,,,,,,,,
,8761,BAC,1/12/2004,001,2023-12-17_14h34.07.202,OS3_Mult_verification,2022.2.4,MacIntel,62.5,,,,,,,,,,,,,,,,,,,,,,,,,,,,,,,,,,,,,,,,,,,,,,,,,,,,,,,,,,,,,,,,,,,,,,left,0,1.698,0,1,1,2,1,practice,4,9,4 | 9,5,0.06,0.06,neutral,right,,,,,,,,,,,,,,,,,,,,,,,,,,,,,,,,,,,,,,,,,,,,,,,,,,,,,,,,,,,,,,,,,,,,,,,,,,,,,,,,,,,,,,,,
,8761,BAC,1/12/2004,001,2023-12-17_14h34.07.202,OS3_Mult_verification,2022.2.4,MacIntel,62.5,,,,,,,,,,,,,,,,,,,,,,,,,,,,,,,,,,,,,,,,,,,,,,,,,,,,,,,,,,,,,,,,,,,,,,right,1,1.212,0,2,2,0,1,practice,1,2,1 | 2,1,0.05,0.065,congruent,right,,,,,,,,,,,,,,,,,,,,,,,,,,,,,,,,,,,,,,,,,,,,,,,,,,,,,,,,,,,,,,,,,,,,,,,,,,,,,,,,,,,,,,,,
,8761,BAC,1/12/2004,001,2023-12-17_14h34.07.202,OS3_Mult_verification,2022.2.4,MacIntel,62.5,,,,,,,,,,,,,,,,,,,,,,,,,,,,,,,,,,,,,,,,,,,,,,,,,,,,,,,,,,,,,,,,,,,,,,left,0,0.913,,,,,,magnitude,2,4,2 | 4,2,0.065,0.05,incongruent,right,0,0,0,33,1,,,,,,,,,,,,,,,,,,,,,,,,,,,,,,,,,,,,,,,,,,,,,,,,,,,,,,,,,,,,,,,,,,,,,,,,,,,,,,,,,,,
,8761,BAC,1/12/2004,001,2023-12-17_14h34.07.202,OS3_Mult_verification,2022.2.4,MacIntel,62.5,,,,,,,,,,,,,,,,,,,,,,,,,,,,,,,,,,,,,,,,,,,,,,,,,,,,,,,,,,,,,,,,,,,,,,left,1,2.147,,,,,,magnitude,9,7,9 | 7,2,0.06,0.06,neutral,left,0,1,1,63,1,,,,,,,,,,,,,,,,,,,,,,,,,,,,,,,,,,,,,,,,,,,,,,,,,,,,,,,,,,,,,,,,,,,,,,,,,,,,,,,,,,,
,8761,BAC,1/12/2004,001,2023-12-17_14h34.07.202,OS3_Mult_verification,2022.2.4,MacIntel,62.5,,,,,,,,,,,,,,,,,,,,,,,,,,,,,,,,,,,,,,,,,,,,,,,,,,,,,,,,,,,,,,,,,,,,,,right,0,1.028,,,,,,magnitude,3,1,3 | 1,2,0.05,0.065,incongruent,left,0,2,2,36,1,,,,,,,,,,,,,,,,,,,,,,,,,,,,,,,,,,,,,,,,,,,,,,,,,,,,,,,,,,,,,,,,,,,,,,,,,,,,,,,,,,,
,8761,BAC,1/12/2004,001,2023-12-17_14h34.07.202,OS3_Mult_verification,2022.2.4,MacIntel,62.5,,,,,,,,,,,,,,,,,,,,,,,,,,,,,,,,,,,,,,,,,,,,,,,,,,,,,,,,,,,,,,,,,,,,,,right,1,0.932,,,,,,magnitude,7,9,7 | 9,2,0.05,0.065,congruent,right,0,3,3,11,1,,,,,,,,,,,,,,,,,,,,,,,,,,,,,,,,,,,,,,,,,,,,,,,,,,,,,,,,,,,,,,,,,,,,,,,,,,,,,,,,,,,
,8761,BAC,1/12/2004,001,2023-12-17_14h34.07.202,OS3_Mult_verification,2022.2.4,MacIntel,62.5,,,,,,,,,,,,,,,,,,,,,,,,,,,,,,,,,,,,,,,,,,,,,,,,,,,,,,,,,,,,,,,,,,,,,,left,1,0.551,,,,,,magnitude,9,4,9 | 4,5,0.065,0.05,congruent,left,0,4,4,23,1,,,,,,,,,,,,,,,,,,,,,,,,,,,,,,,,,,,,,,,,,,,,,,,,,,,,,,,,,,,,,,,,,,,,,,,,,,,,,,,,,,,
,8761,BAC,1/12/2004,001,2023-12-17_14h34.07.202,OS3_Mult_verification,2022.2.4,MacIntel,62.5,,,,,,,,,,,,,,,,,,,,,,,,,,,,,,,,,,,,,,,,,,,,,,,,,,,,,,,,,,,,,,,,,,,,,,left,1,1.432,,,,,,magnitude,4,2,4 | 2,2,0.06,0.06,neutral,left,0,5,5,61,1,,,,,,,,,,,,,,,,,,,,,,,,,,,,,,,,,,,,,,,,,,,,,,,,,,,,,,,,,,,,,,,,,,,,,,,,,,,,,,,,,,,
,8761,BAC,1/12/2004,001,2023-12-17_14h34.07.202,OS3_Mult_verification,2022.2.4,MacIntel,62.5,,,,,,,,,,,,,,,,,,,,,,,,,,,,,,,,,,,,,,,,,,,,,,,,,,,,,,,,,,,,,,,,,,,,,,left,1,0.9,,,,,,magnitude,4,3,4 | 3,1,0.06,0.06,neutral,left,0,6,6,53,1,,,,,,,,,,,,,,,,,,,,,,,,,,,,,,,,,,,,,,,,,,,,,,,,,,,,,,,,,,,,,,,,,,,,,,,,,,,,,,,,,,,
,8761,BAC,1/12/2004,001,2023-12-17_14h34.07.202,OS3_Mult_verification,2022.2.4,MacIntel,62.5,,,,,,,,,,,,,,,,,,,,,,,,,,,,,,,,,,,,,,,,,,,,,,,,,,,,,,,,,,,,,,,,,,,,,,right,0,1.018,,,,,,magnitude,8,3,8 | 3,5,0.05,0.065,incongruent,left,0,7,7,46,1,,,,,,,,,,,,,,,,,,,,,,,,,,,,,,,,,,,,,,,,,,,,,,,,,,,,,,,,,,,,,,,,,,,,,,,,,,,,,,,,,,,
,8761,BAC,1/12/2004,001,2023-12-17_14h34.07.202,OS3_Mult_verification,2022.2.4,MacIntel,62.5,,,,,,,,,,,,,,,,,,,,,,,,,,,,,,,,,,,,,,,,,,,,,,,,,,,,,,,,,,,,,,,,,,,,,,right,1,1.492,,,,,,magnitude,8,9,8 | 9,1,0.06,0.06,neutral,right,0,8,8,51,1,,,,,,,,,,,,,,,,,,,,,,,,,,,,,,,,,,,,,,,,,,,,,,,,,,,,,,,,,,,,,,,,,,,,,,,,,,,,,,,,,,,
,8761,BAC,1/12/2004,001,2023-12-17_14h34.07.202,OS3_Mult_verification,2022.2.4,MacIntel,62.5,,,,,,,,,,,,,,,,,,,,,,,,,,,,,,,,,,,,,,,,,,,,,,,,,,,,,,,,,,,,,,,,,,,,,,right,1,1.46,,,,,,magnitude,6,7,6 | 7,1,0.06,0.06,neutral,right,0,9,9,50,1,,,,,,,,,,,,,,,,,,,,,,,,,,,,,,,,,,,,,,,,,,,,,,,,,,,,,,,,,,,,,,,,,,,,,,,,,,,,,,,,,,,
,8761,BAC,1/12/2004,001,2023-12-17_14h34.07.202,OS3_Mult_verification,2022.2.4,MacIntel,62.5,,,,,,,,,,,,,,,,,,,,,,,,,,,,,,,,,,,,,,,,,,,,,,,,,,,,,,,,,,,,,,,,,,,,,,left,1,0.813,,,,,,magnitude,7,2,7 | 2,5,0.065,0.05,congruent,left,0,10,10,21,1,,,,,,,,,,,,,,,,,,,,,,,,,,,,,,,,,,,,,,,,,,,,,,,,,,,,,,,,,,,,,,,,,,,,,,,,,,,,,,,,,,,
,8761,BAC,1/12/2004,001,2023-12-17_14h34.07.202,OS3_Mult_verification,2022.2.4,MacIntel,62.5,,,,,,,,,,,,,,,,,,,,,,,,,,,,,,,,,,,,,,,,,,,,,,,,,,,,,,,,,,,,,,,,,,,,,,right,0,0.881,,,,,,magnitude,9,8,9 | 8,1,0.05,0.065,incongruent,left,0,11,11,31,1,,,,,,,,,,,,,,,,,,,,,,,,,,,,,,,,,,,,,,,,,,,,,,,,,,,,,,,,,,,,,,,,,,,,,,,,,,,,,,,,,,,
,8761,BAC,1/12/2004,001,2023-12-17_14h34.07.202,OS3_Mult_verification,2022.2.4,MacIntel,62.5,,,,,,,,,,,,,,,,,,,,,,,,,,,,,,,,,,,,,,,,,,,,,,,,,,,,,,,,,,,,,,,,,,,,,,left,1,0.694,,,,,,magnitude,3,1,3 | 1,2,0.06,0.06,neutral,left,0,12,12,60,1,,,,,,,,,,,,,,,,,,,,,,,,,,,,,,,,,,,,,,,,,,,,,,,,,,,,,,,,,,,,,,,,,,,,,,,,,,,,,,,,,,,
,8761,BAC,1/12/2004,001,2023-12-17_14h34.07.202,OS3_Mult_verification,2022.2.4,MacIntel,62.5,,,,,,,,,,,,,,,,,,,,,,,,,,,,,,,,,,,,,,,,,,,,,,,,,,,,,,,,,,,,,,,,,,,,,,left,0,1.163,,,,,,magnitude,6,8,6 | 8,2,0.065,0.05,incongruent,right,0,13,13,34,1,,,,,,,,,,,,,,,,,,,,,,,,,,,,,,,,,,,,,,,,,,,,,,,,,,,,,,,,,,,,,,,,,,,,,,,,,,,,,,,,,,,
,8761,BAC,1/12/2004,001,2023-12-17_14h34.07.202,OS3_Mult_verification,2022.2.4,MacIntel,62.5,,,,,,,,,,,,,,,,,,,,,,,,,,,,,,,,,,,,,,,,,,,,,,,,,,,,,,,,,,,,,,,,,,,,,,right,1,0.611,,,,,,magnitude,1,6,1 | 6,5,0.05,0.065,congruent,right,0,14,14,16,1,,,,,,,,,,,,,,,,,,,,,,,,,,,,,,,,,,,,,,,,,,,,,,,,,,,,,,,,,,,,,,,,,,,,,,,,,,,,,,,,,,,
,8761,BAC,1/12/2004,001,2023-12-17_14h34.07.202,OS3_Mult_verification,2022.2.4,MacIntel,62.5,,,,,,,,,,,,,,,,,,,,,,,,,,,,,,,,,,,,,,,,,,,,,,,,,,,,,,,,,,,,,,,,,,,,,,left,0,0.548,,,,,,magnitude,7,9,7 | 9,2,0.065,0.05,incongruent,right,0,15,15,35,1,,,,,,,,,,,,,,,,,,,,,,,,,,,,,,,,,,,,,,,,,,,,,,,,,,,,,,,,,,,,,,,,,,,,,,,,,,,,,,,,,,,
,8761,BAC,1/12/2004,001,2023-12-17_14h34.07.202,OS3_Mult_verification,2022.2.4,MacIntel,62.5,,,,,,,,,,,,,,,,,,,,,,,,,,,,,,,,,,,,,,,,,,,,,,,,,,,,,,,,,,,,,,,,,,,,,,right,0,0.95,,,,,,magnitude,9,7,9 | 7,2,0.05,0.065,incongruent,left,0,16,16,39,1,,,,,,,,,,,,,,,,,,,,,,,,,,,,,,,,,,,,,,,,,,,,,,,,,,,,,,,,,,,,,,,,,,,,,,,,,,,,,,,,,,,
,8761,BAC,1/12/2004,001,2023-12-17_14h34.07.202,OS3_Mult_verification,2022.2.4,MacIntel,62.5,,,,,,,,,,,,,,,,,,,,,,,,,,,,,,,,,,,,,,,,,,,,,,,,,,,,,,,,,,,,,,,,,,,,,,left,1,0.528,,,,,,magnitude,8,6,8 | 6,2,0.065,0.05,congruent,left,0,17,17,14,1,,,,,,,,,,,,,,,,,,,,,,,,,,,,,,,,,,,,,,,,,,,,,,,,,,,,,,,,,,,,,,,,,,,,,,,,,,,,,,,,,,,
,8761,BAC,1/12/2004,001,2023-12-17_14h34.07.202,OS3_Mult_verification,2022.2.4,MacIntel,62.5,,,,,,,,,,,,,,,,,,,,,,,,,,,,,,,,,,,,,,,,,,,,,,,,,,,,,,,,,,,,,,,,,,,,,,left,1,1.076,,,,,,magnitude,9,8,9 | 8,1,0.06,0.06,neutral,left,0,18,18,55,1,,,,,,,,,,,,,,,,,,,,,,,,,,,,,,,,,,,,,,,,,,,,,,,,,,,,,,,,,,,,,,,,,,,,,,,,,,,,,,,,,,,
,8761,BAC,1/12/2004,001,2023-12-17_14h34.07.202,OS3_Mult_verification,2022.2.4,MacIntel,62.5,,,,,,,,,,,,,,,,,,,,,,,,,,,,,,,,,,,,,,,,,,,,,,,,,,,,,,,,,,,,,,,,,,,,,,left,1,1.002,,,,,,magnitude,7,2,7 | 2,5,0.06,0.06,neutral,left,0,19,19,69,1,,,,,,,,,,,,,,,,,,,,,,,,,,,,,,,,,,,,,,,,,,,,,,,,,,,,,,,,,,,,,,,,,,,,,,,,,,,,,,,,,,,
,8761,BAC,1/12/2004,001,2023-12-17_14h34.07.202,OS3_Mult_verification,2022.2.4,MacIntel,62.5,,,,,,,,,,,,,,,,,,,,,,,,,,,,,,,,,,,,,,,,,,,,,,,,,,,,,,,,,,,,,,,,,,,,,,left,0,0.943,,,,,,magnitude,1,3,1 | 3,2,0.065,0.05,incongruent,right,0,20,20,32,1,,,,,,,,,,,,,,,,,,,,,,,,,,,,,,,,,,,,,,,,,,,,,,,,,,,,,,,,,,,,,,,,,,,,,,,,,,,,,,,,,,,
,8761,BAC,1/12/2004,001,2023-12-17_14h34.07.202,OS3_Mult_verification,2022.2.4,MacIntel,62.5,,,,,,,,,,,,,,,,,,,,,,,,,,,,,,,,,,,,,,,,,,,,,,,,,,,,,,,,,,,,,,,,,,,,,,left,0,0.845,,,,,,magnitude,8,9,8 | 9,1,0.065,0.05,incongruent,right,0,21,21,27,1,,,,,,,,,,,,,,,,,,,,,,,,,,,,,,,,,,,,,,,,,,,,,,,,,,,,,,,,,,,,,,,,,,,,,,,,,,,,,,,,,,,
,8761,BAC,1/12/2004,001,2023-12-17_14h34.07.202,OS3_Mult_verification,2022.2.4,MacIntel,62.5,,,,,,,,,,,,,,,,,,,,,,,,,,,,,,,,,,,,,,,,,,,,,,,,,,,,,,,,,,,,,,,,,,,,,,left,0,0.929,,,,,,magnitude,4,9,4 | 9,5,0.065,0.05,incongruent,right,0,22,22,43,1,,,,,,,,,,,,,,,,,,,,,,,,,,,,,,,,,,,,,,,,,,,,,,,,,,,,,,,,,,,,,,,,,,,,,,,,,,,,,,,,,,,
,8761,BAC,1/12/2004,001,2023-12-17_14h34.07.202,OS3_Mult_verification,2022.2.4,MacIntel,62.5,,,,,,,,,,,,,,,,,,,,,,,,,,,,,,,,,,,,,,,,,,,,,,,,,,,,,,,,,,,,,,,,,,,,,,left,1,0.646,,,,,,magnitude,4,3,4 | 3,1,0.065,0.05,congruent,left,0,23,23,5,1,,,,,,,,,,,,,,,,,,,,,,,,,,,,,,,,,,,,,,,,,,,,,,,,,,,,,,,,,,,,,,,,,,,,,,,,,,,,,,,,,,,
,8761,BAC,1/12/2004,001,2023-12-17_14h34.07.202,OS3_Mult_verification,2022.2.4,MacIntel,62.5,,,,,,,,,,,,,,,,,,,,,,,,,,,,,,,,,,,,,,,,,,,,,,,,,,,,,,,,,,,,,,,,,,,,,,left,1,0.963,,,,,,magnitude,8,6,8 | 6,2,0.06,0.06,neutral,left,0,24,24,62,1,,,,,,,,,,,,,,,,,,,,,,,,,,,,,,,,,,,,,,,,,,,,,,,,,,,,,,,,,,,,,,,,,,,,,,,,,,,,,,,,,,,
,8761,BAC,1/12/2004,001,2023-12-17_14h34.07.202,OS3_Mult_verification,2022.2.4,MacIntel,62.5,,,,,,,,,,,,,,,,,,,,,,,,,,,,,,,,,,,,,,,,,,,,,,,,,,,,,,,,,,,,,,,,,,,,,,right,1,1.153,,,,,,magnitude,2,7,2 | 7,5,0.06,0.06,neutral,right,0,25,25,65,1,,,,,,,,,,,,,,,,,,,,,,,,,,,,,,,,,,,,,,,,,,,,,,,,,,,,,,,,,,,,,,,,,,,,,,,,,,,,,,,,,,,
,8761,BAC,1/12/2004,001,2023-12-17_14h34.07.202,OS3_Mult_verification,2022.2.4,MacIntel,62.5,,,,,,,,,,,,,,,,,,,,,,,,,,,,,,,,,,,,,,,,,,,,,,,,,,,,,,,,,,,,,,,,,,,,,,right,1,0.778,,,,,,magnitude,3,4,3 | 4,1,0.05,0.065,congruent,right,0,26,26,1,1,,,,,,,,,,,,,,,,,,,,,,,,,,,,,,,,,,,,,,,,,,,,,,,,,,,,,,,,,,,,,,,,,,,,,,,,,,,,,,,,,,,
,8761,BAC,1/12/2004,001,2023-12-17_14h34.07.202,OS3_Mult_verification,2022.2.4,MacIntel,62.5,,,,,,,,,,,,,,,,,,,,,,,,,,,,,,,,,,,,,,,,,,,,,,,,,,,,,,,,,,,,,,,,,,,,,,right,0,0.678,,,,,,magnitude,8,6,8 | 6,2,0.05,0.065,incongruent,left,0,27,27,38,1,,,,,,,,,,,,,,,,,,,,,,,,,,,,,,,,,,,,,,,,,,,,,,,,,,,,,,,,,,,,,,,,,,,,,,,,,,,,,,,,,,,
,8761,BAC,1/12/2004,001,2023-12-17_14h34.07.202,OS3_Mult_verification,2022.2.4,MacIntel,62.5,,,,,,,,,,,,,,,,,,,,,,,,,,,,,,,,,,,,,,,,,,,,,,,,,,,,,,,,,,,,,,,,,,,,,,right,1,0.613,,,,,,magnitude,3,8,3 | 8,5,0.05,0.065,congruent,right,0,28,28,18,1,,,,,,,,,,,,,,,,,,,,,,,,,,,,,,,,,,,,,,,,,,,,,,,,,,,,,,,,,,,,,,,,,,,,,,,,,,,,,,,,,,,
,8761,BAC,1/12/2004,001,2023-12-17_14h34.07.202,OS3_Mult_verification,2022.2.4,MacIntel,62.5,,,,,,,,,,,,,,,,,,,,,,,,,,,,,,,,,,,,,,,,,,,,,,,,,,,,,,,,,,,,,,,,,,,,,,left,1,0.765,,,,,,magnitude,9,7,9 | 7,2,0.065,0.05,congruent,left,0,29,29,15,1,,,,,,,,,,,,,,,,,,,,,,,,,,,,,,,,,,,,,,,,,,,,,,,,,,,,,,,,,,,,,,,,,,,,,,,,,,,,,,,,,,,
,8761,BAC,1/12/2004,001,2023-12-17_14h34.07.202,OS3_Mult_verification,2022.2.4,MacIntel,62.5,,,,,,,,,,,,,,,,,,,,,,,,,,,,,,,,,,,,,,,,,,,,,,,,,,,,,,,,,,,,,,,,,,,,,,left,1,0.517,,,,,,magnitude,6,1,6 | 1,5,0.06,0.06,neutral,left,0,30,30,68,1,,,,,,,,,,,,,,,,,,,,,,,,,,,,,,,,,,,,,,,,,,,,,,,,,,,,,,,,,,,,,,,,,,,,,,,,,,,,,,,,,,,
,8761,BAC,1/12/2004,001,2023-12-17_14h34.07.202,OS3_Mult_verification,2022.2.4,MacIntel,62.5,,,,,,,,,,,,,,,,,,,,,,,,,,,,,,,,,,,,,,,,,,,,,,,,,,,,,,,,,,,,,,,,,,,,,,right,1,0.632,,,,,,magnitude,1,2,1 | 2,1,0.05,0.065,congruent,right,0,31,31,0,1,,,,,,,,,,,,,,,,,,,,,,,,,,,,,,,,,,,,,,,,,,,,,,,,,,,,,,,,,,,,,,,,,,,,,,,,,,,,,,,,,,,
,8761,BAC,1/12/2004,001,2023-12-17_14h34.07.202,OS3_Mult_verification,2022.2.4,MacIntel,62.5,,,,,,,,,,,,,,,,,,,,,,,,,,,,,,,,,,,,,,,,,,,,,,,,,,,,,,,,,,,,,,,,,,,,,,left,1,0.509,,,,,,magnitude,6,1,6 | 1,5,0.05,0.065,incongruent,left,0,32,32,44,1,,,,,,,,,,,,,,,,,,,,,,,,,,,,,,,,,,,,,,,,,,,,,,,,,,,,,,,,,,,,,,,,,,,,,,,,,,,,,,,,,,,
,8761,BAC,1/12/2004,001,2023-12-17_14h34.07.202,OS3_Mult_verification,2022.2.4,MacIntel,62.5,,,,,,,,,,,,,,,,,,,,,,,,,,,,,,,,,,,,,,,,,,,,,,,,,,,,,,,,,,,,,,,,,,,,,,right,1,0.96,,,,,,magnitude,4,9,4 | 9,5,0.05,0.065,congruent,right,0,33,33,19,1,,,,,,,,,,,,,,,,,,,,,,,,,,,,,,,,,,,,,,,,,,,,,,,,,,,,,,,,,,,,,,,,,,,,,,,,,,,,,,,,,,,
,8761,BAC,1/12/2004,001,2023-12-17_14h34.07.202,OS3_Mult_verification,2022.2.4,MacIntel,62.5,,,,,,,,,,,,,,,,,,,,,,,,,,,,,,,,,,,,,,,,,,,,,,,,,,,,,,,,,,,,,,,,,,,,,,left,0,0.56,,,,,,magnitude,3,8,3 | 8,5,0.065,0.05,incongruent,right,0,34,34,42,1,,,,,,,,,,,,,,,,,,,,,,,,,,,,,,,,,,,,,,,,,,,,,,,,,,,,,,,,,,,,,,,,,,,,,,,,,,,,,,,,,,,
,8761,BAC,1/12/2004,001,2023-12-17_14h34.07.202,OS3_Mult_verification,2022.2.4,MacIntel,62.5,,,,,,,,,,,,,,,,,,,,,,,,,,,,,,,,,,,,,,,,,,,,,,,,,,,,,,,,,,,,,,,,,,,,,,left,1,0.475,,,,,,magnitude,9,8,9 | 8,1,0.065,0.05,congruent,left,0,35,35,7,1,,,,,,,,,,,,,,,,,,,,,,,,,,,,,,,,,,,,,,,,,,,,,,,,,,,,,,,,,,,,,,,,,,,,,,,,,,,,,,,,,,,
,8761,BAC,1/12/2004,001,2023-12-17_14h34.07.202,OS3_Mult_verification,2022.2.4,MacIntel,62.5,,,,,,,,,,,,,,,,,,,,,,,,,,,,,,,,,,,,,,,,,,,,,,,,,,,,,,,,,,,,,,,,,,,,,,left,1,1.03,,,,,,magnitude,7,6,7 | 6,1,0.06,0.06,neutral,left,0,36,36,54,1,,,,,,,,,,,,,,,,,,,,,,,,,,,,,,,,,,,,,,,,,,,,,,,,,,,,,,,,,,,,,,,,,,,,,,,,,,,,,,,,,,,
,8761,BAC,1/12/2004,001,2023-12-17_14h34.07.202,OS3_Mult_verification,2022.2.4,MacIntel,62.5,,,,,,,,,,,,,,,,,,,,,,,,,,,,,,,,,,,,,,,,,,,,,,,,,,,,,,,,,,,,,,,,,,,,,,right,1,0.518,,,,,,magnitude,3,8,3 | 8,5,0.06,0.06,neutral,right,0,37,37,66,1,,,,,,,,,,,,,,,,,,,,,,,,,,,,,,,,,,,,,,,,,,,,,,,,,,,,,,,,,,,,,,,,,,,,,,,,,,,,,,,,,,,
,8761,BAC,1/12/2004,001,2023-12-17_14h34.07.202,OS3_Mult_verification,2022.2.4,MacIntel,62.5,,,,,,,,,,,,,,,,,,,,,,,,,,,,,,,,,,,,,,,,,,,,,,,,,,,,,,,,,,,,,,,,,,,,,,right,1,0.679,,,,,,magnitude,7,9,7 | 9,2,0.06,0.06,neutral,right,0,38,38,59,1,,,,,,,,,,,,,,,,,,,,,,,,,,,,,,,,,,,,,,,,,,,,,,,,,,,,,,,,,,,,,,,,,,,,,,,,,,,,,,,,,,,
,8761,BAC,1/12/2004,001,2023-12-17_14h34.07.202,OS3_Mult_verification,2022.2.4,MacIntel,62.5,,,,,,,,,,,,,,,,,,,,,,,,,,,,,,,,,,,,,,,,,,,,,,,,,,,,,,,,,,,,,,,,,,,,,,left,0,0.751,,,,,,magnitude,2,7,2 | 7,5,0.065,0.05,incongruent,right,0,39,39,41,1,,,,,,,,,,,,,,,,,,,,,,,,,,,,,,,,,,,,,,,,,,,,,,,,,,,,,,,,,,,,,,,,,,,,,,,,,,,,,,,,,,,
,8761,BAC,1/12/2004,001,2023-12-17_14h34.07.202,OS3_Mult_verification,2022.2.4,MacIntel,62.5,,,,,,,,,,,,,,,,,,,,,,,,,,,,,,,,,,,,,,,,,,,,,,,,,,,,,,,,,,,,,,,,,,,,,,right,1,0.667,,,,,,magnitude,3,4,3 | 4,1,0.06,0.06,neutral,right,0,40,40,49,1,,,,,,,,,,,,,,,,,,,,,,,,,,,,,,,,,,,,,,,,,,,,,,,,,,,,,,,,,,,,,,,,,,,,,,,,,,,,,,,,,,,
,8761,BAC,1/12/2004,001,2023-12-17_14h34.07.202,OS3_Mult_verification,2022.2.4,MacIntel,62.5,,,,,,,,,,,,,,,,,,,,,,,,,,,,,,,,,,,,,,,,,,,,,,,,,,,,,,,,,,,,,,,,,,,,,,left,0,0.643,,,,,,magnitude,1,2,1 | 2,1,0.065,0.05,incongruent,right,0,41,41,24,1,,,,,,,,,,,,,,,,,,,,,,,,,,,,,,,,,,,,,,,,,,,,,,,,,,,,,,,,,,,,,,,,,,,,,,,,,,,,,,,,,,,
,8761,BAC,1/12/2004,001,2023-12-17_14h34.07.202,OS3_Mult_verification,2022.2.4,MacIntel,62.5,,,,,,,,,,,,,,,,,,,,,,,,,,,,,,,,,,,,,,,,,,,,,,,,,,,,,,,,,,,,,,,,,,,,,,right,1,0.933,,,,,,magnitude,2,4,2 | 4,2,0.06,0.06,neutral,right,0,42,42,57,1,,,,,,,,,,,,,,,,,,,,,,,,,,,,,,,,,,,,,,,,,,,,,,,,,,,,,,,,,,,,,,,,,,,,,,,,,,,,,,,,,,,
,8761,BAC,1/12/2004,001,2023-12-17_14h34.07.202,OS3_Mult_verification,2022.2.4,MacIntel,62.5,,,,,,,,,,,,,,,,,,,,,,,,,,,,,,,,,,,,,,,,,,,,,,,,,,,,,,,,,,,,,,,,,,,,,,right,1,0.629,,,,,,magnitude,1,2,1 | 2,1,0.06,0.06,neutral,right,0,43,43,48,1,,,,,,,,,,,,,,,,,,,,,,,,,,,,,,,,,,,,,,,,,,,,,,,,,,,,,,,,,,,,,,,,,,,,,,,,,,,,,,,,,,,
,8761,BAC,1/12/2004,001,2023-12-17_14h34.07.202,OS3_Mult_verification,2022.2.4,MacIntel,62.5,,,,,,,,,,,,,,,,,,,,,,,,,,,,,,,,,,,,,,,,,,,,,,,,,,,,,,,,,,,,,,,,,,,,,,right,1,0.6,,,,,,magnitude,1,3,1 | 3,2,0.05,0.065,congruent,right,0,44,44,8,1,,,,,,,,,,,,,,,,,,,,,,,,,,,,,,,,,,,,,,,,,,,,,,,,,,,,,,,,,,,,,,,,,,,,,,,,,,,,,,,,,,,
,8761,BAC,1/12/2004,001,2023-12-17_14h34.07.202,OS3_Mult_verification,2022.2.4,MacIntel,62.5,,,,,,,,,,,,,,,,,,,,,,,,,,,,,,,,,,,,,,,,,,,,,,,,,,,,,,,,,,,,,,,,,,,,,,right,1,0.35,,,,,,magnitude,1,6,1 | 6,5,0.065,0.05,incongruent,right,0,45,45,40,1,,,,,,,,,,,,,,,,,,,,,,,,,,,,,,,,,,,,,,,,,,,,,,,,,,,,,,,,,,,,,,,,,,,,,,,,,,,,,,,,,,,
,8761,BAC,1/12/2004,001,2023-12-17_14h34.07.202,OS3_Mult_verification,2022.2.4,MacIntel,62.5,,,,,,,,,,,,,,,,,,,,,,,,,,,,,,,,,,,,,,,,,,,,,,,,,,,,,,,,,,,,,,,,,,,,,,right,1,0.832,,,,,,magnitude,2,4,2 | 4,2,0.05,0.065,congruent,right,0,46,46,9,1,,,,,,,,,,,,,,,,,,,,,,,,,,,,,,,,,,,,,,,,,,,,,,,,,,,,,,,,,,,,,,,,,,,,,,,,,,,,,,,,,,,
,8761,BAC,1/12/2004,001,2023-12-17_14h34.07.202,OS3_Mult_verification,2022.2.4,MacIntel,62.5,,,,,,,,,,,,,,,,,,,,,,,,,,,,,,,,,,,,,,,,,,,,,,,,,,,,,,,,,,,,,,,,,,,,,,right,0,0.865,,,,,,magnitude,4,3,4 | 3,1,0.05,0.065,incongruent,left,0,47,47,29,1,,,,,,,,,,,,,,,,,,,,,,,,,,,,,,,,,,,,,,,,,,,,,,,,,,,,,,,,,,,,,,,,,,,,,,,,,,,,,,,,,,,
,8761,BAC,1/12/2004,001,2023-12-17_14h34.07.202,OS3_Mult_verification,2022.2.4,MacIntel,62.5,,,,,,,,,,,,,,,,,,,,,,,,,,,,,,,,,,,,,,,,,,,,,,,,,,,,,,,,,,,,,,,,,,,,,,right,1,0.581,,,,,,magnitude,6,8,6 | 8,2,0.05,0.065,congruent,right,0,48,48,10,1,,,,,,,,,,,,,,,,,,,,,,,,,,,,,,,,,,,,,,,,,,,,,,,,,,,,,,,,,,,,,,,,,,,,,,,,,,,,,,,,,,,
,8761,BAC,1/12/2004,001,2023-12-17_14h34.07.202,OS3_Mult_verification,2022.2.4,MacIntel,62.5,,,,,,,,,,,,,,,,,,,,,,,,,,,,,,,,,,,,,,,,,,,,,,,,,,,,,,,,,,,,,,,,,,,,,,left,1,0.514,,,,,,magnitude,8,3,8 | 3,5,0.065,0.05,congruent,left,0,49,49,22,1,,,,,,,,,,,,,,,,,,,,,,,,,,,,,,,,,,,,,,,,,,,,,,,,,,,,,,,,,,,,,,,,,,,,,,,,,,,,,,,,,,,
,8761,BAC,1/12/2004,001,2023-12-17_14h34.07.202,OS3_Mult_verification,2022.2.4,MacIntel,62.5,,,,,,,,,,,,,,,,,,,,,,,,,,,,,,,,,,,,,,,,,,,,,,,,,,,,,,,,,,,,,,,,,,,,,,left,1,0.67,,,,,,magnitude,3,1,3 | 1,2,0.065,0.05,congruent,left,0,50,50,12,1,,,,,,,,,,,,,,,,,,,,,,,,,,,,,,,,,,,,,,,,,,,,,,,,,,,,,,,,,,,,,,,,,,,,,,,,,,,,,,,,,,,
,8761,BAC,1/12/2004,001,2023-12-17_14h34.07.202,OS3_Mult_verification,2022.2.4,MacIntel,62.5,,,,,,,,,,,,,,,,,,,,,,,,,,,,,,,,,,,,,,,,,,,,,,,,,,,,,,,,,,,,,,,,,,,,,,right,1,0.547,,,,,,magnitude,8,9,8 | 9,1,0.05,0.065,congruent,right,0,51,51,3,1,,,,,,,,,,,,,,,,,,,,,,,,,,,,,,,,,,,,,,,,,,,,,,,,,,,,,,,,,,,,,,,,,,,,,,,,,,,,,,,,,,,
,8761,BAC,1/12/2004,001,2023-12-17_14h34.07.202,OS3_Mult_verification,2022.2.4,MacIntel,62.5,,,,,,,,,,,,,,,,,,,,,,,,,,,,,,,,,,,,,,,,,,,,,,,,,,,,,,,,,,,,,,,,,,,,,,left,1,0.534,,,,,,magnitude,4,2,4 | 2,2,0.065,0.05,congruent,left,0,52,52,13,1,,,,,,,,,,,,,,,,,,,,,,,,,,,,,,,,,,,,,,,,,,,,,,,,,,,,,,,,,,,,,,,,,,,,,,,,,,,,,,,,,,,
,8761,BAC,1/12/2004,001,2023-12-17_14h34.07.202,OS3_Mult_verification,2022.2.4,MacIntel,62.5,,,,,,,,,,,,,,,,,,,,,,,,,,,,,,,,,,,,,,,,,,,,,,,,,,,,,,,,,,,,,,,,,,,,,,right,0,0.482,,,,,,magnitude,4,2,4 | 2,2,0.05,0.065,incongruent,left,0,53,53,37,1,,,,,,,,,,,,,,,,,,,,,,,,,,,,,,,,,,,,,,,,,,,,,,,,,,,,,,,,,,,,,,,,,,,,,,,,,,,,,,,,,,,
,8761,BAC,1/12/2004,001,2023-12-17_14h34.07.202,OS3_Mult_verification,2022.2.4,MacIntel,62.5,,,,,,,,,,,,,,,,,,,,,,,,,,,,,,,,,,,,,,,,,,,,,,,,,,,,,,,,,,,,,,,,,,,,,,right,1,0.564,,,,,,magnitude,2,7,2 | 7,5,0.05,0.065,congruent,right,0,54,54,17,1,,,,,,,,,,,,,,,,,,,,,,,,,,,,,,,,,,,,,,,,,,,,,,,,,,,,,,,,,,,,,,,,,,,,,,,,,,,,,,,,,,,
,8761,BAC,1/12/2004,001,2023-12-17_14h34.07.202,OS3_Mult_verification,2022.2.4,MacIntel,62.5,,,,,,,,,,,,,,,,,,,,,,,,,,,,,,,,,,,,,,,,,,,,,,,,,,,,,,,,,,,,,,,,,,,,,,left,0,0.497,,,,,,magnitude,3,4,3 | 4,1,0.065,0.05,incongruent,right,0,55,55,25,1,,,,,,,,,,,,,,,,,,,,,,,,,,,,,,,,,,,,,,,,,,,,,,,,,,,,,,,,,,,,,,,,,,,,,,,,,,,,,,,,,,,
,8761,BAC,1/12/2004,001,2023-12-17_14h34.07.202,OS3_Mult_verification,2022.2.4,MacIntel,62.5,,,,,,,,,,,,,,,,,,,,,,,,,,,,,,,,,,,,,,,,,,,,,,,,,,,,,,,,,,,,,,,,,,,,,,right,0,0.664,,,,,,magnitude,7,6,7 | 6,1,0.05,0.065,incongruent,left,0,56,56,30,1,,,,,,,,,,,,,,,,,,,,,,,,,,,,,,,,,,,,,,,,,,,,,,,,,,,,,,,,,,,,,,,,,,,,,,,,,,,,,,,,,,,
,8761,BAC,1/12/2004,001,2023-12-17_14h34.07.202,OS3_Mult_verification,2022.2.4,MacIntel,62.5,,,,,,,,,,,,,,,,,,,,,,,,,,,,,,,,,,,,,,,,,,,,,,,,,,,,,,,,,,,,,,,,,,,,,,right,1,0.883,,,,,,magnitude,6,8,6 | 8,2,0.06,0.06,neutral,right,0,57,57,58,1,,,,,,,,,,,,,,,,,,,,,,,,,,,,,,,,,,,,,,,,,,,,,,,,,,,,,,,,,,,,,,,,,,,,,,,,,,,,,,,,,,,
