windowSize,participant,group,DOB (DD/MM/YEAR),session,date,expName,psychopyVersion,OS,frameRate,typing_instr_resp.keys,typing_instr_resp.rt,typing_response,typing_rt,typing_score,typingSpeed_input_resp.keys,typingSpeed_input_resp.rt,typing_speed_trials.thisRepN,typing_speed_trials.thisTrialN,typing_speed_trials.thisN,typing_speed_trials.thisIndex,typing_speed_trials.ran,typing_speed_stim,typing_report_resp.keys,typing_report_resp.rt,vpt_trial_resp1.keys,vpt_trial_resp1.rt,typedResponse,fluency_rt,fluency_score,fluencyInputResp.keys,fluencyInputResp.rt,fluencyPracLoop.thisRepN,fluencyPracLoop.thisTrialN,fluencyPracLoop.thisN,fluencyPracLoop.thisIndex,fluencyPracLoop.ran,problem,answers,fluencyLoop.thisRepN,fluencyLoop.thisTrialN,fluencyLoop.thisN,fluencyLoop.thisIndex,fluencyLoop.ran,stroopResp.keys,stroopResp.corr,stroopResp.rt,stroopPracLoop.thisRepN,stroopPracLoop.thisTrialN,stroopPracLoop.thisN,stroopPracLoop.thisIndex,stroopPracLoop.ran,stroopCond,leftNo,rightNo,displayProblem,numDistance,leftNo_size,rightNo_size,Dims,keyAnswer,stroopLoop.thisRepN,stroopLoop.thisTrialN,stroopLoop.thisN,stroopLoop.thisIndex,stroopLoop.ran,stroopBlocks.thisRepN,stroopBlocks.thisTrialN,stroopBlocks.thisN,stroopBlocks.thisIndex,stroopBlocks.ran,stroop_condition,stroop_pracFile,ActionInst,instrImage,TASK_A.thisRepN,TASK_A.thisTrialN,TASK_A.thisN,TASK_A.thisIndex,TASK_A.ran,controlTaskOrder.thisRepN,controlTaskOrder.thisTrialN,controlTaskOrder.thisN,controlTaskOrder.thisIndex,controlTaskOrder.ran,nRepsTask1,nRepsTask2,nRepsTask3,vptCorrect,vpt_rt,respMouse.x,respMouse.y,respMouse.leftButton,respMouse.midButton,respMouse.rightButton,vptPracticeLoop.thisRepN,vptPracticeLoop.thisTrialN,vptPracticeLoop.thisN,vptPracticeLoop.thisIndex,vptPracticeLoop.ran,trialType,tiles,rows,cols,vptTrialLoop.thisRepN,vptTrialLoop.thisTrialN,vptTrialLoop.thisN,vptTrialLoop.thisIndex,vptTrialLoop.ran,noOfBlocks,TASK_B.thisRepN,TASK_B.thisTrialN,TASK_B.thisN,TASK_B.thisIndex,TASK_B.ran,sampleAudio_resp.keys,sampleAudio_resp.rt,subjResponse,audio_rt,DS_score,inputResp.keys,inputResp.rt,audioPracticeLoop.thisRepN,audioPracticeLoop.thisTrialN,audioPracticeLoop.thisN,audioPracticeLoop.thisIndex,audioPracticeLoop.ran,digitSpan,digits_audioStim,soundsFile,typeDS,audioTrials_Loop.thisRepN,audioTrials_Loop.thisTrialN,audioTrials_Loop.thisN,audioTrials_Loop.thisIndex,audioTrials_Loop.ran,audioBlocks_loop.thisRepN,audioBlocks_loop.thisTrialN,audioBlocks_loop.thisN,audioBlocks_loop.thisIndex,audioBlocks_loop.ran,ConditionFile,digitSpanTask_loop.thisRepN,digitSpanTask_loop.thisTrialN,digitSpanTask_loop.thisN,digitSpanTask_loop.thisIndex,digitSpanTask_loop.ran,dsFile,TASK_C.thisRepN,TASK_C.thisTrialN,TASK_C.thisN,TASK_C.thisIndex,TASK_C.ran,veriStim_resp.keys,veriStim_resp.corr,veriStim_resp.rt,verificationPracLoop.thisRepN,verificationPracLoop.thisTrialN,verificationPracLoop.thisN,verificationPracLoop.thisIndex,verificationPracLoop.ran,mult_problem,mult_answer,mult_type,error_distance,interferenceScore,problemType,interferenceLevel,problemSize,img_leftButton,img_rightButton,veriLoop.thisRepN,veriLoop.thisTrialN,veriLoop.thisN,veriLoop.thisIndex,veriLoop.ran,veriBlock.thisRepN,veriBlock.thisTrialN,veriBlock.thisN,veriBlock.thisIndex,veriBlock.ran,verificationFiles,end_resp.keys,end_resp.rt
"[1280,569]",318020814820,ABC,01/10/1996,001,2023-04-03_09h53.15.060,OS3_Mult_verification,2022.2.4,Win32,60.06727535,,,,,,,,,,,,,,,,,,,,,,,,,,,,,,,,,,,,,,,,,,,,,,,,,,,,,,,,,,,,,,,,,,,,,,,,,,,,,,,,,,,,,,,,,,,,,,,,,,,,,,,,,,,,,,,,,,,,,,,,,,,,,,,,,,,,,,,,,,,,,,,,,,,,,,,,,,,,,,,,,,,,,,,,,,,,,,
,318020814820,ABC,01/10/1996,001,2023-04-03_09h53.15.060,OS3_Mult_verification,2022.2.4,Win32,60.06727535,,,,,,,,,,,,,,,,,,,,,,,,,,,,,,,,,,,,,,,,,,,,,,,,,,,,,,,,,,,,,,,,,,,,,,,,,,,,,,,,,,,,,,,,,,,,,,,,,,,,,,,,,,,,,,,,,,,,,,,,,,,,,,,,,,,,,,,,,,,,,,,,,,,,,,,,,,,,,,,,,,,,,,,,,,,,,,
,318020814820,ABC,01/10/1996,001,2023-04-03_09h53.15.060,OS3_Mult_verification,2022.2.4,Win32,60.06727535,space,13.5074,,,,,,,,,,,,,,,,,,,,,,,,,,,,,,,,,,,,,,,,,,,,,,,,,,,,,,,,,,,,,,,,,,,,,,,,,,,,,,,,,,,,,,,,,,,,,,,,,,,,,,,,,,,,,,,,,,,,,,,,,,,,,,,,,,,,,,,,,,,,,,,,,,,,,,,,,,,,,,,,,,,,,,,,,,,,
,318020814820,ABC,01/10/1996,001,2023-04-03_09h53.15.060,OS3_Mult_verification,2022.2.4,Win32,60.06727535,,,42,2.2309,1,"[""4"",""2"",""return""]","[1.285700000047683,1.363500000000002,2.1924000000953754]",0,0,0,21,1,42,,,,,,,,,,,,,,,,,,,,,,,,,,,,,,,,,,,,,,,,,,,,,,,,,,,,,,,,,,,,,,,,,,,,,,,,,,,,,,,,,,,,,,,,,,,,,,,,,,,,,,,,,,,,,,,,,,,,,,,,,,,,,,,,,,,,,,,,,,,,,,,,,,,,,,,,,,,,,,,,,
,318020814820,ABC,01/10/1996,001,2023-04-03_09h53.15.060,OS3_Mult_verification,2022.2.4,Win32,60.06727535,,,49,1.4154,1,"[""4"",""9"",""return""]","[0.9881000001430493,1.0832999999523167,1.3657999999523156]",0,1,1,24,1,49,,,,,,,,,,,,,,,,,,,,,,,,,,,,,,,,,,,,,,,,,,,,,,,,,,,,,,,,,,,,,,,,,,,,,,,,,,,,,,,,,,,,,,,,,,,,,,,,,,,,,,,,,,,,,,,,,,,,,,,,,,,,,,,,,,,,,,,,,,,,,,,,,,,,,,,,,,,,,,,,,
,318020814820,ABC,01/10/1996,001,2023-04-03_09h53.15.060,OS3_Mult_verification,2022.2.4,Win32,60.06727535,,,21,1.0657,1,"[""2"",""1"",""return""]","[0.7842999999523101,0.8502999999523126,1.0229999999999961]",0,2,2,11,1,21,,,,,,,,,,,,,,,,,,,,,,,,,,,,,,,,,,,,,,,,,,,,,,,,,,,,,,,,,,,,,,,,,,,,,,,,,,,,,,,,,,,,,,,,,,,,,,,,,,,,,,,,,,,,,,,,,,,,,,,,,,,,,,,,,,,,,,,,,,,,,,,,,,,,,,,,,,,,,,,,,
,318020814820,ABC,01/10/1996,001,2023-04-03_09h53.15.060,OS3_Mult_verification,2022.2.4,Win32,60.06727535,,,64,1.4324,1,"[""6"",""4"",""return""]","[1.1111000001430682,1.1805000000000234,1.3826000001430714]",0,3,3,28,1,64,,,,,,,,,,,,,,,,,,,,,,,,,,,,,,,,,,,,,,,,,,,,,,,,,,,,,,,,,,,,,,,,,,,,,,,,,,,,,,,,,,,,,,,,,,,,,,,,,,,,,,,,,,,,,,,,,,,,,,,,,,,,,,,,,,,,,,,,,,,,,,,,,,,,,,,,,,,,,,,,,
,318020814820,ABC,01/10/1996,001,2023-04-03_09h53.15.060,OS3_Mult_verification,2022.2.4,Win32,60.06727535,,,45,1.282,1,"[""4"",""5"",""return""]","[0.9385000000000048,1.0235999999046328,1.232599999904636]",0,4,4,22,1,45,,,,,,,,,,,,,,,,,,,,,,,,,,,,,,,,,,,,,,,,,,,,,,,,,,,,,,,,,,,,,,,,,,,,,,,,,,,,,,,,,,,,,,,,,,,,,,,,,,,,,,,,,,,,,,,,,,,,,,,,,,,,,,,,,,,,,,,,,,,,,,,,,,,,,,,,,,,,,,,,,
,318020814820,ABC,01/10/1996,001,2023-04-03_09h53.15.060,OS3_Mult_verification,2022.2.4,Win32,60.06727535,,,12,1.1157,1,"[""1"",""2"",""return""]","[0.8077999999523229,0.8670000000000186,1.073099999904656]",0,5,5,5,1,12,,,,,,,,,,,,,,,,,,,,,,,,,,,,,,,,,,,,,,,,,,,,,,,,,,,,,,,,,,,,,,,,,,,,,,,,,,,,,,,,,,,,,,,,,,,,,,,,,,,,,,,,,,,,,,,,,,,,,,,,,,,,,,,,,,,,,,,,,,,,,,,,,,,,,,,,,,,,,,,,,
,318020814820,ABC,01/10/1996,001,2023-04-03_09h53.15.060,OS3_Mult_verification,2022.2.4,Win32,60.06727535,,,81,1.3986,1,"[""8"",""1"",""return""]","[1.0747999999522904,1.188699999809245,1.349799999952296]",0,6,6,30,1,81,,,,,,,,,,,,,,,,,,,,,,,,,,,,,,,,,,,,,,,,,,,,,,,,,,,,,,,,,,,,,,,,,,,,,,,,,,,,,,,,,,,,,,,,,,,,,,,,,,,,,,,,,,,,,,,,,,,,,,,,,,,,,,,,,,,,,,,,,,,,,,,,,,,,,,,,,,,,,,,,,
,318020814820,ABC,01/10/1996,001,2023-04-03_09h53.15.060,OS3_Mult_verification,2022.2.4,Win32,60.06727535,,,25,1.382,1,"[""2"",""5"",""return""]","[1.0415000000000134,1.0987999999523197,1.3312000000476871]",0,7,7,13,1,25,,,,,,,,,,,,,,,,,,,,,,,,,,,,,,,,,,,,,,,,,,,,,,,,,,,,,,,,,,,,,,,,,,,,,,,,,,,,,,,,,,,,,,,,,,,,,,,,,,,,,,,,,,,,,,,,,,,,,,,,,,,,,,,,,,,,,,,,,,,,,,,,,,,,,,,,,,,,,,,,,
,318020814820,ABC,01/10/1996,001,2023-04-03_09h53.15.060,OS3_Mult_verification,2022.2.4,Win32,60.06727535,,,35,1.249,1,"[""3"",""5"",""return""]","[0.9458999998569482,0.9823999998569661,1.205199999809281]",0,8,8,18,1,35,,,,,,,,,,,,,,,,,,,,,,,,,,,,,,,,,,,,,,,,,,,,,,,,,,,,,,,,,,,,,,,,,,,,,,,,,,,,,,,,,,,,,,,,,,,,,,,,,,,,,,,,,,,,,,,,,,,,,,,,,,,,,,,,,,,,,,,,,,,,,,,,,,,,,,,,,,,,,,,,,
,318020814820,ABC,01/10/1996,001,2023-04-03_09h53.15.060,OS3_Mult_verification,2022.2.4,Win32,60.06727535,,,48,1.632,1,"[""4"",""8"",""return""]","[0.9972000000476839,1.4340999999046176,1.5994999999999777]",0,9,9,23,1,48,,,,,,,,,,,,,,,,,,,,,,,,,,,,,,,,,,,,,,,,,,,,,,,,,,,,,,,,,,,,,,,,,,,,,,,,,,,,,,,,,,,,,,,,,,,,,,,,,,,,,,,,,,,,,,,,,,,,,,,,,,,,,,,,,,,,,,,,,,,,,,,,,,,,,,,,,,,,,,,,,
,318020814820,ABC,01/10/1996,001,2023-04-03_09h53.15.060,OS3_Mult_verification,2022.2.4,Win32,60.06727535,,,18,1.2821,1,"[""1"",""8"",""return""]","[0.6655000000000086,1.065299999952316,1.23769999980928]",0,10,10,9,1,18,,,,,,,,,,,,,,,,,,,,,,,,,,,,,,,,,,,,,,,,,,,,,,,,,,,,,,,,,,,,,,,,,,,,,,,,,,,,,,,,,,,,,,,,,,,,,,,,,,,,,,,,,,,,,,,,,,,,,,,,,,,,,,,,,,,,,,,,,,,,,,,,,,,,,,,,,,,,,,,,,
,318020814820,ABC,01/10/1996,001,2023-04-03_09h53.15.060,OS3_Mult_verification,2022.2.4,Win32,60.06727535,,,14,1.2489,1,"[""1"",""4"",""return""]","[0.9497000000476703,1.0162999999523095,1.1989000000953638]",0,11,11,6,1,14,,,,,,,,,,,,,,,,,,,,,,,,,,,,,,,,,,,,,,,,,,,,,,,,,,,,,,,,,,,,,,,,,,,,,,,,,,,,,,,,,,,,,,,,,,,,,,,,,,,,,,,,,,,,,,,,,,,,,,,,,,,,,,,,,,,,,,,,,,,,,,,,,,,,,,,,,,,,,,,,,
,318020814820,ABC,01/10/1996,001,2023-04-03_09h53.15.060,OS3_Mult_verification,2022.2.4,Win32,60.06727535,,,6,1.1972,1,"[""6"",""return""]","[0.9590000000000032,1.1492000000476992]",0,12,12,1,1,6,,,,,,,,,,,,,,,,,,,,,,,,,,,,,,,,,,,,,,,,,,,,,,,,,,,,,,,,,,,,,,,,,,,,,,,,,,,,,,,,,,,,,,,,,,,,,,,,,,,,,,,,,,,,,,,,,,,,,,,,,,,,,,,,,,,,,,,,,,,,,,,,,,,,,,,,,,,,,,,,,
,318020814820,ABC,01/10/1996,001,2023-04-03_09h53.15.060,OS3_Mult_verification,2022.2.4,Win32,60.06727535,,,56,1.2819,1,"[""5"",""6"",""return""]","[1.0074999999999932,1.0498000001907428,1.2423000001907383]",0,13,13,26,1,56,,,,,,,,,,,,,,,,,,,,,,,,,,,,,,,,,,,,,,,,,,,,,,,,,,,,,,,,,,,,,,,,,,,,,,,,,,,,,,,,,,,,,,,,,,,,,,,,,,,,,,,,,,,,,,,,,,,,,,,,,,,,,,,,,,,,,,,,,,,,,,,,,,,,,,,,,,,,,,,,,
,318020814820,ABC,01/10/1996,001,2023-04-03_09h53.15.060,OS3_Mult_verification,2022.2.4,Win32,60.06727535,,,27,1.3487,1,"[""2"",""7"",""return""]","[1.0169000000953474,1.104400000095353,1.3098000001907337]",0,14,14,14,1,27,,,,,,,,,,,,,,,,,,,,,,,,,,,,,,,,,,,,,,,,,,,,,,,,,,,,,,,,,,,,,,,,,,,,,,,,,,,,,,,,,,,,,,,,,,,,,,,,,,,,,,,,,,,,,,,,,,,,,,,,,,,,,,,,,,,,,,,,,,,,,,,,,,,,,,,,,,,,,,,,,
,318020814820,ABC,01/10/1996,001,2023-04-03_09h53.15.060,OS3_Mult_verification,2022.2.4,Win32,60.06727535,,,63,1.4319,1,"[""6"",""3"",""return""]","[1.1088000001907403,1.2003000001907367,1.3828000001907412]",0,15,15,27,1,63,,,,,,,,,,,,,,,,,,,,,,,,,,,,,,,,,,,,,,,,,,,,,,,,,,,,,,,,,,,,,,,,,,,,,,,,,,,,,,,,,,,,,,,,,,,,,,,,,,,,,,,,,,,,,,,,,,,,,,,,,,,,,,,,,,,,,,,,,,,,,,,,,,,,,,,,,,,,,,,,,
,318020814820,ABC,01/10/1996,001,2023-04-03_09h53.15.060,OS3_Mult_verification,2022.2.4,Win32,60.06727535,,,72,1.3988,1,"[""7"",""2"",""return""]","[1.096299999952322,1.1855000000000189,1.3612999999523083]",0,16,16,29,1,72,,,,,,,,,,,,,,,,,,,,,,,,,,,,,,,,,,,,,,,,,,,,,,,,,,,,,,,,,,,,,,,,,,,,,,,,,,,,,,,,,,,,,,,,,,,,,,,,,,,,,,,,,,,,,,,,,,,,,,,,,,,,,,,,,,,,,,,,,,,,,,,,,,,,,,,,,,,,,,,,,
,318020814820,ABC,01/10/1996,001,2023-04-03_09h53.15.060,OS3_Mult_verification,2022.2.4,Win32,60.06727535,,,40,1.2486,1,"[""4"",""0"",""return""]","[0.9140999999046358,1.0327999999523172,1.2127000000476755]",0,17,17,20,1,40,,,,,,,,,,,,,,,,,,,,,,,,,,,,,,,,,,,,,,,,,,,,,,,,,,,,,,,,,,,,,,,,,,,,,,,,,,,,,,,,,,,,,,,,,,,,,,,,,,,,,,,,,,,,,,,,,,,,,,,,,,,,,,,,,,,,,,,,,,,,,,,,,,,,,,,,,,,,,,,,,
,318020814820,ABC,01/10/1996,001,2023-04-03_09h53.15.060,OS3_Mult_verification,2022.2.4,Win32,60.06727535,,,16,1.1991,1,"[""1"",""6"",""return""]","[0.769500000000022,0.9201000001430657,1.1484000000953642]",0,18,18,8,1,16,,,,,,,,,,,,,,,,,,,,,,,,,,,,,,,,,,,,,,,,,,,,,,,,,,,,,,,,,,,,,,,,,,,,,,,,,,,,,,,,,,,,,,,,,,,,,,,,,,,,,,,,,,,,,,,,,,,,,,,,,,,,,,,,,,,,,,,,,,,,,,,,,,,,,,,,,,,,,,,,,
,318020814820,ABC,01/10/1996,001,2023-04-03_09h53.15.060,OS3_Mult_verification,2022.2.4,Win32,60.06727535,,,20,1.0495,1,"[""2"",""0"",""return""]","[0.6919000000953588,0.8219000000953542,1.007000000000005]",0,19,19,10,1,20,,,,,,,,,,,,,,,,,,,,,,,,,,,,,,,,,,,,,,,,,,,,,,,,,,,,,,,,,,,,,,,,,,,,,,,,,,,,,,,,,,,,,,,,,,,,,,,,,,,,,,,,,,,,,,,,,,,,,,,,,,,,,,,,,,,,,,,,,,,,,,,,,,,,,,,,,,,,,,,,,
,318020814820,ABC,01/10/1996,001,2023-04-03_09h53.15.060,OS3_Mult_verification,2022.2.4,Win32,60.06727535,,,54,1.6332,1,"[""5"",""4"",""return""]","[1.2657000000476728,1.349099999904638,1.5953999998569373]",0,20,20,25,1,54,,,,,,,,,,,,,,,,,,,,,,,,,,,,,,,,,,,,,,,,,,,,,,,,,,,,,,,,,,,,,,,,,,,,,,,,,,,,,,,,,,,,,,,,,,,,,,,,,,,,,,,,,,,,,,,,,,,,,,,,,,,,,,,,,,,,,,,,,,,,,,,,,,,,,,,,,,,,,,,,,
,318020814820,ABC,01/10/1996,001,2023-04-03_09h53.15.060,OS3_Mult_verification,2022.2.4,Win32,60.06727535,,,10,1.049,1,"[""1"",""0"",""return""]","[0.7097000000476896,0.7841000001430416,1.0032000000476842]",0,21,21,4,1,10,,,,,,,,,,,,,,,,,,,,,,,,,,,,,,,,,,,,,,,,,,,,,,,,,,,,,,,,,,,,,,,,,,,,,,,,,,,,,,,,,,,,,,,,,,,,,,,,,,,,,,,,,,,,,,,,,,,,,,,,,,,,,,,,,,,,,,,,,,,,,,,,,,,,,,,,,,,,,,,,,
,318020814820,ABC,01/10/1996,001,2023-04-03_09h53.15.060,OS3_Mult_verification,2022.2.4,Win32,60.06727535,,,36,1.3322,1,"[""3"",""6"",""return""]","[1.08290000009535,1.1487000000476826,1.2868000001907376]",0,22,22,19,1,36,,,,,,,,,,,,,,,,,,,,,,,,,,,,,,,,,,,,,,,,,,,,,,,,,,,,,,,,,,,,,,,,,,,,,,,,,,,,,,,,,,,,,,,,,,,,,,,,,,,,,,,,,,,,,,,,,,,,,,,,,,,,,,,,,,,,,,,,,,,,,,,,,,,,,,,,,,,,,,,,,
,318020814820,ABC,01/10/1996,001,2023-04-03_09h53.15.060,OS3_Mult_verification,2022.2.4,Win32,60.06727535,,,4,0.8808,1,"[""4"",""return""]","[0.6885000000000048,0.8359000000953642]",0,23,23,0,1,4,,,,,,,,,,,,,,,,,,,,,,,,,,,,,,,,,,,,,,,,,,,,,,,,,,,,,,,,,,,,,,,,,,,,,,,,,,,,,,,,,,,,,,,,,,,,,,,,,,,,,,,,,,,,,,,,,,,,,,,,,,,,,,,,,,,,,,,,,,,,,,,,,,,,,,,,,,,,,,,,,
,318020814820,ABC,01/10/1996,001,2023-04-03_09h53.15.060,OS3_Mult_verification,2022.2.4,Win32,60.06727535,,,30,1.0323,1,"[""3"",""0"",""return""]","[0.7831000001430652,0.8675000000000068,0.9912999999523322]",0,24,24,16,1,30,,,,,,,,,,,,,,,,,,,,,,,,,,,,,,,,,,,,,,,,,,,,,,,,,,,,,,,,,,,,,,,,,,,,,,,,,,,,,,,,,,,,,,,,,,,,,,,,,,,,,,,,,,,,,,,,,,,,,,,,,,,,,,,,,,,,,,,,,,,,,,,,,,,,,,,,,,,,,,,,,
,318020814820,ABC,01/10/1996,001,2023-04-03_09h53.15.060,OS3_Mult_verification,2022.2.4,Win32,60.06727535,,,28,1.0994,1,"[""2"",""8"",""return""]","[0.8034000000953654,0.9005000000000223,1.0626000001430498]",0,25,25,15,1,28,,,,,,,,,,,,,,,,,,,,,,,,,,,,,,,,,,,,,,,,,,,,,,,,,,,,,,,,,,,,,,,,,,,,,,,,,,,,,,,,,,,,,,,,,,,,,,,,,,,,,,,,,,,,,,,,,,,,,,,,,,,,,,,,,,,,,,,,,,,,,,,,,,,,,,,,,,,,,,,,,
,318020814820,ABC,01/10/1996,001,2023-04-03_09h53.15.060,OS3_Mult_verification,2022.2.4,Win32,60.06727535,,,32,1.0846,1,"[""3"",""2"",""return""]","[0.8635999999046362,0.9382999999523065,1.0474000000953652]",0,26,26,17,1,32,,,,,,,,,,,,,,,,,,,,,,,,,,,,,,,,,,,,,,,,,,,,,,,,,,,,,,,,,,,,,,,,,,,,,,,,,,,,,,,,,,,,,,,,,,,,,,,,,,,,,,,,,,,,,,,,,,,,,,,,,,,,,,,,,,,,,,,,,,,,,,,,,,,,,,,,,,,,,,,,,
,318020814820,ABC,01/10/1996,001,2023-04-03_09h53.15.060,OS3_Mult_verification,2022.2.4,Win32,60.06727535,,,15,1.1825,1,"[""1"",""5"",""return""]","[0.9106000001430345,0.9660000000000082,1.1446000001430434]",0,27,27,7,1,15,,,,,,,,,,,,,,,,,,,,,,,,,,,,,,,,,,,,,,,,,,,,,,,,,,,,,,,,,,,,,,,,,,,,,,,,,,,,,,,,,,,,,,,,,,,,,,,,,,,,,,,,,,,,,,,,,,,,,,,,,,,,,,,,,,,,,,,,,,,,,,,,,,,,,,,,,,,,,,,,,
,318020814820,ABC,01/10/1996,001,2023-04-03_09h53.15.060,OS3_Mult_verification,2022.2.4,Win32,60.06727535,,,8,0.9969,1,"[""8"",""return""]","[0.8440000000000225,0.961900000095369]",0,28,28,2,1,8,,,,,,,,,,,,,,,,,,,,,,,,,,,,,,,,,,,,,,,,,,,,,,,,,,,,,,,,,,,,,,,,,,,,,,,,,,,,,,,,,,,,,,,,,,,,,,,,,,,,,,,,,,,,,,,,,,,,,,,,,,,,,,,,,,,,,,,,,,,,,,,,,,,,,,,,,,,,,,,,,
,318020814820,ABC,01/10/1996,001,2023-04-03_09h53.15.060,OS3_Mult_verification,2022.2.4,Win32,60.06727535,,,24,1.0988,1,"[""2"",""4"",""return""]","[0.8164000000953422,0.8664999999999736,1.0496000001430446]",0,29,29,12,1,24,,,,,,,,,,,,,,,,,,,,,,,,,,,,,,,,,,,,,,,,,,,,,,,,,,,,,,,,,,,,,,,,,,,,,,,,,,,,,,,,,,,,,,,,,,,,,,,,,,,,,,,,,,,,,,,,,,,,,,,,,,,,,,,,,,,,,,,,,,,,,,,,,,,,,,,,,,,,,,,,,
,318020814820,ABC,01/10/1996,001,2023-04-03_09h53.15.060,OS3_Mult_verification,2022.2.4,Win32,60.06727535,,,9,0.8329,1,"[""9"",""return""]","[0.6114000000953581,0.7962999999523106]",0,30,30,3,1,9,,,,,,,,,,,,,,,,,,,,,,,,,,,,,,,,,,,,,,,,,,,,,,,,,,,,,,,,,,,,,,,,,,,,,,,,,,,,,,,,,,,,,,,,,,,,,,,,,,,,,,,,,,,,,,,,,,,,,,,,,,,,,,,,,,,,,,,,,,,,,,,,,,,,,,,,,,,,,,,,,
,318020814820,ABC,01/10/1996,001,2023-04-03_09h53.15.060,OS3_Mult_verification,2022.2.4,Win32,60.06727535,,,10,0.8826,1,"[""1"",""0"",""return""]","[0.5939999999999941,0.6688000001907426,0.8459000000953836]",1,0,31,4,1,10,,,,,,,,,,,,,,,,,,,,,,,,,,,,,,,,,,,,,,,,,,,,,,,,,,,,,,,,,,,,,,,,,,,,,,,,,,,,,,,,,,,,,,,,,,,,,,,,,,,,,,,,,,,,,,,,,,,,,,,,,,,,,,,,,,,,,,,,,,,,,,,,,,,,,,,,,,,,,,,,,
,318020814820,ABC,01/10/1996,001,2023-04-03_09h53.15.060,OS3_Mult_verification,2022.2.4,Win32,60.06727535,,,4,0.9496,1,"[""4"",""return""]","[0.7841000001430416,0.9054999999999893]",1,1,32,0,1,4,,,,,,,,,,,,,,,,,,,,,,,,,,,,,,,,,,,,,,,,,,,,,,,,,,,,,,,,,,,,,,,,,,,,,,,,,,,,,,,,,,,,,,,,,,,,,,,,,,,,,,,,,,,,,,,,,,,,,,,,,,,,,,,,,,,,,,,,,,,,,,,,,,,,,,,,,,,,,,,,,
,318020814820,ABC,01/10/1996,001,2023-04-03_09h53.15.060,OS3_Mult_verification,2022.2.4,Win32,60.06727535,,,32,0.9983,1,"[""3"",""2"",""return""]","[0.7834000000953552,0.8498000001907258,0.9509999999999934]",1,2,33,17,1,32,,,,,,,,,,,,,,,,,,,,,,,,,,,,,,,,,,,,,,,,,,,,,,,,,,,,,,,,,,,,,,,,,,,,,,,,,,,,,,,,,,,,,,,,,,,,,,,,,,,,,,,,,,,,,,,,,,,,,,,,,,,,,,,,,,,,,,,,,,,,,,,,,,,,,,,,,,,,,,,,,
,318020814820,ABC,01/10/1996,001,2023-04-03_09h53.15.060,OS3_Mult_verification,2022.2.4,Win32,60.06727535,,,8,0.9323,1,"[""8"",""return""]","[0.6970000000000027,0.8897999999523165]",1,3,34,2,1,8,,,,,,,,,,,,,,,,,,,,,,,,,,,,,,,,,,,,,,,,,,,,,,,,,,,,,,,,,,,,,,,,,,,,,,,,,,,,,,,,,,,,,,,,,,,,,,,,,,,,,,,,,,,,,,,,,,,,,,,,,,,,,,,,,,,,,,,,,,,,,,,,,,,,,,,,,,,,,,,,,
,318020814820,ABC,01/10/1996,001,2023-04-03_09h53.15.060,OS3_Mult_verification,2022.2.4,Win32,60.06727535,,,56,1.2988,1,"[""5"",""6"",""return""]","[1.0182000000476705,1.0670999999046273,1.2573999998569434]",1,4,35,26,1,56,,,,,,,,,,,,,,,,,,,,,,,,,,,,,,,,,,,,,,,,,,,,,,,,,,,,,,,,,,,,,,,,,,,,,,,,,,,,,,,,,,,,,,,,,,,,,,,,,,,,,,,,,,,,,,,,,,,,,,,,,,,,,,,,,,,,,,,,,,,,,,,,,,,,,,,,,,,,,,,,,
,318020814820,ABC,01/10/1996,001,2023-04-03_09h53.15.060,OS3_Mult_verification,2022.2.4,Win32,60.06727535,,,48,1.2324,1,"[""4"",""8"",""return""]","[0.9043999998569632,0.9900000000000091,1.1860999999046555]",1,5,36,23,1,48,,,,,,,,,,,,,,,,,,,,,,,,,,,,,,,,,,,,,,,,,,,,,,,,,,,,,,,,,,,,,,,,,,,,,,,,,,,,,,,,,,,,,,,,,,,,,,,,,,,,,,,,,,,,,,,,,,,,,,,,,,,,,,,,,,,,,,,,,,,,,,,,,,,,,,,,,,,,,,,,,
,318020814820,ABC,01/10/1996,001,2023-04-03_09h53.15.060,OS3_Mult_verification,2022.2.4,Win32,60.06727535,,,35,1.3988,1,"[""3"",""5"",""return""]","[1.1693000001907308,1.2166000001430461,1.3529000000953602]",1,6,37,18,1,35,,,,,,,,,,,,,,,,,,,,,,,,,,,,,,,,,,,,,,,,,,,,,,,,,,,,,,,,,,,,,,,,,,,,,,,,,,,,,,,,,,,,,,,,,,,,,,,,,,,,,,,,,,,,,,,,,,,,,,,,,,,,,,,,,,,,,,,,,,,,,,,,,,,,,,,,,,,,,,,,,
,318020814820,ABC,01/10/1996,001,2023-04-03_09h53.15.060,OS3_Mult_verification,2022.2.4,Win32,60.06727535,,,16,1.2821,1,"[""1"",""6"",""return""]","[1.0171000001430741,1.086500000000001,1.2375000000000114]",1,7,38,8,1,16,,,,,,,,,,,,,,,,,,,,,,,,,,,,,,,,,,,,,,,,,,,,,,,,,,,,,,,,,,,,,,,,,,,,,,,,,,,,,,,,,,,,,,,,,,,,,,,,,,,,,,,,,,,,,,,,,,,,,,,,,,,,,,,,,,,,,,,,,,,,,,,,,,,,,,,,,,,,,,,,,
,318020814820,ABC,01/10/1996,001,2023-04-03_09h53.15.060,OS3_Mult_verification,2022.2.4,Win32,60.06727535,,,6,1.0658,1,"[""6"",""return""]","[0.9492000000476821,1.0184999999999889]",1,8,39,1,1,6,,,,,,,,,,,,,,,,,,,,,,,,,,,,,,,,,,,,,,,,,,,,,,,,,,,,,,,,,,,,,,,,,,,,,,,,,,,,,,,,,,,,,,,,,,,,,,,,,,,,,,,,,,,,,,,,,,,,,,,,,,,,,,,,,,,,,,,,,,,,,,,,,,,,,,,,,,,,,,,,,
,318020814820,ABC,01/10/1996,001,2023-04-03_09h53.15.060,OS3_Mult_verification,2022.2.4,Win32,60.06727535,,,27,1.2156,1,"[""2"",""7"",""return""]","[0.8838999998569648,0.9658999998569584,1.1707999999523224]",1,9,40,14,1,27,,,,,,,,,,,,,,,,,,,,,,,,,,,,,,,,,,,,,,,,,,,,,,,,,,,,,,,,,,,,,,,,,,,,,,,,,,,,,,,,,,,,,,,,,,,,,,,,,,,,,,,,,,,,,,,,,,,,,,,,,,,,,,,,,,,,,,,,,,,,,,,,,,,,,,,,,,,,,,,,,
,318020814820,ABC,01/10/1996,001,2023-04-03_09h53.15.060,OS3_Mult_verification,2022.2.4,Win32,60.06727535,,,81,1.0014,1,"[""8"",""1"",""return""]","[0.7496000001430616,0.8305000000000007,0.9660000000000082]",1,10,41,30,1,81,,,,,,,,,,,,,,,,,,,,,,,,,,,,,,,,,,,,,,,,,,,,,,,,,,,,,,,,,,,,,,,,,,,,,,,,,,,,,,,,,,,,,,,,,,,,,,,,,,,,,,,,,,,,,,,,,,,,,,,,,,,,,,,,,,,,,,,,,,,,,,,,,,,,,,,,,,,,,,,,,
,318020814820,ABC,01/10/1996,001,2023-04-03_09h53.15.060,OS3_Mult_verification,2022.2.4,Win32,60.06727535,,,72,1.7469,1,"[""7"",""2"",""return""]","[1.208500000000015,1.2657000000477012,1.703300000190751]",1,11,42,29,1,72,,,,,,,,,,,,,,,,,,,,,,,,,,,,,,,,,,,,,,,,,,,,,,,,,,,,,,,,,,,,,,,,,,,,,,,,,,,,,,,,,,,,,,,,,,,,,,,,,,,,,,,,,,,,,,,,,,,,,,,,,,,,,,,,,,,,,,,,,,,,,,,,,,,,,,,,,,,,,,,,,
,318020814820,ABC,01/10/1996,001,2023-04-03_09h53.15.060,OS3_Mult_verification,2022.2.4,Win32,60.06727535,,,12,0.9826,1,"[""1"",""2"",""return""]","[0.6887999999522947,0.7509000000953563,0.9322999999523063]",1,12,43,5,1,12,,,,,,,,,,,,,,,,,,,,,,,,,,,,,,,,,,,,,,,,,,,,,,,,,,,,,,,,,,,,,,,,,,,,,,,,,,,,,,,,,,,,,,,,,,,,,,,,,,,,,,,,,,,,,,,,,,,,,,,,,,,,,,,,,,,,,,,,,,,,,,,,,,,,,,,,,,,,,,,,,
,318020814820,ABC,01/10/1996,001,2023-04-03_09h53.15.060,OS3_Mult_verification,2022.2.4,Win32,60.06727535,,,9,0.9824,1,"[""9"",""return""]","[0.7337999999523106,0.9420000000000073]",1,13,44,3,1,9,,,,,,,,,,,,,,,,,,,,,,,,,,,,,,,,,,,,,,,,,,,,,,,,,,,,,,,,,,,,,,,,,,,,,,,,,,,,,,,,,,,,,,,,,,,,,,,,,,,,,,,,,,,,,,,,,,,,,,,,,,,,,,,,,,,,,,,,,,,,,,,,,,,,,,,,,,,,,,,,,
,318020814820,ABC,01/10/1996,001,2023-04-03_09h53.15.060,OS3_Mult_verification,2022.2.4,Win32,60.06727535,,,45,1.1323,1,"[""4"",""5"",""return""]","[0.9097999999522983,0.9279999999999973,1.0829999999999984]",1,14,45,22,1,45,,,,,,,,,,,,,,,,,,,,,,,,,,,,,,,,,,,,,,,,,,,,,,,,,,,,,,,,,,,,,,,,,,,,,,,,,,,,,,,,,,,,,,,,,,,,,,,,,,,,,,,,,,,,,,,,,,,,,,,,,,,,,,,,,,,,,,,,,,,,,,,,,,,,,,,,,,,,,,,,,
,318020814820,ABC,01/10/1996,001,2023-04-03_09h53.15.060,OS3_Mult_verification,2022.2.4,Win32,60.06727535,,,15,1.0489,1,"[""1"",""5"",""return""]","[0.6924999999999955,0.7824000000953788,1.0012000000476746]",1,15,46,7,1,15,,,,,,,,,,,,,,,,,,,,,,,,,,,,,,,,,,,,,,,,,,,,,,,,,,,,,,,,,,,,,,,,,,,,,,,,,,,,,,,,,,,,,,,,,,,,,,,,,,,,,,,,,,,,,,,,,,,,,,,,,,,,,,,,,,,,,,,,,,,,,,,,,,,,,,,,,,,,,,,,,
,318020814820,ABC,01/10/1996,001,2023-04-03_09h53.15.060,OS3_Mult_verification,2022.2.4,Win32,60.06727535,,,36,1.1825,1,"[""3"",""6"",""return""]","[0.954900000095364,1.0007000000476864,1.140599999904623]",1,16,47,19,1,36,,,,,,,,,,,,,,,,,,,,,,,,,,,,,,,,,,,,,,,,,,,,,,,,,,,,,,,,,,,,,,,,,,,,,,,,,,,,,,,,,,,,,,,,,,,,,,,,,,,,,,,,,,,,,,,,,,,,,,,,,,,,,,,,,,,,,,,,,,,,,,,,,,,,,,,,,,,,,,,,,
,318020814820,ABC,01/10/1996,001,2023-04-03_09h53.15.060,OS3_Mult_verification,2022.2.4,Win32,60.06727535,,,18,1.0657,1,"[""1"",""8"",""return""]","[0.7534000000953824,0.8002000000476812,1.021000000000015]",1,17,48,9,1,18,,,,,,,,,,,,,,,,,,,,,,,,,,,,,,,,,,,,,,,,,,,,,,,,,,,,,,,,,,,,,,,,,,,,,,,,,,,,,,,,,,,,,,,,,,,,,,,,,,,,,,,,,,,,,,,,,,,,,,,,,,,,,,,,,,,,,,,,,,,,,,,,,,,,,,,,,,,,,,,,,
,318020814820,ABC,01/10/1996,001,2023-04-03_09h53.15.060,OS3_Mult_verification,2022.2.4,Win32,60.06727535,,,54,1.0157,1,"[""5"",""4"",""return""]","[0.7949000000953674,0.887799999952307,0.9787999999523151]",1,18,49,25,1,54,,,,,,,,,,,,,,,,,,,,,,,,,,,,,,,,,,,,,,,,,,,,,,,,,,,,,,,,,,,,,,,,,,,,,,,,,,,,,,,,,,,,,,,,,,,,,,,,,,,,,,,,,,,,,,,,,,,,,,,,,,,,,,,,,,,,,,,,,,,,,,,,,,,,,,,,,,,,,,,,,
,318020814820,ABC,01/10/1996,001,2023-04-03_09h53.15.060,OS3_Mult_verification,2022.2.4,Win32,60.06727535,,,42,1.432,1,"[""4"",""2"",""return""]","[1.1389000000953615,1.2284000000953483,1.390599999904623]",1,19,50,21,1,42,,,,,,,,,,,,,,,,,,,,,,,,,,,,,,,,,,,,,,,,,,,,,,,,,,,,,,,,,,,,,,,,,,,,,,,,,,,,,,,,,,,,,,,,,,,,,,,,,,,,,,,,,,,,,,,,,,,,,,,,,,,,,,,,,,,,,,,,,,,,,,,,,,,,,,,,,,,,,,,,,
,318020814820,ABC,01/10/1996,001,2023-04-03_09h53.15.060,OS3_Mult_verification,2022.2.4,Win32,60.06727535,,,21,0.9323,1,"[""2"",""1"",""return""]","[0.6661000001430466,0.7319999999999993,0.8832000000476796]",1,20,51,11,1,21,,,,,,,,,,,,,,,,,,,,,,,,,,,,,,,,,,,,,,,,,,,,,,,,,,,,,,,,,,,,,,,,,,,,,,,,,,,,,,,,,,,,,,,,,,,,,,,,,,,,,,,,,,,,,,,,,,,,,,,,,,,,,,,,,,,,,,,,,,,,,,,,,,,,,,,,,,,,,,,,,
,318020814820,ABC,01/10/1996,001,2023-04-03_09h53.15.060,OS3_Mult_verification,2022.2.4,Win32,60.06727535,,,40,1.2007,1,"[""4"",""0"",""return""]","[0.9222999999523154,0.9917999999523204,1.1654000000953602]",1,21,52,20,1,40,,,,,,,,,,,,,,,,,,,,,,,,,,,,,,,,,,,,,,,,,,,,,,,,,,,,,,,,,,,,,,,,,,,,,,,,,,,,,,,,,,,,,,,,,,,,,,,,,,,,,,,,,,,,,,,,,,,,,,,,,,,,,,,,,,,,,,,,,,,,,,,,,,,,,,,,,,,,,,,,,
,318020814820,ABC,01/10/1996,001,2023-04-03_09h53.15.060,OS3_Mult_verification,2022.2.4,Win32,60.06727535,,,25,1.1323,1,"[""2"",""5"",""return""]","[0.9174000000953697,0.9664999999999964,1.091100000143058]",1,22,53,13,1,25,,,,,,,,,,,,,,,,,,,,,,,,,,,,,,,,,,,,,,,,,,,,,,,,,,,,,,,,,,,,,,,,,,,,,,,,,,,,,,,,,,,,,,,,,,,,,,,,,,,,,,,,,,,,,,,,,,,,,,,,,,,,,,,,,,,,,,,,,,,,,,,,,,,,,,,,,,,,,,,,,
,318020814820,ABC,01/10/1996,001,2023-04-03_09h53.15.060,OS3_Mult_verification,2022.2.4,Win32,60.06727535,,,20,1.0657,1,"[""2"",""0"",""return""]","[0.8077999999522945,0.8851000001430407,1.0172000000476658]",1,23,54,10,1,20,,,,,,,,,,,,,,,,,,,,,,,,,,,,,,,,,,,,,,,,,,,,,,,,,,,,,,,,,,,,,,,,,,,,,,,,,,,,,,,,,,,,,,,,,,,,,,,,,,,,,,,,,,,,,,,,,,,,,,,,,,,,,,,,,,,,,,,,,,,,,,,,,,,,,,,,,,,,,,,,,
,318020814820,ABC,01/10/1996,001,2023-04-03_09h53.15.060,OS3_Mult_verification,2022.2.4,Win32,60.06727535,,,63,1.4995,1,"[""6"",""3"",""return""]","[1.0341000001430416,1.3044999999999902,1.454999999999984]",1,24,55,27,1,63,,,,,,,,,,,,,,,,,,,,,,,,,,,,,,,,,,,,,,,,,,,,,,,,,,,,,,,,,,,,,,,,,,,,,,,,,,,,,,,,,,,,,,,,,,,,,,,,,,,,,,,,,,,,,,,,,,,,,,,,,,,,,,,,,,,,,,,,,,,,,,,,,,,,,,,,,,,,,,,,,
,318020814820,ABC,01/10/1996,001,2023-04-03_09h53.15.060,OS3_Mult_verification,2022.2.4,Win32,60.06727535,,,64,1.1327,1,"[""6"",""4"",""return""]","[0.8790000000000191,0.9492000000476821,1.0829000000953783]",1,25,56,28,1,64,,,,,,,,,,,,,,,,,,,,,,,,,,,,,,,,,,,,,,,,,,,,,,,,,,,,,,,,,,,,,,,,,,,,,,,,,,,,,,,,,,,,,,,,,,,,,,,,,,,,,,,,,,,,,,,,,,,,,,,,,,,,,,,,,,,,,,,,,,,,,,,,,,,,,,,,,,,,,,,,,
,318020814820,ABC,01/10/1996,001,2023-04-03_09h53.15.060,OS3_Mult_verification,2022.2.4,Win32,60.06727535,,,49,1.265,1,"[""4"",""9"",""return""]","[0.9882000000476694,1.0577000000476744,1.2264999999999873]",1,26,57,24,1,49,,,,,,,,,,,,,,,,,,,,,,,,,,,,,,,,,,,,,,,,,,,,,,,,,,,,,,,,,,,,,,,,,,,,,,,,,,,,,,,,,,,,,,,,,,,,,,,,,,,,,,,,,,,,,,,,,,,,,,,,,,,,,,,,,,,,,,,,,,,,,,,,,,,,,,,,,,,,,,,,,
,318020814820,ABC,01/10/1996,001,2023-04-03_09h53.15.060,OS3_Mult_verification,2022.2.4,Win32,60.06727535,,,28,1.2972,1,"[""2"",""8"",""return""]","[0.994800000190736,1.082200000047692,1.24990000009538]",1,27,58,15,1,28,,,,,,,,,,,,,,,,,,,,,,,,,,,,,,,,,,,,,,,,,,,,,,,,,,,,,,,,,,,,,,,,,,,,,,,,,,,,,,,,,,,,,,,,,,,,,,,,,,,,,,,,,,,,,,,,,,,,,,,,,,,,,,,,,,,,,,,,,,,,,,,,,,,,,,,,,,,,,,,,,
,318020814820,ABC,01/10/1996,001,2023-04-03_09h53.15.060,OS3_Mult_verification,2022.2.4,Win32,60.06727535,,,30,0.9659,1,"[""3"",""0"",""return""]","[0.7082999999523167,0.799700000047693,0.9207000000476739]",1,28,59,16,1,30,,,,,,,,,,,,,,,,,,,,,,,,,,,,,,,,,,,,,,,,,,,,,,,,,,,,,,,,,,,,,,,,,,,,,,,,,,,,,,,,,,,,,,,,,,,,,,,,,,,,,,,,,,,,,,,,,,,,,,,,,,,,,,,,,,,,,,,,,,,,,,,,,,,,,,,,,,,,,,,,,
,318020814820,ABC,01/10/1996,001,2023-04-03_09h53.15.060,OS3_Mult_verification,2022.2.4,Win32,60.06727535,,,24,1.2185,1,"[""2"",""4"",""return""]","[1.0120000000000005,1.0836999998092551,1.1821999998092565]",1,29,60,12,1,24,,,,,,,,,,,,,,,,,,,,,,,,,,,,,,,,,,,,,,,,,,,,,,,,,,,,,,,,,,,,,,,,,,,,,,,,,,,,,,,,,,,,,,,,,,,,,,,,,,,,,,,,,,,,,,,,,,,,,,,,,,,,,,,,,,,,,,,,,,,,,,,,,,,,,,,,,,,,,,,,,
,318020814820,ABC,01/10/1996,001,2023-04-03_09h53.15.060,OS3_Mult_verification,2022.2.4,Win32,60.06727535,,,14,0.9489,1,"[""1"",""4"",""return""]","[0.7855000000000132,0.8342999999523215,0.9105999999046333]",1,30,61,6,1,14,,,,,,,,,,,,,,,,,,,,,,,,,,,,,,,,,,,,,,,,,,,,,,,,,,,,,,,,,,,,,,,,,,,,,,,,,,,,,,,,,,,,,,,,,,,,,,,,,,,,,,,,,,,,,,,,,,,,,,,,,,,,,,,,,,,,,,,,,,,,,,,,,,,,,,,,,,,,,,,,,
,318020814820,ABC,01/10/1996,001,2023-04-03_09h53.15.060,OS3_Mult_verification,2022.2.4,Win32,60.06727535,,,,,,,,,,,,,,space,3.8335,,,,,,,,,,,,,,,,,,,,,,,,,,,,,,,,,,,,,,,,,,,,,,,,,,,,,,,,,,,,,,,,,,,,,,,,,,,,,,,,,,,,,,,,,,,,,,,,,,,,,,,,,,,,,,,,,,,,,,,,,,,,,,,,,,,,,,,,,,,,,,,,,,,,,,,,,,,,,,,
,318020814820,ABC,01/10/1996,001,2023-04-03_09h53.15.060,OS3_Mult_verification,2022.2.4,Win32,60.06727535,,,,,,,,,,,,,,,,,,,,,,,,,,,,,,,,,,,,,,,,,,,,,,,,,,,,,,,,,,,,,,,,,,,,,,,,,,,,,,,,,,,,,,,,,,,,,,,,,,,,,,,,,,,,,,,,,,,,,,,,,,,,,,,,,,,,,,,,,,,,,,,,,,,,,,,,,,,,,,,,,,,,,,,,,,,,,,
,318020814820,ABC,01/10/1996,001,2023-04-03_09h53.15.060,OS3_Mult_verification,2022.2.4,Win32,60.06727535,,,,,,,,,,,,,,,,space,1.8218,,,,,,,,,,,,,,,,,,,,,,,,,,,,,,,,,,,,,,,,,,,,,,,,,,,,,,,,,,,,,,,,,,,,,,,,,,,,,,,,,,,,,,,,,,,,,,,,,,,,,,,,,,,,,,,,,,,,,,,,,,,,,,,,,,,,,,,,,,,,,,,,,,,,,,,,,,,,,
,318020814820,ABC,01/10/1996,001,2023-04-03_09h53.15.060,OS3_Mult_verification,2022.2.4,Win32,60.06727535,,,,,,,,,,,,,,,,,,22,2.0542,1,"[""2"",""2"",""return""]","[1.4080999999046355,1.5992999999523363,1.7655999999046514]",0,0,0,2,1,2 × 11 =,22,,,,,,,,,,,,,,,,,,,,,,,,,,,,,,,,,,,,,,,,,,,,,,,,,,,,,,,,,,,,,,,,,,,,,,,,,,,,,,,,,,,,,,,,,,,,,,,,,,,,,,,,,,,,,,,,,,,,,,,,,,,,,,,,,,,,,,,,,,,,,,,,,
,318020814820,ABC,01/10/1996,001,2023-04-03_09h53.15.060,OS3_Mult_verification,2022.2.4,Win32,60.06727535,,,,,,,,,,,,,,,,,,20,1.5417,1,"[""2"",""0"",""return""]","[0.9400999999046462,1.1162999999523322,1.2428999998569452]",0,1,1,1,1,2 × 10 =,20,,,,,,,,,,,,,,,,,,,,,,,,,,,,,,,,,,,,,,,,,,,,,,,,,,,,,,,,,,,,,,,,,,,,,,,,,,,,,,,,,,,,,,,,,,,,,,,,,,,,,,,,,,,,,,,,,,,,,,,,,,,,,,,,,,,,,,,,,,,,,,,,,
,318020814820,ABC,01/10/1996,001,2023-04-03_09h53.15.060,OS3_Mult_verification,2022.2.4,Win32,60.06727535,,,,,,,,,,,,,,,,,,7,1.9813,1,"[""7"",""return""]","[1.5542999999523204,1.6720999999046455]",0,2,2,0,1,1 × 7 =,7,,,,,,,,,,,,,,,,,,,,,,,,,,,,,,,,,,,,,,,,,,,,,,,,,,,,,,,,,,,,,,,,,,,,,,,,,,,,,,,,,,,,,,,,,,,,,,,,,,,,,,,,,,,,,,,,,,,,,,,,,,,,,,,,,,,,,,,,,,,,,,,,,
,318020814820,ABC,01/10/1996,001,2023-04-03_09h53.15.060,OS3_Mult_verification,2022.2.4,Win32,60.06727535,,,,,,,,,,,,,,,,,,,,,,,,,,,,,,,,,,,,,,,,,,,,,,,,,,,,,,,,,,,,,,,,,,,,,,,,,,,,,,,,,,,,,,,,,,,,,,,,,,,,,,,,,,,,,,,,,,,,,,,,,,,,,,,,,,,,,,,,,,,,,,,,,,,,,,,,,,,,,,,,,,,,,,,,,,,,,,
,318020814820,ABC,01/10/1996,001,2023-04-03_09h53.15.060,OS3_Mult_verification,2022.2.4,Win32,60.06727535,,,,,,,,,,,,,,,,,,,,,,,,,,,,,,,,,,,,,,,,,,,,,,,,,,,,,,,,,,,,,,,,,,,,,,,,,,,,,,,,,,,,,,,,,,,,,,,,,,,,,,,,,,,,,,,,,,,,,,,,,,,,,,,,,,,,,,,,,,,,,,,,,,,,,,,,,,,,,,,,,,,,,,,,,,,,,,
,318020814820,ABC,01/10/1996,001,2023-04-03_09h53.15.060,OS3_Mult_verification,2022.2.4,Win32,60.06727535,,,,,,,,,,,,,,,,,,6,1.6699,1,"[""6"",""return""]","[1.3165999999046392,1.3731999998092874]",,,,,,2 × 3 =,6,0,0,0,0,1,,,,,,,,,,,,,,,,,,,,,,,,,,,,,,,,,,,,,,,,,,,,,,,,,,,,,,,,,,,,,,,,,,,,,,,,,,,,,,,,,,,,,,,,,,,,,,,,,,,,,,,,,,,,,,,,,,,,,,,,,,,,,,,,,,,,,,,,,,,,
,318020814820,ABC,01/10/1996,001,2023-04-03_09h53.15.060,OS3_Mult_verification,2022.2.4,Win32,60.06727535,,,,,,,,,,,,,,,,,,40,2.4141,1,"[""4"",""0"",""return""]","[1.7585999999046464,1.906400000095374,2.103799999952315]",,,,,,5 × 8 =,40,0,1,1,1,1,,,,,,,,,,,,,,,,,,,,,,,,,,,,,,,,,,,,,,,,,,,,,,,,,,,,,,,,,,,,,,,,,,,,,,,,,,,,,,,,,,,,,,,,,,,,,,,,,,,,,,,,,,,,,,,,,,,,,,,,,,,,,,,,,,,,,,,,,,,,
,318020814820,ABC,01/10/1996,001,2023-04-03_09h53.15.060,OS3_Mult_verification,2022.2.4,Win32,60.06727535,,,,,,,,,,,,,,,,,,12,1.2983,1,"[""1"",""2"",""return""]","[0.8206999998092499,0.8825999999046132,0.9842999999522988]",,,,,,3 × 4 =,12,0,2,2,2,1,,,,,,,,,,,,,,,,,,,,,,,,,,,,,,,,,,,,,,,,,,,,,,,,,,,,,,,,,,,,,,,,,,,,,,,,,,,,,,,,,,,,,,,,,,,,,,,,,,,,,,,,,,,,,,,,,,,,,,,,,,,,,,,,,,,,,,,,,,,,
,318020814820,ABC,01/10/1996,001,2023-04-03_09h53.15.060,OS3_Mult_verification,2022.2.4,Win32,60.06727535,,,,,,,,,,,,,,,,,,15,1.4673,1,"[""1"",""5"",""return""]","[0.974099999904638,1.032399999856949,1.1657000000476785]",,,,,,5 × 3 =,15,0,3,3,3,1,,,,,,,,,,,,,,,,,,,,,,,,,,,,,,,,,,,,,,,,,,,,,,,,,,,,,,,,,,,,,,,,,,,,,,,,,,,,,,,,,,,,,,,,,,,,,,,,,,,,,,,,,,,,,,,,,,,,,,,,,,,,,,,,,,,,,,,,,,,,
,318020814820,ABC,01/10/1996,001,2023-04-03_09h53.15.060,OS3_Mult_verification,2022.2.4,Win32,60.06727535,,,,,,,,,,,,,,,,,,8,1.4629,1,"[""8"",""return""]","[1.0264999999999986,1.1492000000476992]",,,,,,2 × 4 =,8,0,4,4,4,1,,,,,,,,,,,,,,,,,,,,,,,,,,,,,,,,,,,,,,,,,,,,,,,,,,,,,,,,,,,,,,,,,,,,,,,,,,,,,,,,,,,,,,,,,,,,,,,,,,,,,,,,,,,,,,,,,,,,,,,,,,,,,,,,,,,,,,,,,,,,
,318020814820,ABC,01/10/1996,001,2023-04-03_09h53.15.060,OS3_Mult_verification,2022.2.4,Win32,60.06727535,,,,,,,,,,,,,,,,,,4,1.2652,1,"[""4"",""return""]","[0.8492999999523363,0.9503999998569554]",,,,,,2 × 2 =,4,0,5,5,5,1,,,,,,,,,,,,,,,,,,,,,,,,,,,,,,,,,,,,,,,,,,,,,,,,,,,,,,,,,,,,,,,,,,,,,,,,,,,,,,,,,,,,,,,,,,,,,,,,,,,,,,,,,,,,,,,,,,,,,,,,,,,,,,,,,,,,,,,,,,,,
,318020814820,ABC,01/10/1996,001,2023-04-03_09h53.15.060,OS3_Mult_verification,2022.2.4,Win32,60.06727535,,,,,,,,,,,,,,,,,,20,1.5815,1,"[""2"",""0"",""return""]","[1.0158999998569698,1.1298999998569457,1.2790999999046448]",,,,,,4 × 5 =,20,0,6,6,6,1,,,,,,,,,,,,,,,,,,,,,,,,,,,,,,,,,,,,,,,,,,,,,,,,,,,,,,,,,,,,,,,,,,,,,,,,,,,,,,,,,,,,,,,,,,,,,,,,,,,,,,,,,,,,,,,,,,,,,,,,,,,,,,,,,,,,,,,,,,,,
,318020814820,ABC,01/10/1996,001,2023-04-03_09h53.15.060,OS3_Mult_verification,2022.2.4,Win32,60.06727535,,,,,,,,,,,,,,,,,,9,1.2988,1,"[""9"",""return""]","[0.899099999904621,0.9967000000476958]",,,,,,3 × 3 =,9,0,7,7,7,1,,,,,,,,,,,,,,,,,,,,,,,,,,,,,,,,,,,,,,,,,,,,,,,,,,,,,,,,,,,,,,,,,,,,,,,,,,,,,,,,,,,,,,,,,,,,,,,,,,,,,,,,,,,,,,,,,,,,,,,,,,,,,,,,,,,,,,,,,,,,
,318020814820,ABC,01/10/1996,001,2023-04-03_09h53.15.060,OS3_Mult_verification,2022.2.4,Win32,60.06727535,,,,,,,,,,,,,,,,,,10,1.4503,1,"[""1"",""0"",""return""]","[0.8327999999523286,0.8837999999523163,1.1462000000476849]",,,,,,5 × 2 =,10,0,8,8,8,1,,,,,,,,,,,,,,,,,,,,,,,,,,,,,,,,,,,,,,,,,,,,,,,,,,,,,,,,,,,,,,,,,,,,,,,,,,,,,,,,,,,,,,,,,,,,,,,,,,,,,,,,,,,,,,,,,,,,,,,,,,,,,,,,,,,,,,,,,,,,
,318020814820,ABC,01/10/1996,001,2023-04-03_09h53.15.060,OS3_Mult_verification,2022.2.4,Win32,60.06727535,,,,,,,,,,,,,,,,,,16,1.5298,1,"[""1"",""6"",""return""]","[0.8874000000953686,0.9964000000953774,1.2152999999523217]",,,,,,4 × 4 =,16,0,9,9,9,1,,,,,,,,,,,,,,,,,,,,,,,,,,,,,,,,,,,,,,,,,,,,,,,,,,,,,,,,,,,,,,,,,,,,,,,,,,,,,,,,,,,,,,,,,,,,,,,,,,,,,,,,,,,,,,,,,,,,,,,,,,,,,,,,,,,,,,,,,,,,
,318020814820,ABC,01/10/1996,001,2023-04-03_09h53.15.060,OS3_Mult_verification,2022.2.4,Win32,60.06727535,,,,,,,,,,,,,,,,,,24,2.5308,1,"[""2"",""5"",""backspace"",""4"",""return""]","[1.2996999998092633,1.384999999999991,1.8880000000000052,2.0071999998092735,2.2260999999046476]",,,,,,8 × 3 =,24,0,10,10,10,1,,,,,,,,,,,,,,,,,,,,,,,,,,,,,,,,,,,,,,,,,,,,,,,,,,,,,,,,,,,,,,,,,,,,,,,,,,,,,,,,,,,,,,,,,,,,,,,,,,,,,,,,,,,,,,,,,,,,,,,,,,,,,,,,,,,,,,,,,,,,
,318020814820,ABC,01/10/1996,001,2023-04-03_09h53.15.060,OS3_Mult_verification,2022.2.4,Win32,60.06727535,,,,,,,,,,,,,,,,,,30,1.5416,1,"[""3"",""0"",""return""]","[0.9855000000000018,1.1172999999523086,1.241199999809254]",,,,,,6 × 5 =,30,0,11,11,11,1,,,,,,,,,,,,,,,,,,,,,,,,,,,,,,,,,,,,,,,,,,,,,,,,,,,,,,,,,,,,,,,,,,,,,,,,,,,,,,,,,,,,,,,,,,,,,,,,,,,,,,,,,,,,,,,,,,,,,,,,,,,,,,,,,,,,,,,,,,,,
,318020814820,ABC,01/10/1996,001,2023-04-03_09h53.15.060,OS3_Mult_verification,2022.2.4,Win32,60.06727535,,,,,,,,,,,,,,,,,,14,1.7152,1,"[""1"",""4"",""return""]","[1.0895000000000152,1.2335000000000207,1.4171000001430514]",,,,,,7 × 2 =,14,0,12,12,12,1,,,,,,,,,,,,,,,,,,,,,,,,,,,,,,,,,,,,,,,,,,,,,,,,,,,,,,,,,,,,,,,,,,,,,,,,,,,,,,,,,,,,,,,,,,,,,,,,,,,,,,,,,,,,,,,,,,,,,,,,,,,,,,,,,,,,,,,,,,,,
,318020814820,ABC,01/10/1996,001,2023-04-03_09h53.15.060,OS3_Mult_verification,2022.2.4,Win32,60.06727535,,,,,,,,,,,,,,,,,,27,1.8647,1,"[""2"",""7"",""return""]","[1.1830999999046412,1.3277000000476846,1.5542999999523204]",,,,,,3 × 9 =,27,0,13,13,13,1,,,,,,,,,,,,,,,,,,,,,,,,,,,,,,,,,,,,,,,,,,,,,,,,,,,,,,,,,,,,,,,,,,,,,,,,,,,,,,,,,,,,,,,,,,,,,,,,,,,,,,,,,,,,,,,,,,,,,,,,,,,,,,,,,,,,,,,,,,,,
,318020814820,ABC,01/10/1996,001,2023-04-03_09h53.15.060,OS3_Mult_verification,2022.2.4,Win32,60.06727535,,,,,,,,,,,,,,,,,,16,1.6314,1,"[""1"",""6"",""return""]","[0.8826999998092617,1.0755000000000052,1.3298999998569627]",,,,,,2 × 8 =,16,0,14,14,14,1,,,,,,,,,,,,,,,,,,,,,,,,,,,,,,,,,,,,,,,,,,,,,,,,,,,,,,,,,,,,,,,,,,,,,,,,,,,,,,,,,,,,,,,,,,,,,,,,,,,,,,,,,,,,,,,,,,,,,,,,,,,,,,,,,,,,,,,,,,,,
,318020814820,ABC,01/10/1996,001,2023-04-03_09h53.15.060,OS3_Mult_verification,2022.2.4,Win32,60.06727535,,,,,,,,,,,,,,,,,,24,1.5155,1,"[""2"",""4"",""return""]","[0.8224000000953708,1.0406000001430584,1.2004000000953567]",,,,,,4 × 6 =,24,0,15,15,15,1,,,,,,,,,,,,,,,,,,,,,,,,,,,,,,,,,,,,,,,,,,,,,,,,,,,,,,,,,,,,,,,,,,,,,,,,,,,,,,,,,,,,,,,,,,,,,,,,,,,,,,,,,,,,,,,,,,,,,,,,,,,,,,,,,,,,,,,,,,,,
,318020814820,ABC,01/10/1996,001,2023-04-03_09h53.15.060,OS3_Mult_verification,2022.2.4,Win32,60.06727535,,,,,,,,,,,,,,,,,,21,1.3336,1,"[""2"",""1"",""return""]","[0.7996999998092633,0.8487999999523197,1.032299999952329]",,,,,,7 × 3 =,21,0,16,16,16,1,,,,,,,,,,,,,,,,,,,,,,,,,,,,,,,,,,,,,,,,,,,,,,,,,,,,,,,,,,,,,,,,,,,,,,,,,,,,,,,,,,,,,,,,,,,,,,,,,,,,,,,,,,,,,,,,,,,,,,,,,,,,,,,,,,,,,,,,,,,,
,318020814820,ABC,01/10/1996,001,2023-04-03_09h53.15.060,OS3_Mult_verification,2022.2.4,Win32,60.06727535,,,,,,,,,,,,,,,,,,27,1.7461,1,"[""2"",""7"",""return""]","[0.8196000001430548,1.2269000000953554,1.437800000190748]",,,,,,9 × 3 =,27,0,17,17,17,1,,,,,,,,,,,,,,,,,,,,,,,,,,,,,,,,,,,,,,,,,,,,,,,,,,,,,,,,,,,,,,,,,,,,,,,,,,,,,,,,,,,,,,,,,,,,,,,,,,,,,,,,,,,,,,,,,,,,,,,,,,,,,,,,,,,,,,,,,,,,
,318020814820,ABC,01/10/1996,001,2023-04-03_09h53.15.060,OS3_Mult_verification,2022.2.4,Win32,60.06727535,,,,,,,,,,,,,,,,,,28,1.6006,1,"[""2"",""8"",""return""]","[0.8822000000477033,1.0972999999523267,1.2962999999523106]",,,,,,4 × 7 =,28,0,18,18,18,1,,,,,,,,,,,,,,,,,,,,,,,,,,,,,,,,,,,,,,,,,,,,,,,,,,,,,,,,,,,,,,,,,,,,,,,,,,,,,,,,,,,,,,,,,,,,,,,,,,,,,,,,,,,,,,,,,,,,,,,,,,,,,,,,,,,,,,,,,,,,
,318020814820,ABC,01/10/1996,001,2023-04-03_09h53.15.060,OS3_Mult_verification,2022.2.4,Win32,60.06727535,,,,,,,,,,,,,,,,,,18,1.596,1,"[""1"",""8"",""return""]","[0.9327000000476744,1.0924000000953527,1.2959999999999923]",,,,,,2 × 9 =,18,0,19,19,19,1,,,,,,,,,,,,,,,,,,,,,,,,,,,,,,,,,,,,,,,,,,,,,,,,,,,,,,,,,,,,,,,,,,,,,,,,,,,,,,,,,,,,,,,,,,,,,,,,,,,,,,,,,,,,,,,,,,,,,,,,,,,,,,,,,,,,,,,,,,,,
,318020814820,ABC,01/10/1996,001,2023-04-03_09h53.15.060,OS3_Mult_verification,2022.2.4,Win32,60.06727535,,,,,,,,,,,,,,,,,,72,2.5004,1,"[""7"",""2"",""return""]","[1.8457000000476853,2.052299999952311,2.1935000000000002]",,,,,,9 × 8 =,72,0,20,20,20,1,,,,,,,,,,,,,,,,,,,,,,,,,,,,,,,,,,,,,,,,,,,,,,,,,,,,,,,,,,,,,,,,,,,,,,,,,,,,,,,,,,,,,,,,,,,,,,,,,,,,,,,,,,,,,,,,,,,,,,,,,,,,,,,,,,,,,,,,,,,,
,318020814820,ABC,01/10/1996,001,2023-04-03_09h53.15.060,OS3_Mult_verification,2022.2.4,Win32,60.06727535,,,,,,,,,,,,,,,,,,42,1.8623,1,"[""4"",""2"",""return""]","[1.2154999999999916,1.30460000014304,1.557300000190736]",,,,,,7 × 6 =,42,0,21,21,21,1,,,,,,,,,,,,,,,,,,,,,,,,,,,,,,,,,,,,,,,,,,,,,,,,,,,,,,,,,,,,,,,,,,,,,,,,,,,,,,,,,,,,,,,,,,,,,,,,,,,,,,,,,,,,,,,,,,,,,,,,,,,,,,,,,,,,,,,,,,,,
,318020814820,ABC,01/10/1996,001,2023-04-03_09h53.15.060,OS3_Mult_verification,2022.2.4,Win32,60.06727535,,,,,,,,,,,,,,,,,,54,1.9149,1,"[""5"",""4"",""return""]","[1.2383999998569664,1.3165999999046392,1.5997999999523245]",,,,,,6 × 9 =,54,0,22,22,22,1,,,,,,,,,,,,,,,,,,,,,,,,,,,,,,,,,,,,,,,,,,,,,,,,,,,,,,,,,,,,,,,,,,,,,,,,,,,,,,,,,,,,,,,,,,,,,,,,,,,,,,,,,,,,,,,,,,,,,,,,,,,,,,,,,,,,,,,,,,,,
,318020814820,ABC,01/10/1996,001,2023-04-03_09h53.15.060,OS3_Mult_verification,2022.2.4,Win32,60.06727535,,,,,,,,,,,,,,,,,,45,1.648,1,"[""4"",""5"",""return""]","[1.1204999999999927,1.1897000000476794,1.3327999999523001]",,,,,,9 × 5 =,45,0,23,23,23,1,,,,,,,,,,,,,,,,,,,,,,,,,,,,,,,,,,,,,,,,,,,,,,,,,,,,,,,,,,,,,,,,,,,,,,,,,,,,,,,,,,,,,,,,,,,,,,,,,,,,,,,,,,,,,,,,,,,,,,,,,,,,,,,,,,,,,,,,,,,,
,318020814820,ABC,01/10/1996,001,2023-04-03_09h53.15.060,OS3_Mult_verification,2022.2.4,Win32,60.06727535,,,,,,,,,,,,,,,,,,56,2.2659,1,"[""5"",""6"",""return""]","[1.6372000000476703,1.8019000000953724,1.9635000000000105]",,,,,,8 × 7 =,56,0,24,24,24,1,,,,,,,,,,,,,,,,,,,,,,,,,,,,,,,,,,,,,,,,,,,,,,,,,,,,,,,,,,,,,,,,,,,,,,,,,,,,,,,,,,,,,,,,,,,,,,,,,,,,,,,,,,,,,,,,,,,,,,,,,,,,,,,,,,,,,,,,,,,,
,318020814820,ABC,01/10/1996,001,2023-04-03_09h53.15.060,OS3_Mult_verification,2022.2.4,Win32,60.06727535,,,,,,,,,,,,,,,,,,36,1.8137,1,"[""3"",""6"",""return""]","[1.1280000000000143,1.3992000000476992,1.5120000000000005]",,,,,,6 × 6 =,36,0,25,25,25,1,,,,,,,,,,,,,,,,,,,,,,,,,,,,,,,,,,,,,,,,,,,,,,,,,,,,,,,,,,,,,,,,,,,,,,,,,,,,,,,,,,,,,,,,,,,,,,,,,,,,,,,,,,,,,,,,,,,,,,,,,,,,,,,,,,,,,,,,,,,,
,318020814820,ABC,01/10/1996,001,2023-04-03_09h53.15.060,OS3_Mult_verification,2022.2.4,Win32,60.06727535,,,,,,,,,,,,,,,,,,35,1.5833,1,"[""3"",""5"",""return""]","[0.9836999998092608,1.1223999998569525,1.27829999995231]",,,,,,5 × 7 =,35,0,26,26,26,1,,,,,,,,,,,,,,,,,,,,,,,,,,,,,,,,,,,,,,,,,,,,,,,,,,,,,,,,,,,,,,,,,,,,,,,,,,,,,,,,,,,,,,,,,,,,,,,,,,,,,,,,,,,,,,,,,,,,,,,,,,,,,,,,,,,,,,,,,,,,
,318020814820,ABC,01/10/1996,001,2023-04-03_09h53.15.060,OS3_Mult_verification,2022.2.4,Win32,60.06727535,,,,,,,,,,,,,,,,,,36,2.4292,1,"[""3"",""6"",""return""]","[0.9326999998092731,1.9231999998092704,2.114599999904641]",,,,,,4 × 9 =,36,0,27,27,27,1,,,,,,,,,,,,,,,,,,,,,,,,,,,,,,,,,,,,,,,,,,,,,,,,,,,,,,,,,,,,,,,,,,,,,,,,,,,,,,,,,,,,,,,,,,,,,,,,,,,,,,,,,,,,,,,,,,,,,,,,,,,,,,,,,,,,,,,,,,,,
,318020814820,ABC,01/10/1996,001,2023-04-03_09h53.15.060,OS3_Mult_verification,2022.2.4,Win32,60.06727535,,,,,,,,,,,,,,,,,,48,1.898,1,"[""4"",""8"",""return""]","[1.1563999998569443,1.3322000000476635,1.5852000000476778]",,,,,,8 × 6 =,48,0,28,28,28,1,,,,,,,,,,,,,,,,,,,,,,,,,,,,,,,,,,,,,,,,,,,,,,,,,,,,,,,,,,,,,,,,,,,,,,,,,,,,,,,,,,,,,,,,,,,,,,,,,,,,,,,,,,,,,,,,,,,,,,,,,,,,,,,,,,,,,,,,,,,,
,318020814820,ABC,01/10/1996,001,2023-04-03_09h53.15.060,OS3_Mult_verification,2022.2.4,Win32,60.06727535,,,,,,,,,,,,,,,,,,63,2.6475,1,"[""6"",""3"",""return""]","[1.8677000000476767,2.2101000001430577,2.3389000000953786]",,,,,,9 × 7 =,63,0,29,29,29,1,,,,,,,,,,,,,,,,,,,,,,,,,,,,,,,,,,,,,,,,,,,,,,,,,,,,,,,,,,,,,,,,,,,,,,,,,,,,,,,,,,,,,,,,,,,,,,,,,,,,,,,,,,,,,,,,,,,,,,,,,,,,,,,,,,,,,,,,,,,,
,318020814820,ABC,01/10/1996,001,2023-04-03_09h53.15.060,OS3_Mult_verification,2022.2.4,Win32,60.06727535,,,,,,,,,,,,,,,,,,12,2.8159,1,"[""2"",""backspace"",""1"",""2"",""return""]","[1.5840000000000032,2.021700000047673,2.2099000000953595,2.2647999999523165,2.5149999999999864]",,,,,,4 × 3 =,12,0,30,30,30,1,,,,,,,,,,,,,,,,,,,,,,,,,,,,,,,,,,,,,,,,,,,,,,,,,,,,,,,,,,,,,,,,,,,,,,,,,,,,,,,,,,,,,,,,,,,,,,,,,,,,,,,,,,,,,,,,,,,,,,,,,,,,,,,,,,,,,,,,,,,,
,318020814820,ABC,01/10/1996,001,2023-04-03_09h53.15.060,OS3_Mult_verification,2022.2.4,Win32,60.06727535,,,,,,,,,,,,,,,,,,25,1.4733,1,"[""2"",""5"",""return""]","[0.9207000000477024,1.0797999999523427,1.1769000000953724]",,,,,,5 × 5 =,25,0,31,31,31,1,,,,,,,,,,,,,,,,,,,,,,,,,,,,,,,,,,,,,,,,,,,,,,,,,,,,,,,,,,,,,,,,,,,,,,,,,,,,,,,,,,,,,,,,,,,,,,,,,,,,,,,,,,,,,,,,,,,,,,,,,,,,,,,,,,,,,,,,,,,,
,318020814820,ABC,01/10/1996,001,2023-04-03_09h53.15.060,OS3_Mult_verification,2022.2.4,Win32,60.06727535,,,,,,,,,,,,,,,,,,6,1.9978,1,"[""5"",""backspace"",""6"",""return""]","[1.0160999999046396,1.4159999999999968,1.5781999998092715,1.6947999999523233]",,,,,,3 × 2 =,6,0,32,32,32,1,,,,,,,,,,,,,,,,,,,,,,,,,,,,,,,,,,,,,,,,,,,,,,,,,,,,,,,,,,,,,,,,,,,,,,,,,,,,,,,,,,,,,,,,,,,,,,,,,,,,,,,,,,,,,,,,,,,,,,,,,,,,,,,,,,,,,,,,,,,,
,318020814820,ABC,01/10/1996,001,2023-04-03_09h53.15.060,OS3_Mult_verification,2022.2.4,Win32,60.06727535,,,,,,,,,,,,,,,,,,20,1.4651,1,"[""2"",""0"",""return""]","[0.9048999998569514,0.9773999998569423,1.1497999999523074]",,,,,,5 × 4 =,20,0,33,33,33,1,,,,,,,,,,,,,,,,,,,,,,,,,,,,,,,,,,,,,,,,,,,,,,,,,,,,,,,,,,,,,,,,,,,,,,,,,,,,,,,,,,,,,,,,,,,,,,,,,,,,,,,,,,,,,,,,,,,,,,,,,,,,,,,,,,,,,,,,,,,,
,318020814820,ABC,01/10/1996,001,2023-04-03_09h53.15.060,OS3_Mult_verification,2022.2.4,Win32,60.06727535,,,,,,,,,,,,,,,,,,8,1.6982,1,"[""8"",""return""]","[1.1825999999045962,1.3828999998569316]",,,,,,4 × 2 =,8,0,34,34,34,1,,,,,,,,,,,,,,,,,,,,,,,,,,,,,,,,,,,,,,,,,,,,,,,,,,,,,,,,,,,,,,,,,,,,,,,,,,,,,,,,,,,,,,,,,,,,,,,,,,,,,,,,,,,,,,,,,,,,,,,,,,,,,,,,,,,,,,,,,,,,
,318020814820,ABC,01/10/1996,001,2023-04-03_09h53.15.060,OS3_Mult_verification,2022.2.4,Win32,60.06727535,,,,,,,,,,,,,,,,,,12,1.367,1,"[""1"",""2"",""return""]","[0.8592999999522704,0.9162000000476382,1.0620999999046035]",,,,,,2 × 6 =,12,0,35,35,35,1,,,,,,,,,,,,,,,,,,,,,,,,,,,,,,,,,,,,,,,,,,,,,,,,,,,,,,,,,,,,,,,,,,,,,,,,,,,,,,,,,,,,,,,,,,,,,,,,,,,,,,,,,,,,,,,,,,,,,,,,,,,,,,,,,,,,,,,,,,,,
,318020814820,ABC,01/10/1996,001,2023-04-03_09h53.15.060,OS3_Mult_verification,2022.2.4,Win32,60.06727535,,,,,,,,,,,,,,,,,,15,1.4633,1,"[""1"",""5"",""return""]","[0.8166999998092592,1.050599999904648,1.1545000000000414]",,,,,,3 × 5 =,15,0,36,36,36,1,,,,,,,,,,,,,,,,,,,,,,,,,,,,,,,,,,,,,,,,,,,,,,,,,,,,,,,,,,,,,,,,,,,,,,,,,,,,,,,,,,,,,,,,,,,,,,,,,,,,,,,,,,,,,,,,,,,,,,,,,,,,,,,,,,,,,,,,,,,,
,318020814820,ABC,01/10/1996,001,2023-04-03_09h53.15.060,OS3_Mult_verification,2022.2.4,Win32,60.06727535,,,,,,,,,,,,,,,,,,18,1.7315,1,"[""1"",""8"",""return""]","[1.05470000004766,1.2182999999523076,1.4157999999522985]",,,,,,6 × 3 =,18,0,37,37,37,1,,,,,,,,,,,,,,,,,,,,,,,,,,,,,,,,,,,,,,,,,,,,,,,,,,,,,,,,,,,,,,,,,,,,,,,,,,,,,,,,,,,,,,,,,,,,,,,,,,,,,,,,,,,,,,,,,,,,,,,,,,,,,,,,,,,,,,,,,,,,
,318020814820,ABC,01/10/1996,001,2023-04-03_09h53.15.060,OS3_Mult_verification,2022.2.4,Win32,60.06727535,,,,,,,,,,,,,,,,,,10,1.3319,1,"[""1"",""0"",""return""]","[0.7562000000476701,0.8875999999046371,1.0389999999999873]",,,,,,2 × 5 =,10,0,38,38,38,1,,,,,,,,,,,,,,,,,,,,,,,,,,,,,,,,,,,,,,,,,,,,,,,,,,,,,,,,,,,,,,,,,,,,,,,,,,,,,,,,,,,,,,,,,,,,,,,,,,,,,,,,,,,,,,,,,,,,,,,,,,,,,,,,,,,,,,,,,,,,
,318020814820,ABC,01/10/1996,001,2023-04-03_09h53.15.060,OS3_Mult_verification,2022.2.4,Win32,60.06727535,,,,,,,,,,,,,,,,,,32,1.482,1,"[""3"",""2"",""return""]","[0.8330000000000268,1.0272999999523336,1.1739000000953865]",,,,,,4 × 8 =,32,0,39,39,39,1,,,,,,,,,,,,,,,,,,,,,,,,,,,,,,,,,,,,,,,,,,,,,,,,,,,,,,,,,,,,,,,,,,,,,,,,,,,,,,,,,,,,,,,,,,,,,,,,,,,,,,,,,,,,,,,,,,,,,,,,,,,,,,,,,,,,,,,,,,,,
,318020814820,ABC,01/10/1996,001,2023-04-03_09h53.15.060,OS3_Mult_verification,2022.2.4,Win32,60.06727535,,,,,,,,,,,,,,,,,,24,1.5476,1,"[""2"",""4"",""return""]","[0.9209000000954006,1.1200000000000045,1.2421000001430684]",,,,,,3 × 8 =,24,0,40,40,40,1,,,,,,,,,,,,,,,,,,,,,,,,,,,,,,,,,,,,,,,,,,,,,,,,,,,,,,,,,,,,,,,,,,,,,,,,,,,,,,,,,,,,,,,,,,,,,,,,,,,,,,,,,,,,,,,,,,,,,,,,,,,,,,,,,,,,,,,,,,,,
,318020814820,ABC,01/10/1996,001,2023-04-03_09h53.15.060,OS3_Mult_verification,2022.2.4,Win32,60.06727535,,,,,,,,,,,,,,,,,,30,1.4157,1,"[""3"",""0"",""return""]","[0.7871000001430559,0.9501000001430668,1.1026000001430418]",,,,,,5 × 6 =,30,0,41,41,41,1,,,,,,,,,,,,,,,,,,,,,,,,,,,,,,,,,,,,,,,,,,,,,,,,,,,,,,,,,,,,,,,,,,,,,,,,,,,,,,,,,,,,,,,,,,,,,,,,,,,,,,,,,,,,,,,,,,,,,,,,,,,,,,,,,,,,,,,,,,,,
,318020814820,ABC,01/10/1996,001,2023-04-03_09h53.15.060,OS3_Mult_verification,2022.2.4,Win32,60.06727535,,,,,,,,,,,,,,,,,,14,1.448,1,"[""1"",""4"",""return""]","[0.8510999999045907,1.0072000000476464,1.1345000000000027]",,,,,,2 × 7 =,14,0,42,42,42,1,,,,,,,,,,,,,,,,,,,,,,,,,,,,,,,,,,,,,,,,,,,,,,,,,,,,,,,,,,,,,,,,,,,,,,,,,,,,,,,,,,,,,,,,,,,,,,,,,,,,,,,,,,,,,,,,,,,,,,,,,,,,,,,,,,,,,,,,,,,,
,318020814820,ABC,01/10/1996,001,2023-04-03_09h53.15.060,OS3_Mult_verification,2022.2.4,Win32,60.06727535,,,,,,,,,,,,,,,,,,24,1.3653,1,"[""2"",""4"",""return""]","[0.8077999999523513,0.9765000000000441,1.050599999904648]",,,,,,6 × 4 =,24,0,43,43,43,1,,,,,,,,,,,,,,,,,,,,,,,,,,,,,,,,,,,,,,,,,,,,,,,,,,,,,,,,,,,,,,,,,,,,,,,,,,,,,,,,,,,,,,,,,,,,,,,,,,,,,,,,,,,,,,,,,,,,,,,,,,,,,,,,,,,,,,,,,,,,
,318020814820,ABC,01/10/1996,001,2023-04-03_09h53.15.060,OS3_Mult_verification,2022.2.4,Win32,60.06727535,,,,,,,,,,,,,,,,,,21,1.3651,1,"[""2"",""1"",""return""]","[0.884200000047656,0.9742000000476878,1.052799999952299]",,,,,,3 × 7 =,21,0,44,44,44,1,,,,,,,,,,,,,,,,,,,,,,,,,,,,,,,,,,,,,,,,,,,,,,,,,,,,,,,,,,,,,,,,,,,,,,,,,,,,,,,,,,,,,,,,,,,,,,,,,,,,,,,,,,,,,,,,,,,,,,,,,,,,,,,,,,,,,,,,,,,,
,318020814820,ABC,01/10/1996,001,2023-04-03_09h53.15.060,OS3_Mult_verification,2022.2.4,Win32,60.06727535,,,,,,,,,,,,,,,,,,81,1.4482,1,"[""8"",""1"",""return""]","[0.9182000000477046,0.9958000001907408,1.1348000001907508]",,,,,,9 × 9 =,81,0,45,45,45,1,,,,,,,,,,,,,,,,,,,,,,,,,,,,,,,,,,,,,,,,,,,,,,,,,,,,,,,,,,,,,,,,,,,,,,,,,,,,,,,,,,,,,,,,,,,,,,,,,,,,,,,,,,,,,,,,,,,,,,,,,,,,,,,,,,,,,,,,,,,,
,318020814820,ABC,01/10/1996,001,2023-04-03_09h53.15.060,OS3_Mult_verification,2022.2.4,Win32,60.06727535,,,,,,,,,,,,,,,,,,16,1.6317,1,"[""1"",""6"",""return""]","[0.8993999998569393,1.1027999999523104,1.3298999998569343]",,,,,,8 × 2 =,16,0,46,46,46,1,,,,,,,,,,,,,,,,,,,,,,,,,,,,,,,,,,,,,,,,,,,,,,,,,,,,,,,,,,,,,,,,,,,,,,,,,,,,,,,,,,,,,,,,,,,,,,,,,,,,,,,,,,,,,,,,,,,,,,,,,,,,,,,,,,,,,,,,,,,,
,318020814820,ABC,01/10/1996,001,2023-04-03_09h53.15.060,OS3_Mult_verification,2022.2.4,Win32,60.06727535,,,,,,,,,,,,,,,,,,48,1.7155,1,"[""4"",""8"",""return""]","[1.1011000001430489,1.2354000000953533,1.4159999999999968]",,,,,,6 × 8 =,48,0,47,47,47,1,,,,,,,,,,,,,,,,,,,,,,,,,,,,,,,,,,,,,,,,,,,,,,,,,,,,,,,,,,,,,,,,,,,,,,,,,,,,,,,,,,,,,,,,,,,,,,,,,,,,,,,,,,,,,,,,,,,,,,,,,,,,,,,,,,,,,,,,,,,,
,318020814820,ABC,01/10/1996,001,2023-04-03_09h53.15.060,OS3_Mult_verification,2022.2.4,Win32,60.06727535,,,,,,,,,,,,,,,,,,28,1.6811,1,"[""2"",""8"",""return""]","[0.8827999999523399,1.1180999999046435,1.3677999999522967]",,,,,,7 × 4 =,28,0,48,48,48,1,,,,,,,,,,,,,,,,,,,,,,,,,,,,,,,,,,,,,,,,,,,,,,,,,,,,,,,,,,,,,,,,,,,,,,,,,,,,,,,,,,,,,,,,,,,,,,,,,,,,,,,,,,,,,,,,,,,,,,,,,,,,,,,,,,,,,,,,,,,,
,318020814820,ABC,01/10/1996,001,2023-04-03_09h53.15.060,OS3_Mult_verification,2022.2.4,Win32,60.06727535,,,,,,,,,,,,,,,,,,18,1.468,1,"[""1"",""8"",""return""]","[0.7632000000476751,0.9659999999999513,1.157100000143032]",,,,,,9 × 2 =,18,0,49,49,49,1,,,,,,,,,,,,,,,,,,,,,,,,,,,,,,,,,,,,,,,,,,,,,,,,,,,,,,,,,,,,,,,,,,,,,,,,,,,,,,,,,,,,,,,,,,,,,,,,,,,,,,,,,,,,,,,,,,,,,,,,,,,,,,,,,,,,,,,,,,,,
,318020814820,ABC,01/10/1996,001,2023-04-03_09h53.15.060,OS3_Mult_verification,2022.2.4,Win32,60.06727535,,,,,,,,,,,,,,,,,,35,1.4789,1,"[""3"",""5"",""return""]","[0.950899999856972,1.033099999904607,1.1773999998569593]",,,,,,7 × 5 =,35,0,50,50,50,1,,,,,,,,,,,,,,,,,,,,,,,,,,,,,,,,,,,,,,,,,,,,,,,,,,,,,,,,,,,,,,,,,,,,,,,,,,,,,,,,,,,,,,,,,,,,,,,,,,,,,,,,,,,,,,,,,,,,,,,,,,,,,,,,,,,,,,,,,,,,
,318020814820,ABC,01/10/1996,001,2023-04-03_09h53.15.060,OS3_Mult_verification,2022.2.4,Win32,60.06727535,,,,,,,,,,,,,,,,,,36,1.948,1,"[""3"",""6"",""return""]","[1.1587999999523504,1.4414000000953706,1.6424000000953924]",,,,,,9 × 4 =,36,0,51,51,51,1,,,,,,,,,,,,,,,,,,,,,,,,,,,,,,,,,,,,,,,,,,,,,,,,,,,,,,,,,,,,,,,,,,,,,,,,,,,,,,,,,,,,,,,,,,,,,,,,,,,,,,,,,,,,,,,,,,,,,,,,,,,,,,,,,,,,,,,,,,,,
,318020814820,ABC,01/10/1996,001,2023-04-03_09h53.15.060,OS3_Mult_verification,2022.2.4,Win32,60.06727535,,,,,,,,,,,,,,,,,,,1.5648,0,,,,,,,,8 × 8 =,64,0,52,52,52,1,,,,,,,,,,,,,,,,,,,,,,,,,,,,,,,,,,,,,,,,,,,,,,,,,,,,,,,,,,,,,,,,,,,,,,,,,,,,,,,,,,,,,,,,,,,,,,,,,,,,,,,,,,,,,,,,,,,,,,,,,,,,,,,,,,,,,,,,,,,,
,318020814820,ABC,01/10/1996,001,2023-04-03_09h53.15.060,OS3_Mult_verification,2022.2.4,Win32,60.06727535,,,,,,,,,,,,,,,,space,1.1455,,,,,,,,,,,,,,,,,,right,1,0.645,0,0,0,2,1,practice,9,9,9 | 9,0,0.05,0.065,neutral,right,,,,,,,,,,,,,,,,,,,,,,,,,,,,,,,,,,,,,,,,,,,,,,,,,,,,,,,,,,,,,,,,,,,,,,,,,,,,,,,,,,,,,,,,,,,,,,,,,,,,,,,,,,,,,,,,,,,,,,,,,,,
,318020814820,ABC,01/10/1996,001,2023-04-03_09h53.15.060,OS3_Mult_verification,2022.2.4,Win32,60.06727535,,,,,,,,,,,,,,,,,,,,,,,,,,,,,,,,,,,right,1,0.7951,0,1,1,1,1,practice,4,3,4 | 3,1,0.05,0.065,incongruent,right,,,,,,,,,,,,,,,,,,,,,,,,,,,,,,,,,,,,,,,,,,,,,,,,,,,,,,,,,,,,,,,,,,,,,,,,,,,,,,,,,,,,,,,,,,,,,,,,,,,,,,,,,,,,,,,,,,,,,,,,,,,
,318020814820,ABC,01/10/1996,001,2023-04-03_09h53.15.060,OS3_Mult_verification,2022.2.4,Win32,60.06727535,,,,,,,,,,,,,,,,,,,,,,,,,,,,,,,,,,,left,1,0.5161,0,2,2,0,1,practice,9,8,9 | 8,1,0.065,0.05,congruent,left,,,,,,,,,,,,,,,,,,,,,,,,,,,,,,,,,,,,,,,,,,,,,,,,,,,,,,,,,,,,,,,,,,,,,,,,,,,,,,,,,,,,,,,,,,,,,,,,,,,,,,,,,,,,,,,,,,,,,,,,,,,
,318020814820,ABC,01/10/1996,001,2023-04-03_09h53.15.060,OS3_Mult_verification,2022.2.4,Win32,60.06727535,,,,,,,,,,,,,,,,,,,,,,,,,,,,,,,,,,,right,1,0.4532,,,,,,physical,2,4,2 | 4,2,0.05,0.065,congruent,right,0,0,0,9,1,,,,,,,,,,,,,,,,,,,,,,,,,,,,,,,,,,,,,,,,,,,,,,,,,,,,,,,,,,,,,,,,,,,,,,,,,,,,,,,,,,,,,,,,,,,,,,,,,,,,,,,,,,,,,,,,,,,,,,
,318020814820,ABC,01/10/1996,001,2023-04-03_09h53.15.060,OS3_Mult_verification,2022.2.4,Win32,60.06727535,,,,,,,,,,,,,,,,,,,,,,,,,,,,,,,,,,,right,1,0.7423,,,,,,physical,9,4,9 | 4,5,0.05,0.065,incongruent,right,0,1,1,47,1,,,,,,,,,,,,,,,,,,,,,,,,,,,,,,,,,,,,,,,,,,,,,,,,,,,,,,,,,,,,,,,,,,,,,,,,,,,,,,,,,,,,,,,,,,,,,,,,,,,,,,,,,,,,,,,,,,,,,,
,318020814820,ABC,01/10/1996,001,2023-04-03_09h53.15.060,OS3_Mult_verification,2022.2.4,Win32,60.06727535,,,,,,,,,,,,,,,,,,,,,,,,,,,,,,,,,,,left,1,0.5063,,,,,,physical,8,6,8 | 6,2,0.065,0.05,congruent,left,0,2,2,14,1,,,,,,,,,,,,,,,,,,,,,,,,,,,,,,,,,,,,,,,,,,,,,,,,,,,,,,,,,,,,,,,,,,,,,,,,,,,,,,,,,,,,,,,,,,,,,,,,,,,,,,,,,,,,,,,,,,,,,,
,318020814820,ABC,01/10/1996,001,2023-04-03_09h53.15.060,OS3_Mult_verification,2022.2.4,Win32,60.06727535,,,,,,,,,,,,,,,,,,,,,,,,,,,,,,,,,,,right,1,0.5428,,,,,,physical,2,1,2 | 1,1,0.05,0.065,incongruent,right,0,3,3,28,1,,,,,,,,,,,,,,,,,,,,,,,,,,,,,,,,,,,,,,,,,,,,,,,,,,,,,,,,,,,,,,,,,,,,,,,,,,,,,,,,,,,,,,,,,,,,,,,,,,,,,,,,,,,,,,,,,,,,,,
,318020814820,ABC,01/10/1996,001,2023-04-03_09h53.15.060,OS3_Mult_verification,2022.2.4,Win32,60.06727535,,,,,,,,,,,,,,,,,,,,,,,,,,,,,,,,,,,left,1,0.6593,,,,,,physical,2,1,2 | 1,1,0.065,0.05,congruent,left,0,4,4,4,1,,,,,,,,,,,,,,,,,,,,,,,,,,,,,,,,,,,,,,,,,,,,,,,,,,,,,,,,,,,,,,,,,,,,,,,,,,,,,,,,,,,,,,,,,,,,,,,,,,,,,,,,,,,,,,,,,,,,,,
,318020814820,ABC,01/10/1996,001,2023-04-03_09h53.15.060,OS3_Mult_verification,2022.2.4,Win32,60.06727535,,,,,,,,,,,,,,,,,,,,,,,,,,,,,,,,,,,right,1,0.5254,,,,,,physical,6,1,6 | 1,5,0.05,0.065,incongruent,right,0,5,5,44,1,,,,,,,,,,,,,,,,,,,,,,,,,,,,,,,,,,,,,,,,,,,,,,,,,,,,,,,,,,,,,,,,,,,,,,,,,,,,,,,,,,,,,,,,,,,,,,,,,,,,,,,,,,,,,,,,,,,,,,
,318020814820,ABC,01/10/1996,001,2023-04-03_09h53.15.060,OS3_Mult_verification,2022.2.4,Win32,60.06727535,,,,,,,,,,,,,,,,,,,,,,,,,,,,,,,,,,,right,1,0.5291,,,,,,physical,4,2,4 | 2,2,0.05,0.065,incongruent,right,0,6,6,37,1,,,,,,,,,,,,,,,,,,,,,,,,,,,,,,,,,,,,,,,,,,,,,,,,,,,,,,,,,,,,,,,,,,,,,,,,,,,,,,,,,,,,,,,,,,,,,,,,,,,,,,,,,,,,,,,,,,,,,,
,318020814820,ABC,01/10/1996,001,2023-04-03_09h53.15.060,OS3_Mult_verification,2022.2.4,Win32,60.06727535,,,,,,,,,,,,,,,,,,,,,,,,,,,,,,,,,,,right,1,0.5897,,,,,,physical,3,1,3 | 1,2,0.05,0.065,incongruent,right,0,7,7,36,1,,,,,,,,,,,,,,,,,,,,,,,,,,,,,,,,,,,,,,,,,,,,,,,,,,,,,,,,,,,,,,,,,,,,,,,,,,,,,,,,,,,,,,,,,,,,,,,,,,,,,,,,,,,,,,,,,,,,,,
,318020814820,ABC,01/10/1996,001,2023-04-03_09h53.15.060,OS3_Mult_verification,2022.2.4,Win32,60.06727535,,,,,,,,,,,,,,,,,,,,,,,,,,,,,,,,,,,left,1,0.5914,,,,,,physical,6,7,6 | 7,1,0.065,0.05,incongruent,left,0,8,8,26,1,,,,,,,,,,,,,,,,,,,,,,,,,,,,,,,,,,,,,,,,,,,,,,,,,,,,,,,,,,,,,,,,,,,,,,,,,,,,,,,,,,,,,,,,,,,,,,,,,,,,,,,,,,,,,,,,,,,,,,
,318020814820,ABC,01/10/1996,001,2023-04-03_09h53.15.060,OS3_Mult_verification,2022.2.4,Win32,60.06727535,,,,,,,,,,,,,,,,,,,,,,,,,,,,,,,,,,,left,1,0.5181,,,,,,physical,3,8,3 | 8,5,0.065,0.05,incongruent,left,0,9,9,42,1,,,,,,,,,,,,,,,,,,,,,,,,,,,,,,,,,,,,,,,,,,,,,,,,,,,,,,,,,,,,,,,,,,,,,,,,,,,,,,,,,,,,,,,,,,,,,,,,,,,,,,,,,,,,,,,,,,,,,,
,318020814820,ABC,01/10/1996,001,2023-04-03_09h53.15.060,OS3_Mult_verification,2022.2.4,Win32,60.06727535,,,,,,,,,,,,,,,,,,,,,,,,,,,,,,,,,,,left,1,0.6087,,,,,,physical,4,4,4 | 4,0,0.065,0.05,neutral,left,0,10,10,53,1,,,,,,,,,,,,,,,,,,,,,,,,,,,,,,,,,,,,,,,,,,,,,,,,,,,,,,,,,,,,,,,,,,,,,,,,,,,,,,,,,,,,,,,,,,,,,,,,,,,,,,,,,,,,,,,,,,,,,,
,318020814820,ABC,01/10/1996,001,2023-04-03_09h53.15.060,OS3_Mult_verification,2022.2.4,Win32,60.06727535,,,,,,,,,,,,,,,,,,,,,,,,,,,,,,,,,,,left,1,0.5843,,,,,,physical,9,8,9 | 8,1,0.065,0.05,congruent,left,0,11,11,7,1,,,,,,,,,,,,,,,,,,,,,,,,,,,,,,,,,,,,,,,,,,,,,,,,,,,,,,,,,,,,,,,,,,,,,,,,,,,,,,,,,,,,,,,,,,,,,,,,,,,,,,,,,,,,,,,,,,,,,,
,318020814820,ABC,01/10/1996,001,2023-04-03_09h53.15.060,OS3_Mult_verification,2022.2.4,Win32,60.06727535,,,,,,,,,,,,,,,,,,,,,,,,,,,,,,,,,,,right,1,0.5111,,,,,,physical,9,9,9 | 9,0,0.05,0.065,neutral,right,0,12,12,63,1,,,,,,,,,,,,,,,,,,,,,,,,,,,,,,,,,,,,,,,,,,,,,,,,,,,,,,,,,,,,,,,,,,,,,,,,,,,,,,,,,,,,,,,,,,,,,,,,,,,,,,,,,,,,,,,,,,,,,,
,318020814820,ABC,01/10/1996,001,2023-04-03_09h53.15.060,OS3_Mult_verification,2022.2.4,Win32,60.06727535,,,,,,,,,,,,,,,,,,,,,,,,,,,,,,,,,,,right,1,0.483,,,,,,physical,4,4,4 | 4,0,0.05,0.065,neutral,right,0,13,13,67,1,,,,,,,,,,,,,,,,,,,,,,,,,,,,,,,,,,,,,,,,,,,,,,,,,,,,,,,,,,,,,,,,,,,,,,,,,,,,,,,,,,,,,,,,,,,,,,,,,,,,,,,,,,,,,,,,,,,,,,
,318020814820,ABC,01/10/1996,001,2023-04-03_09h53.15.060,OS3_Mult_verification,2022.2.4,Win32,60.06727535,,,,,,,,,,,,,,,,,,,,,,,,,,,,,,,,,,,right,1,0.4728,,,,,,physical,1,1,1 | 1,0,0.05,0.065,neutral,right,0,14,14,56,1,,,,,,,,,,,,,,,,,,,,,,,,,,,,,,,,,,,,,,,,,,,,,,,,,,,,,,,,,,,,,,,,,,,,,,,,,,,,,,,,,,,,,,,,,,,,,,,,,,,,,,,,,,,,,,,,,,,,,,
,318020814820,ABC,01/10/1996,001,2023-04-03_09h53.15.060,OS3_Mult_verification,2022.2.4,Win32,60.06727535,,,,,,,,,,,,,,,,,,,,,,,,,,,,,,,,,,,left,1,0.5327,,,,,,physical,6,6,6 | 6,0,0.065,0.05,neutral,left,0,15,15,68,1,,,,,,,,,,,,,,,,,,,,,,,,,,,,,,,,,,,,,,,,,,,,,,,,,,,,,,,,,,,,,,,,,,,,,,,,,,,,,,,,,,,,,,,,,,,,,,,,,,,,,,,,,,,,,,,,,,,,,,
,318020814820,ABC,01/10/1996,001,2023-04-03_09h53.15.060,OS3_Mult_verification,2022.2.4,Win32,60.06727535,,,,,,,,,,,,,,,,,,,,,,,,,,,,,,,,,,,left,1,0.5463,,,,,,physical,1,1,1 | 1,0,0.065,0.05,neutral,left,0,16,16,64,1,,,,,,,,,,,,,,,,,,,,,,,,,,,,,,,,,,,,,,,,,,,,,,,,,,,,,,,,,,,,,,,,,,,,,,,,,,,,,,,,,,,,,,,,,,,,,,,,,,,,,,,,,,,,,,,,,,,,,,
,318020814820,ABC,01/10/1996,001,2023-04-03_09h53.15.060,OS3_Mult_verification,2022.2.4,Win32,60.06727535,,,,,,,,,,,,,,,,,,,,,,,,,,,,,,,,,,,left,1,0.4522,,,,,,physical,4,3,4 | 3,1,0.065,0.05,congruent,left,0,17,17,5,1,,,,,,,,,,,,,,,,,,,,,,,,,,,,,,,,,,,,,,,,,,,,,,,,,,,,,,,,,,,,,,,,,,,,,,,,,,,,,,,,,,,,,,,,,,,,,,,,,,,,,,,,,,,,,,,,,,,,,,
,318020814820,ABC,01/10/1996,001,2023-04-03_09h53.15.060,OS3_Mult_verification,2022.2.4,Win32,60.06727535,,,,,,,,,,,,,,,,,,,,,,,,,,,,,,,,,,,left,1,0.4752,,,,,,physical,1,2,1 | 2,1,0.065,0.05,incongruent,left,0,18,18,24,1,,,,,,,,,,,,,,,,,,,,,,,,,,,,,,,,,,,,,,,,,,,,,,,,,,,,,,,,,,,,,,,,,,,,,,,,,,,,,,,,,,,,,,,,,,,,,,,,,,,,,,,,,,,,,,,,,,,,,,
,318020814820,ABC,01/10/1996,001,2023-04-03_09h53.15.060,OS3_Mult_verification,2022.2.4,Win32,60.06727535,,,,,,,,,,,,,,,,,,,,,,,,,,,,,,,,,,,left,1,0.4831,,,,,,physical,3,3,3 | 3,0,0.065,0.05,neutral,left,0,19,19,49,1,,,,,,,,,,,,,,,,,,,,,,,,,,,,,,,,,,,,,,,,,,,,,,,,,,,,,,,,,,,,,,,,,,,,,,,,,,,,,,,,,,,,,,,,,,,,,,,,,,,,,,,,,,,,,,,,,,,,,,
,318020814820,ABC,01/10/1996,001,2023-04-03_09h53.15.060,OS3_Mult_verification,2022.2.4,Win32,60.06727535,,,,,,,,,,,,,,,,,,,,,,,,,,,,,,,,,,,right,1,0.4433,,,,,,physical,1,6,1 | 6,5,0.05,0.065,congruent,right,0,20,20,16,1,,,,,,,,,,,,,,,,,,,,,,,,,,,,,,,,,,,,,,,,,,,,,,,,,,,,,,,,,,,,,,,,,,,,,,,,,,,,,,,,,,,,,,,,,,,,,,,,,,,,,,,,,,,,,,,,,,,,,,
,318020814820,ABC,01/10/1996,001,2023-04-03_09h53.15.060,OS3_Mult_verification,2022.2.4,Win32,60.06727535,,,,,,,,,,,,,,,,,,,,,,,,,,,,,,,,,,,right,1,0.4291,,,,,,physical,4,4,4 | 4,0,0.05,0.065,neutral,right,0,21,21,61,1,,,,,,,,,,,,,,,,,,,,,,,,,,,,,,,,,,,,,,,,,,,,,,,,,,,,,,,,,,,,,,,,,,,,,,,,,,,,,,,,,,,,,,,,,,,,,,,,,,,,,,,,,,,,,,,,,,,,,,
,318020814820,ABC,01/10/1996,001,2023-04-03_09h53.15.060,OS3_Mult_verification,2022.2.4,Win32,60.06727535,,,,,,,,,,,,,,,,,,,,,,,,,,,,,,,,,,,right,1,0.4003,,,,,,physical,3,8,3 | 8,5,0.05,0.065,congruent,right,0,22,22,18,1,,,,,,,,,,,,,,,,,,,,,,,,,,,,,,,,,,,,,,,,,,,,,,,,,,,,,,,,,,,,,,,,,,,,,,,,,,,,,,,,,,,,,,,,,,,,,,,,,,,,,,,,,,,,,,,,,,,,,,
,318020814820,ABC,01/10/1996,001,2023-04-03_09h53.15.060,OS3_Mult_verification,2022.2.4,Win32,60.06727535,,,,,,,,,,,,,,,,,,,,,,,,,,,,,,,,,,,left,1,0.4136,,,,,,physical,7,2,7 | 2,5,0.065,0.05,congruent,left,0,23,23,21,1,,,,,,,,,,,,,,,,,,,,,,,,,,,,,,,,,,,,,,,,,,,,,,,,,,,,,,,,,,,,,,,,,,,,,,,,,,,,,,,,,,,,,,,,,,,,,,,,,,,,,,,,,,,,,,,,,,,,,,
,318020814820,ABC,01/10/1996,001,2023-04-03_09h53.15.060,OS3_Mult_verification,2022.2.4,Win32,60.06727535,,,,,,,,,,,,,,,,,,,,,,,,,,,,,,,,,,,right,1,0.4684,,,,,,physical,2,2,2 | 2,0,0.05,0.065,neutral,right,0,24,24,57,1,,,,,,,,,,,,,,,,,,,,,,,,,,,,,,,,,,,,,,,,,,,,,,,,,,,,,,,,,,,,,,,,,,,,,,,,,,,,,,,,,,,,,,,,,,,,,,,,,,,,,,,,,,,,,,,,,,,,,,
,318020814820,ABC,01/10/1996,001,2023-04-03_09h53.15.060,OS3_Mult_verification,2022.2.4,Win32,60.06727535,,,,,,,,,,,,,,,,,,,,,,,,,,,,,,,,,,,right,1,0.4591,,,,,,physical,7,2,7 | 2,5,0.05,0.065,incongruent,right,0,25,25,45,1,,,,,,,,,,,,,,,,,,,,,,,,,,,,,,,,,,,,,,,,,,,,,,,,,,,,,,,,,,,,,,,,,,,,,,,,,,,,,,,,,,,,,,,,,,,,,,,,,,,,,,,,,,,,,,,,,,,,,,
,318020814820,ABC,01/10/1996,001,2023-04-03_09h53.15.060,OS3_Mult_verification,2022.2.4,Win32,60.06727535,,,,,,,,,,,,,,,,,,,,,,,,,,,,,,,,,,,right,1,0.5568,,,,,,physical,6,8,6 | 8,2,0.05,0.065,congruent,right,0,26,26,10,1,,,,,,,,,,,,,,,,,,,,,,,,,,,,,,,,,,,,,,,,,,,,,,,,,,,,,,,,,,,,,,,,,,,,,,,,,,,,,,,,,,,,,,,,,,,,,,,,,,,,,,,,,,,,,,,,,,,,,,
,318020814820,ABC,01/10/1996,001,2023-04-03_09h53.15.060,OS3_Mult_verification,2022.2.4,Win32,60.06727535,,,,,,,,,,,,,,,,,,,,,,,,,,,,,,,,,,,right,1,0.462,,,,,,physical,8,9,8 | 9,1,0.05,0.065,congruent,right,0,27,27,3,1,,,,,,,,,,,,,,,,,,,,,,,,,,,,,,,,,,,,,,,,,,,,,,,,,,,,,,,,,,,,,,,,,,,,,,,,,,,,,,,,,,,,,,,,,,,,,,,,,,,,,,,,,,,,,,,,,,,,,,
,318020814820,ABC,01/10/1996,001,2023-04-03_09h53.15.060,OS3_Mult_verification,2022.2.4,Win32,60.06727535,,,,,,,,,,,,,,,,,,,,,,,,,,,,,,,,,,,left,1,0.4657,,,,,,physical,1,3,1 | 3,2,0.065,0.05,incongruent,left,0,28,28,32,1,,,,,,,,,,,,,,,,,,,,,,,,,,,,,,,,,,,,,,,,,,,,,,,,,,,,,,,,,,,,,,,,,,,,,,,,,,,,,,,,,,,,,,,,,,,,,,,,,,,,,,,,,,,,,,,,,,,,,,
,318020814820,ABC,01/10/1996,001,2023-04-03_09h53.15.060,OS3_Mult_verification,2022.2.4,Win32,60.06727535,,,,,,,,,,,,,,,,,,,,,,,,,,,,,,,,,,,left,1,0.4304,,,,,,physical,7,9,7 | 9,2,0.065,0.05,incongruent,left,0,29,29,35,1,,,,,,,,,,,,,,,,,,,,,,,,,,,,,,,,,,,,,,,,,,,,,,,,,,,,,,,,,,,,,,,,,,,,,,,,,,,,,,,,,,,,,,,,,,,,,,,,,,,,,,,,,,,,,,,,,,,,,,
,318020814820,ABC,01/10/1996,001,2023-04-03_09h53.15.060,OS3_Mult_verification,2022.2.4,Win32,60.06727535,,,,,,,,,,,,,,,,,,,,,,,,,,,,,,,,,,,left,1,0.4683,,,,,,physical,8,9,8 | 9,1,0.065,0.05,incongruent,left,0,30,30,27,1,,,,,,,,,,,,,,,,,,,,,,,,,,,,,,,,,,,,,,,,,,,,,,,,,,,,,,,,,,,,,,,,,,,,,,,,,,,,,,,,,,,,,,,,,,,,,,,,,,,,,,,,,,,,,,,,,,,,,,
,318020814820,ABC,01/10/1996,001,2023-04-03_09h53.15.060,OS3_Mult_verification,2022.2.4,Win32,60.06727535,,,,,,,,,,,,,,,,,,,,,,,,,,,,,,,,,,,right,1,0.5007,,,,,,physical,8,3,8 | 3,5,0.05,0.065,incongruent,right,0,31,31,46,1,,,,,,,,,,,,,,,,,,,,,,,,,,,,,,,,,,,,,,,,,,,,,,,,,,,,,,,,,,,,,,,,,,,,,,,,,,,,,,,,,,,,,,,,,,,,,,,,,,,,,,,,,,,,,,,,,,,,,,
,318020814820,ABC,01/10/1996,001,2023-04-03_09h53.15.060,OS3_Mult_verification,2022.2.4,Win32,60.06727535,,,,,,,,,,,,,,,,,,,,,,,,,,,,,,,,,,,right,1,0.7599,,,,,,physical,6,6,6 | 6,0,0.05,0.065,neutral,right,0,32,32,58,1,,,,,,,,,,,,,,,,,,,,,,,,,,,,,,,,,,,,,,,,,,,,,,,,,,,,,,,,,,,,,,,,,,,,,,,,,,,,,,,,,,,,,,,,,,,,,,,,,,,,,,,,,,,,,,,,,,,,,,
,318020814820,ABC,01/10/1996,001,2023-04-03_09h53.15.060,OS3_Mult_verification,2022.2.4,Win32,60.06727535,,,,,,,,,,,,,,,,,,,,,,,,,,,,,,,,,,,right,1,0.5002,,,,,,physical,9,8,9 | 8,1,0.05,0.065,incongruent,right,0,33,33,31,1,,,,,,,,,,,,,,,,,,,,,,,,,,,,,,,,,,,,,,,,,,,,,,,,,,,,,,,,,,,,,,,,,,,,,,,,,,,,,,,,,,,,,,,,,,,,,,,,,,,,,,,,,,,,,,,,,,,,,,
,318020814820,ABC,01/10/1996,001,2023-04-03_09h53.15.060,OS3_Mult_verification,2022.2.4,Win32,60.06727535,,,,,,,,,,,,,,,,,,,,,,,,,,,,,,,,,,,right,1,0.4636,,,,,,physical,9,7,9 | 7,2,0.05,0.065,incongruent,right,0,34,34,39,1,,,,,,,,,,,,,,,,,,,,,,,,,,,,,,,,,,,,,,,,,,,,,,,,,,,,,,,,,,,,,,,,,,,,,,,,,,,,,,,,,,,,,,,,,,,,,,,,,,,,,,,,,,,,,,,,,,,,,,
,318020814820,ABC,01/10/1996,001,2023-04-03_09h53.15.060,OS3_Mult_verification,2022.2.4,Win32,60.06727535,,,,,,,,,,,,,,,,,,,,,,,,,,,,,,,,,,,right,1,0.5689,,,,,,physical,8,8,8 | 8,0,0.05,0.065,neutral,right,0,35,35,62,1,,,,,,,,,,,,,,,,,,,,,,,,,,,,,,,,,,,,,,,,,,,,,,,,,,,,,,,,,,,,,,,,,,,,,,,,,,,,,,,,,,,,,,,,,,,,,,,,,,,,,,,,,,,,,,,,,,,,,,
,318020814820,ABC,01/10/1996,001,2023-04-03_09h53.15.060,OS3_Mult_verification,2022.2.4,Win32,60.06727535,,,,,,,,,,,,,,,,,,,,,,,,,,,,,,,,,,,right,1,0.6168,,,,,,physical,1,2,1 | 2,1,0.05,0.065,congruent,right,0,36,36,0,1,,,,,,,,,,,,,,,,,,,,,,,,,,,,,,,,,,,,,,,,,,,,,,,,,,,,,,,,,,,,,,,,,,,,,,,,,,,,,,,,,,,,,,,,,,,,,,,,,,,,,,,,,,,,,,,,,,,,,,
,318020814820,ABC,01/10/1996,001,2023-04-03_09h53.15.060,OS3_Mult_verification,2022.2.4,Win32,60.06727535,,,,,,,,,,,,,,,,,,,,,,,,,,,,,,,,,,,left,1,0.5594,,,,,,physical,1,1,1 | 1,0,0.065,0.05,neutral,left,0,37,37,48,1,,,,,,,,,,,,,,,,,,,,,,,,,,,,,,,,,,,,,,,,,,,,,,,,,,,,,,,,,,,,,,,,,,,,,,,,,,,,,,,,,,,,,,,,,,,,,,,,,,,,,,,,,,,,,,,,,,,,,,
,318020814820,ABC,01/10/1996,001,2023-04-03_09h53.15.060,OS3_Mult_verification,2022.2.4,Win32,60.06727535,,,,,,,,,,,,,,,,,,,,,,,,,,,,,,,,,,,right,1,0.7356,,,,,,physical,9,9,9 | 9,0,0.05,0.065,neutral,right,0,38,38,71,1,,,,,,,,,,,,,,,,,,,,,,,,,,,,,,,,,,,,,,,,,,,,,,,,,,,,,,,,,,,,,,,,,,,,,,,,,,,,,,,,,,,,,,,,,,,,,,,,,,,,,,,,,,,,,,,,,,,,,,
,318020814820,ABC,01/10/1996,001,2023-04-03_09h53.15.060,OS3_Mult_verification,2022.2.4,Win32,60.06727535,,,,,,,,,,,,,,,,,,,,,,,,,,,,,,,,,,,left,1,0.5382,,,,,,physical,4,9,4 | 9,5,0.065,0.05,incongruent,left,0,39,39,43,1,,,,,,,,,,,,,,,,,,,,,,,,,,,,,,,,,,,,,,,,,,,,,,,,,,,,,,,,,,,,,,,,,,,,,,,,,,,,,,,,,,,,,,,,,,,,,,,,,,,,,,,,,,,,,,,,,,,,,,
,318020814820,ABC,01/10/1996,001,2023-04-03_09h53.15.060,OS3_Mult_verification,2022.2.4,Win32,60.06727535,,,,,,,,,,,,,,,,,,,,,,,,,,,,,,,,,,,left,1,0.5058,,,,,,physical,9,9,9 | 9,0,0.065,0.05,neutral,left,0,40,40,55,1,,,,,,,,,,,,,,,,,,,,,,,,,,,,,,,,,,,,,,,,,,,,,,,,,,,,,,,,,,,,,,,,,,,,,,,,,,,,,,,,,,,,,,,,,,,,,,,,,,,,,,,,,,,,,,,,,,,,,,
,318020814820,ABC,01/10/1996,001,2023-04-03_09h53.15.060,OS3_Mult_verification,2022.2.4,Win32,60.06727535,,,,,,,,,,,,,,,,,,,,,,,,,,,,,,,,,,,left,1,0.4889,,,,,,physical,6,6,6 | 6,0,0.065,0.05,neutral,left,0,41,41,50,1,,,,,,,,,,,,,,,,,,,,,,,,,,,,,,,,,,,,,,,,,,,,,,,,,,,,,,,,,,,,,,,,,,,,,,,,,,,,,,,,,,,,,,,,,,,,,,,,,,,,,,,,,,,,,,,,,,,,,,
,318020814820,ABC,01/10/1996,001,2023-04-03_09h53.15.060,OS3_Mult_verification,2022.2.4,Win32,60.06727535,,,,,,,,,,,,,,,,,,,,,,,,,,,,,,,,,,,left,1,0.4698,,,,,,physical,8,8,8 | 8,0,0.065,0.05,neutral,left,0,42,42,70,1,,,,,,,,,,,,,,,,,,,,,,,,,,,,,,,,,,,,,,,,,,,,,,,,,,,,,,,,,,,,,,,,,,,,,,,,,,,,,,,,,,,,,,,,,,,,,,,,,,,,,,,,,,,,,,,,,,,,,,
,318020814820,ABC,01/10/1996,001,2023-04-03_09h53.15.060,OS3_Mult_verification,2022.2.4,Win32,60.06727535,,,,,,,,,,,,,,,,,,,,,,,,,,,,,,,,,,,right,1,0.4023,,,,,,physical,2,7,2 | 7,5,0.05,0.065,congruent,right,0,43,43,17,1,,,,,,,,,,,,,,,,,,,,,,,,,,,,,,,,,,,,,,,,,,,,,,,,,,,,,,,,,,,,,,,,,,,,,,,,,,,,,,,,,,,,,,,,,,,,,,,,,,,,,,,,,,,,,,,,,,,,,,
,318020814820,ABC,01/10/1996,001,2023-04-03_09h53.15.060,OS3_Mult_verification,2022.2.4,Win32,60.06727535,,,,,,,,,,,,,,,,,,,,,,,,,,,,,,,,,,,left,1,0.6932,,,,,,physical,6,8,6 | 8,2,0.065,0.05,incongruent,left,0,44,44,34,1,,,,,,,,,,,,,,,,,,,,,,,,,,,,,,,,,,,,,,,,,,,,,,,,,,,,,,,,,,,,,,,,,,,,,,,,,,,,,,,,,,,,,,,,,,,,,,,,,,,,,,,,,,,,,,,,,,,,,,
,318020814820,ABC,01/10/1996,001,2023-04-03_09h53.15.060,OS3_Mult_verification,2022.2.4,Win32,60.06727535,,,,,,,,,,,,,,,,,,,,,,,,,,,,,,,,,,,right,1,0.4305,,,,,,physical,3,3,3 | 3,0,0.05,0.065,neutral,right,0,45,45,60,1,,,,,,,,,,,,,,,,,,,,,,,,,,,,,,,,,,,,,,,,,,,,,,,,,,,,,,,,,,,,,,,,,,,,,,,,,,,,,,,,,,,,,,,,,,,,,,,,,,,,,,,,,,,,,,,,,,,,,,
,318020814820,ABC,01/10/1996,001,2023-04-03_09h53.15.060,OS3_Mult_verification,2022.2.4,Win32,60.06727535,,,,,,,,,,,,,,,,,,,,,,,,,,,,,,,,,,,left,1,0.3906,,,,,,physical,9,4,9 | 4,5,0.065,0.05,congruent,left,0,46,46,23,1,,,,,,,,,,,,,,,,,,,,,,,,,,,,,,,,,,,,,,,,,,,,,,,,,,,,,,,,,,,,,,,,,,,,,,,,,,,,,,,,,,,,,,,,,,,,,,,,,,,,,,,,,,,,,,,,,,,,,,
,318020814820,ABC,01/10/1996,001,2023-04-03_09h53.15.060,OS3_Mult_verification,2022.2.4,Win32,60.06727535,,,,,,,,,,,,,,,,,,,,,,,,,,,,,,,,,,,left,1,0.4402,,,,,,physical,2,4,2 | 4,2,0.065,0.05,incongruent,left,0,47,47,33,1,,,,,,,,,,,,,,,,,,,,,,,,,,,,,,,,,,,,,,,,,,,,,,,,,,,,,,,,,,,,,,,,,,,,,,,,,,,,,,,,,,,,,,,,,,,,,,,,,,,,,,,,,,,,,,,,,,,,,,
,318020814820,ABC,01/10/1996,001,2023-04-03_09h53.15.060,OS3_Mult_verification,2022.2.4,Win32,60.06727535,,,,,,,,,,,,,,,,,,,,,,,,,,,,,,,,,,,right,1,0.4913,,,,,,physical,3,4,3 | 4,1,0.05,0.065,congruent,right,0,48,48,1,1,,,,,,,,,,,,,,,,,,,,,,,,,,,,,,,,,,,,,,,,,,,,,,,,,,,,,,,,,,,,,,,,,,,,,,,,,,,,,,,,,,,,,,,,,,,,,,,,,,,,,,,,,,,,,,,,,,,,,,
,318020814820,ABC,01/10/1996,001,2023-04-03_09h53.15.060,OS3_Mult_verification,2022.2.4,Win32,60.06727535,,,,,,,,,,,,,,,,,,,,,,,,,,,,,,,,,,,right,1,0.4216,,,,,,physical,1,3,1 | 3,2,0.05,0.065,congruent,right,0,49,49,8,1,,,,,,,,,,,,,,,,,,,,,,,,,,,,,,,,,,,,,,,,,,,,,,,,,,,,,,,,,,,,,,,,,,,,,,,,,,,,,,,,,,,,,,,,,,,,,,,,,,,,,,,,,,,,,,,,,,,,,,
,318020814820,ABC,01/10/1996,001,2023-04-03_09h53.15.060,OS3_Mult_verification,2022.2.4,Win32,60.06727535,,,,,,,,,,,,,,,,,,,,,,,,,,,,,,,,,,,right,1,0.3831,,,,,,physical,7,6,7 | 6,1,0.05,0.065,incongruent,right,0,50,50,30,1,,,,,,,,,,,,,,,,,,,,,,,,,,,,,,,,,,,,,,,,,,,,,,,,,,,,,,,,,,,,,,,,,,,,,,,,,,,,,,,,,,,,,,,,,,,,,,,,,,,,,,,,,,,,,,,,,,,,,,
,318020814820,ABC,01/10/1996,001,2023-04-03_09h53.15.060,OS3_Mult_verification,2022.2.4,Win32,60.06727535,,,,,,,,,,,,,,,,,,,,,,,,,,,,,,,,,,,left,1,0.417,,,,,,physical,7,7,7 | 7,0,0.065,0.05,neutral,left,0,51,51,54,1,,,,,,,,,,,,,,,,,,,,,,,,,,,,,,,,,,,,,,,,,,,,,,,,,,,,,,,,,,,,,,,,,,,,,,,,,,,,,,,,,,,,,,,,,,,,,,,,,,,,,,,,,,,,,,,,,,,,,,
,318020814820,ABC,01/10/1996,001,2023-04-03_09h53.15.060,OS3_Mult_verification,2022.2.4,Win32,60.06727535,,,,,,,,,,,,,,,,,,,,,,,,,,,,,,,,,,,right,1,0.5747,,,,,,physical,2,2,2 | 2,0,0.05,0.065,neutral,right,0,52,52,65,1,,,,,,,,,,,,,,,,,,,,,,,,,,,,,,,,,,,,,,,,,,,,,,,,,,,,,,,,,,,,,,,,,,,,,,,,,,,,,,,,,,,,,,,,,,,,,,,,,,,,,,,,,,,,,,,,,,,,,,
,318020814820,ABC,01/10/1996,001,2023-04-03_09h53.15.060,OS3_Mult_verification,2022.2.4,Win32,60.06727535,,,,,,,,,,,,,,,,,,,,,,,,,,,,,,,,,,,right,1,0.4798,,,,,,physical,7,9,7 | 9,2,0.05,0.065,congruent,right,0,53,53,11,1,,,,,,,,,,,,,,,,,,,,,,,,,,,,,,,,,,,,,,,,,,,,,,,,,,,,,,,,,,,,,,,,,,,,,,,,,,,,,,,,,,,,,,,,,,,,,,,,,,,,,,,,,,,,,,,,,,,,,,
,318020814820,ABC,01/10/1996,001,2023-04-03_09h53.15.060,OS3_Mult_verification,2022.2.4,Win32,60.06727535,,,,,,,,,,,,,,,,,,,,,,,,,,,,,,,,,,,left,1,0.4756,,,,,,physical,4,2,4 | 2,2,0.065,0.05,congruent,left,0,54,54,13,1,,,,,,,,,,,,,,,,,,,,,,,,,,,,,,,,,,,,,,,,,,,,,,,,,,,,,,,,,,,,,,,,,,,,,,,,,,,,,,,,,,,,,,,,,,,,,,,,,,,,,,,,,,,,,,,,,,,,,,
,318020814820,ABC,01/10/1996,001,2023-04-03_09h53.15.060,OS3_Mult_verification,2022.2.4,Win32,60.06727535,,,,,,,,,,,,,,,,,,,,,,,,,,,,,,,,,,,right,1,0.5546,,,,,,physical,8,6,8 | 6,2,0.05,0.065,incongruent,right,0,55,55,38,1,,,,,,,,,,,,,,,,,,,,,,,,,,,,,,,,,,,,,,,,,,,,,,,,,,,,,,,,,,,,,,,,,,,,,,,,,,,,,,,,,,,,,,,,,,,,,,,,,,,,,,,,,,,,,,,,,,,,,,
,318020814820,ABC,01/10/1996,001,2023-04-03_09h53.15.060,OS3_Mult_verification,2022.2.4,Win32,60.06727535,,,,,,,,,,,,,,,,,,,,,,,,,,,,,,,,,,,left,1,0.4404,,,,,,physical,8,3,8 | 3,5,0.065,0.05,congruent,left,0,56,56,22,1,,,,,,,,,,,,,,,,,,,,,,,,,,,,,,,,,,,,,,,,,,,,,,,,,,,,,,,,,,,,,,,,,,,,,,,,,,,,,,,,,,,,,,,,,,,,,,,,,,,,,,,,,,,,,,,,,,,,,,
,318020814820,ABC,01/10/1996,001,2023-04-03_09h53.15.060,OS3_Mult_verification,2022.2.4,Win32,60.06727535,,,,,,,,,,,,,,,,,,,,,,,,,,,,,,,,,,,right,1,0.4482,,,,,,physical,7,7,7 | 7,0,0.05,0.065,neutral,right,0,57,57,59,1,,,,,,,,,,,,,,,,,,,,,,,,,,,,,,,,,,,,,,,,,,,,,,,,,,,,,,,,,,,,,,,,,,,,,,,,,,,,,,,,,,,,,,,,,,,,,,,,,,,,,,,,,,,,,,,,,,,,,,
,318020814820,ABC,01/10/1996,001,2023-04-03_09h53.15.060,OS3_Mult_verification,2022.2.4,Win32,60.06727535,,,,,,,,,,,,,,,,,,,,,,,,,,,,,,,,,,,right,1,0.4901,,,,,,physical,6,7,6 | 7,1,0.05,0.065,congruent,right,0,58,58,2,1,,,,,,,,,,,,,,,,,,,,,,,,,,,,,,,,,,,,,,,,,,,,,,,,,,,,,,,,,,,,,,,,,,,,,,,,,,,,,,,,,,,,,,,,,,,,,,,,,,,,,,,,,,,,,,,,,,,,,,
,318020814820,ABC,01/10/1996,001,2023-04-03_09h53.15.060,OS3_Mult_verification,2022.2.4,Win32,60.06727535,,,,,,,,,,,,,,,,,,,,,,,,,,,,,,,,,,,left,1,0.6325,,,,,,physical,1,6,1 | 6,5,0.065,0.05,incongruent,left,0,59,59,40,1,,,,,,,,,,,,,,,,,,,,,,,,,,,,,,,,,,,,,,,,,,,,,,,,,,,,,,,,,,,,,,,,,,,,,,,,,,,,,,,,,,,,,,,,,,,,,,,,,,,,,,,,,,,,,,,,,,,,,,
,318020814820,ABC,01/10/1996,001,2023-04-03_09h53.15.060,OS3_Mult_verification,2022.2.4,Win32,60.06727535,,,,,,,,,,,,,,,,,,,,,,,,,,,,,,,,,,,left,1,0.4669,,,,,,physical,2,2,2 | 2,0,0.065,0.05,neutral,left,0,60,60,52,1,,,,,,,,,,,,,,,,,,,,,,,,,,,,,,,,,,,,,,,,,,,,,,,,,,,,,,,,,,,,,,,,,,,,,,,,,,,,,,,,,,,,,,,,,,,,,,,,,,,,,,,,,,,,,,,,,,,,,,
,318020814820,ABC,01/10/1996,001,2023-04-03_09h53.15.060,OS3_Mult_verification,2022.2.4,Win32,60.06727535,,,,,,,,,,,,,,,,,,,,,,,,,,,,,,,,,,,left,1,0.4289,,,,,,physical,6,1,6 | 1,5,0.065,0.05,congruent,left,0,61,61,20,1,,,,,,,,,,,,,,,,,,,,,,,,,,,,,,,,,,,,,,,,,,,,,,,,,,,,,,,,,,,,,,,,,,,,,,,,,,,,,,,,,,,,,,,,,,,,,,,,,,,,,,,,,,,,,,,,,,,,,,
,318020814820,ABC,01/10/1996,001,2023-04-03_09h53.15.060,OS3_Mult_verification,2022.2.4,Win32,60.06727535,,,,,,,,,,,,,,,,,,,,,,,,,,,,,,,,,,,left,1,0.5583,,,,,,physical,2,7,2 | 7,5,0.065,0.05,incongruent,left,0,62,62,41,1,,,,,,,,,,,,,,,,,,,,,,,,,,,,,,,,,,,,,,,,,,,,,,,,,,,,,,,,,,,,,,,,,,,,,,,,,,,,,,,,,,,,,,,,,,,,,,,,,,,,,,,,,,,,,,,,,,,,,,
,318020814820,ABC,01/10/1996,001,2023-04-03_09h53.15.060,OS3_Mult_verification,2022.2.4,Win32,60.06727535,,,,,,,,,,,,,,,,,,,,,,,,,,,,,,,,,,,left,1,0.4386,,,,,,physical,3,3,3 | 3,0,0.065,0.05,neutral,left,0,63,63,66,1,,,,,,,,,,,,,,,,,,,,,,,,,,,,,,,,,,,,,,,,,,,,,,,,,,,,,,,,,,,,,,,,,,,,,,,,,,,,,,,,,,,,,,,,,,,,,,,,,,,,,,,,,,,,,,,,,,,,,,
,318020814820,ABC,01/10/1996,001,2023-04-03_09h53.15.060,OS3_Mult_verification,2022.2.4,Win32,60.06727535,,,,,,,,,,,,,,,,,,,,,,,,,,,,,,,,,,,left,1,0.3667,,,,,,physical,3,1,3 | 1,2,0.065,0.05,congruent,left,0,64,64,12,1,,,,,,,,,,,,,,,,,,,,,,,,,,,,,,,,,,,,,,,,,,,,,,,,,,,,,,,,,,,,,,,,,,,,,,,,,,,,,,,,,,,,,,,,,,,,,,,,,,,,,,,,,,,,,,,,,,,,,,
,318020814820,ABC,01/10/1996,001,2023-04-03_09h53.15.060,OS3_Mult_verification,2022.2.4,Win32,60.06727535,,,,,,,,,,,,,,,,,,,,,,,,,,,,,,,,,,,right,1,0.566,,,,,,physical,7,7,7 | 7,0,0.05,0.065,neutral,right,0,65,65,69,1,,,,,,,,,,,,,,,,,,,,,,,,,,,,,,,,,,,,,,,,,,,,,,,,,,,,,,,,,,,,,,,,,,,,,,,,,,,,,,,,,,,,,,,,,,,,,,,,,,,,,,,,,,,,,,,,,,,,,,
,318020814820,ABC,01/10/1996,001,2023-04-03_09h53.15.060,OS3_Mult_verification,2022.2.4,Win32,60.06727535,,,,,,,,,,,,,,,,,,,,,,,,,,,,,,,,,,,left,1,0.7078,,,,,,physical,9,7,9 | 7,2,0.065,0.05,congruent,left,0,66,66,15,1,,,,,,,,,,,,,,,,,,,,,,,,,,,,,,,,,,,,,,,,,,,,,,,,,,,,,,,,,,,,,,,,,,,,,,,,,,,,,,,,,,,,,,,,,,,,,,,,,,,,,,,,,,,,,,,,,,,,,,
,318020814820,ABC,01/10/1996,001,2023-04-03_09h53.15.060,OS3_Mult_verification,2022.2.4,Win32,60.06727535,,,,,,,,,,,,,,,,,,,,,,,,,,,,,,,,,,,right,1,0.4997,,,,,,physical,4,3,4 | 3,1,0.05,0.065,incongruent,right,0,67,67,29,1,,,,,,,,,,,,,,,,,,,,,,,,,,,,,,,,,,,,,,,,,,,,,,,,,,,,,,,,,,,,,,,,,,,,,,,,,,,,,,,,,,,,,,,,,,,,,,,,,,,,,,,,,,,,,,,,,,,,,,
,318020814820,ABC,01/10/1996,001,2023-04-03_09h53.15.060,OS3_Mult_verification,2022.2.4,Win32,60.06727535,,,,,,,,,,,,,,,,,,,,,,,,,,,,,,,,,,,right,1,0.4832,,,,,,physical,4,9,4 | 9,5,0.05,0.065,congruent,right,0,68,68,19,1,,,,,,,,,,,,,,,,,,,,,,,,,,,,,,,,,,,,,,,,,,,,,,,,,,,,,,,,,,,,,,,,,,,,,,,,,,,,,,,,,,,,,,,,,,,,,,,,,,,,,,,,,,,,,,,,,,,,,,
,318020814820,ABC,01/10/1996,001,2023-04-03_09h53.15.060,OS3_Mult_verification,2022.2.4,Win32,60.06727535,,,,,,,,,,,,,,,,,,,,,,,,,,,,,,,,,,,left,1,0.5592,,,,,,physical,7,6,7 | 6,1,0.065,0.05,congruent,left,0,69,69,6,1,,,,,,,,,,,,,,,,,,,,,,,,,,,,,,,,,,,,,,,,,,,,,,,,,,,,,,,,,,,,,,,,,,,,,,,,,,,,,,,,,,,,,,,,,,,,,,,,,,,,,,,,,,,,,,,,,,,,,,
,318020814820,ABC,01/10/1996,001,2023-04-03_09h53.15.060,OS3_Mult_verification,2022.2.4,Win32,60.06727535,,,,,,,,,,,,,,,,,,,,,,,,,,,,,,,,,,,left,1,0.5397,,,,,,physical,8,8,8 | 8,0,0.065,0.05,neutral,left,0,70,70,51,1,,,,,,,,,,,,,,,,,,,,,,,,,,,,,,,,,,,,,,,,,,,,,,,,,,,,,,,,,,,,,,,,,,,,,,,,,,,,,,,,,,,,,,,,,,,,,,,,,,,,,,,,,,,,,,,,,,,,,,
,318020814820,ABC,01/10/1996,001,2023-04-03_09h53.15.060,OS3_Mult_verification,2022.2.4,Win32,60.06727535,,,,,,,,,,,,,,,,,,,,,,,,,,,,,,,,,,,left,1,0.492,,,,,,physical,3,4,3 | 4,1,0.065,0.05,incongruent,left,0,71,71,25,1,,,,,,,,,,,,,,,,,,,,,,,,,,,,,,,,,,,,,,,,,,,,,,,,,,,,,,,,,,,,,,,,,,,,,,,,,,,,,,,,,,,,,,,,,,,,,,,,,,,,,,,,,,,,,,,,,,,,,,
,318020814820,ABC,01/10/1996,001,2023-04-03_09h53.15.060,OS3_Mult_verification,2022.2.4,Win32,60.06727535,,,,,,,,,,,,,,,,,,,,,,,,,,,,,,,,,,,,,,,,,,,,,,,,,,,,,,,,,0,0,0,1,1,stroop_stim/physical.xlsx,stroop_stim/prac_physical.xlsx,PHYSICALLY larger (larger font size).,images/physicallyLarger.png,,,,,,,,,,,,,,,,,,,,,,,,,,,,,,,,,,,,,,,,,,,,,,,,,,,,,,,,,,,,,,,,,,,,,,,,,,,,,,,,,,,,,,,,,,,,,,,,,,,,,,,,,,,,,
,318020814820,ABC,01/10/1996,001,2023-04-03_09h53.15.060,OS3_Mult_verification,2022.2.4,Win32,60.06727535,,,,,,,,,,,,,,,,space,1.0388,,,,,,,,,,,,,,,,,,right,1,0.5609,0,0,0,2,1,practice,4,9,4 | 9,5,0.06,0.06,neutral,right,,,,,,,,,,,,,,,,,,,,,,,,,,,,,,,,,,,,,,,,,,,,,,,,,,,,,,,,,,,,,,,,,,,,,,,,,,,,,,,,,,,,,,,,,,,,,,,,,,,,,,,,,,,,,,,,,,,,,,,,,,,
,318020814820,ABC,01/10/1996,001,2023-04-03_09h53.15.060,OS3_Mult_verification,2022.2.4,Win32,60.06727535,,,,,,,,,,,,,,,,,,,,,,,,,,,,,,,,,,,right,1,0.6353,0,1,1,1,1,practice,7,8,7 | 8,1,0.065,0.05,incongruent,right,,,,,,,,,,,,,,,,,,,,,,,,,,,,,,,,,,,,,,,,,,,,,,,,,,,,,,,,,,,,,,,,,,,,,,,,,,,,,,,,,,,,,,,,,,,,,,,,,,,,,,,,,,,,,,,,,,,,,,,,,,,
,318020814820,ABC,01/10/1996,001,2023-04-03_09h53.15.060,OS3_Mult_verification,2022.2.4,Win32,60.06727535,,,,,,,,,,,,,,,,,,,,,,,,,,,,,,,,,,,right,1,0.4538,0,2,2,0,1,practice,1,2,1 | 2,1,0.05,0.065,congruent,right,,,,,,,,,,,,,,,,,,,,,,,,,,,,,,,,,,,,,,,,,,,,,,,,,,,,,,,,,,,,,,,,,,,,,,,,,,,,,,,,,,,,,,,,,,,,,,,,,,,,,,,,,,,,,,,,,,,,,,,,,,,
,318020814820,ABC,01/10/1996,001,2023-04-03_09h53.15.060,OS3_Mult_verification,2022.2.4,Win32,60.06727535,,,,,,,,,,,,,,,,,,,,,,,,,,,,,,,,,,,right,1,0.4753,,,,,,magnitude,8,9,8 | 9,1,0.06,0.06,neutral,right,0,0,0,51,1,,,,,,,,,,,,,,,,,,,,,,,,,,,,,,,,,,,,,,,,,,,,,,,,,,,,,,,,,,,,,,,,,,,,,,,,,,,,,,,,,,,,,,,,,,,,,,,,,,,,,,,,,,,,,,,,,,,,,,
,318020814820,ABC,01/10/1996,001,2023-04-03_09h53.15.060,OS3_Mult_verification,2022.2.4,Win32,60.06727535,,,,,,,,,,,,,,,,,,,,,,,,,,,,,,,,,,,right,1,0.4781,,,,,,magnitude,4,9,4 | 9,5,0.05,0.065,congruent,right,0,1,1,19,1,,,,,,,,,,,,,,,,,,,,,,,,,,,,,,,,,,,,,,,,,,,,,,,,,,,,,,,,,,,,,,,,,,,,,,,,,,,,,,,,,,,,,,,,,,,,,,,,,,,,,,,,,,,,,,,,,,,,,,
,318020814820,ABC,01/10/1996,001,2023-04-03_09h53.15.060,OS3_Mult_verification,2022.2.4,Win32,60.06727535,,,,,,,,,,,,,,,,,,,,,,,,,,,,,,,,,,,right,1,0.5717,,,,,,magnitude,6,8,6 | 8,2,0.06,0.06,neutral,right,0,2,2,58,1,,,,,,,,,,,,,,,,,,,,,,,,,,,,,,,,,,,,,,,,,,,,,,,,,,,,,,,,,,,,,,,,,,,,,,,,,,,,,,,,,,,,,,,,,,,,,,,,,,,,,,,,,,,,,,,,,,,,,,
,318020814820,ABC,01/10/1996,001,2023-04-03_09h53.15.060,OS3_Mult_verification,2022.2.4,Win32,60.06727535,,,,,,,,,,,,,,,,,,,,,,,,,,,,,,,,,,,left,1,0.6208,,,,,,magnitude,9,4,9 | 4,5,0.05,0.065,incongruent,left,0,3,3,47,1,,,,,,,,,,,,,,,,,,,,,,,,,,,,,,,,,,,,,,,,,,,,,,,,,,,,,,,,,,,,,,,,,,,,,,,,,,,,,,,,,,,,,,,,,,,,,,,,,,,,,,,,,,,,,,,,,,,,,,
,318020814820,ABC,01/10/1996,001,2023-04-03_09h53.15.060,OS3_Mult_verification,2022.2.4,Win32,60.06727535,,,,,,,,,,,,,,,,,,,,,,,,,,,,,,,,,,,right,1,0.6809,,,,,,magnitude,8,9,8 | 9,1,0.05,0.065,congruent,right,0,4,4,3,1,,,,,,,,,,,,,,,,,,,,,,,,,,,,,,,,,,,,,,,,,,,,,,,,,,,,,,,,,,,,,,,,,,,,,,,,,,,,,,,,,,,,,,,,,,,,,,,,,,,,,,,,,,,,,,,,,,,,,,
,318020814820,ABC,01/10/1996,001,2023-04-03_09h53.15.060,OS3_Mult_verification,2022.2.4,Win32,60.06727535,,,,,,,,,,,,,,,,,,,,,,,,,,,,,,,,,,,right,1,0.5693,,,,,,magnitude,8,9,8 | 9,1,0.065,0.05,incongruent,right,0,5,5,27,1,,,,,,,,,,,,,,,,,,,,,,,,,,,,,,,,,,,,,,,,,,,,,,,,,,,,,,,,,,,,,,,,,,,,,,,,,,,,,,,,,,,,,,,,,,,,,,,,,,,,,,,,,,,,,,,,,,,,,,
,318020814820,ABC,01/10/1996,001,2023-04-03_09h53.15.060,OS3_Mult_verification,2022.2.4,Win32,60.06727535,,,,,,,,,,,,,,,,,,,,,,,,,,,,,,,,,,,right,1,0.5464,,,,,,magnitude,2,4,2 | 4,2,0.065,0.05,incongruent,right,0,6,6,33,1,,,,,,,,,,,,,,,,,,,,,,,,,,,,,,,,,,,,,,,,,,,,,,,,,,,,,,,,,,,,,,,,,,,,,,,,,,,,,,,,,,,,,,,,,,,,,,,,,,,,,,,,,,,,,,,,,,,,,,
,318020814820,ABC,01/10/1996,001,2023-04-03_09h53.15.060,OS3_Mult_verification,2022.2.4,Win32,60.06727535,,,,,,,,,,,,,,,,,,,,,,,,,,,,,,,,,,,left,1,0.6082,,,,,,magnitude,9,8,9 | 8,1,0.05,0.065,incongruent,left,0,7,7,31,1,,,,,,,,,,,,,,,,,,,,,,,,,,,,,,,,,,,,,,,,,,,,,,,,,,,,,,,,,,,,,,,,,,,,,,,,,,,,,,,,,,,,,,,,,,,,,,,,,,,,,,,,,,,,,,,,,,,,,,
,318020814820,ABC,01/10/1996,001,2023-04-03_09h53.15.060,OS3_Mult_verification,2022.2.4,Win32,60.06727535,,,,,,,,,,,,,,,,,,,,,,,,,,,,,,,,,,,left,1,0.5987,,,,,,magnitude,8,6,8 | 6,2,0.06,0.06,neutral,left,0,8,8,62,1,,,,,,,,,,,,,,,,,,,,,,,,,,,,,,,,,,,,,,,,,,,,,,,,,,,,,,,,,,,,,,,,,,,,,,,,,,,,,,,,,,,,,,,,,,,,,,,,,,,,,,,,,,,,,,,,,,,,,,
,318020814820,ABC,01/10/1996,001,2023-04-03_09h53.15.060,OS3_Mult_verification,2022.2.4,Win32,60.06727535,,,,,,,,,,,,,,,,,,,,,,,,,,,,,,,,,,,right,1,0.5581,,,,,,magnitude,1,6,1 | 6,5,0.05,0.065,congruent,right,0,9,9,16,1,,,,,,,,,,,,,,,,,,,,,,,,,,,,,,,,,,,,,,,,,,,,,,,,,,,,,,,,,,,,,,,,,,,,,,,,,,,,,,,,,,,,,,,,,,,,,,,,,,,,,,,,,,,,,,,,,,,,,,
,318020814820,ABC,01/10/1996,001,2023-04-03_09h53.15.060,OS3_Mult_verification,2022.2.4,Win32,60.06727535,,,,,,,,,,,,,,,,,,,,,,,,,,,,,,,,,,,right,1,0.4941,,,,,,magnitude,1,3,1 | 3,2,0.05,0.065,congruent,right,0,10,10,8,1,,,,,,,,,,,,,,,,,,,,,,,,,,,,,,,,,,,,,,,,,,,,,,,,,,,,,,,,,,,,,,,,,,,,,,,,,,,,,,,,,,,,,,,,,,,,,,,,,,,,,,,,,,,,,,,,,,,,,,
,318020814820,ABC,01/10/1996,001,2023-04-03_09h53.15.060,OS3_Mult_verification,2022.2.4,Win32,60.06727535,,,,,,,,,,,,,,,,,,,,,,,,,,,,,,,,,,,right,1,0.5244,,,,,,magnitude,2,7,2 | 7,5,0.05,0.065,congruent,right,0,11,11,17,1,,,,,,,,,,,,,,,,,,,,,,,,,,,,,,,,,,,,,,,,,,,,,,,,,,,,,,,,,,,,,,,,,,,,,,,,,,,,,,,,,,,,,,,,,,,,,,,,,,,,,,,,,,,,,,,,,,,,,,
,318020814820,ABC,01/10/1996,001,2023-04-03_09h53.15.060,OS3_Mult_verification,2022.2.4,Win32,60.06727535,,,,,,,,,,,,,,,,,,,,,,,,,,,,,,,,,,,right,1,0.5642,,,,,,magnitude,3,8,3 | 8,5,0.05,0.065,congruent,right,0,12,12,18,1,,,,,,,,,,,,,,,,,,,,,,,,,,,,,,,,,,,,,,,,,,,,,,,,,,,,,,,,,,,,,,,,,,,,,,,,,,,,,,,,,,,,,,,,,,,,,,,,,,,,,,,,,,,,,,,,,,,,,,
,318020814820,ABC,01/10/1996,001,2023-04-03_09h53.15.060,OS3_Mult_verification,2022.2.4,Win32,60.06727535,,,,,,,,,,,,,,,,,,,,,,,,,,,,,,,,,,,left,0,0.6483,,,,,,magnitude,2,7,2 | 7,5,0.065,0.05,incongruent,right,0,13,13,41,1,,,,,,,,,,,,,,,,,,,,,,,,,,,,,,,,,,,,,,,,,,,,,,,,,,,,,,,,,,,,,,,,,,,,,,,,,,,,,,,,,,,,,,,,,,,,,,,,,,,,,,,,,,,,,,,,,,,,,,
,318020814820,ABC,01/10/1996,001,2023-04-03_09h53.15.060,OS3_Mult_verification,2022.2.4,Win32,60.06727535,,,,,,,,,,,,,,,,,,,,,,,,,,,,,,,,,,,left,1,0.7988,,,,,,magnitude,9,7,9 | 7,2,0.06,0.06,neutral,left,0,14,14,63,1,,,,,,,,,,,,,,,,,,,,,,,,,,,,,,,,,,,,,,,,,,,,,,,,,,,,,,,,,,,,,,,,,,,,,,,,,,,,,,,,,,,,,,,,,,,,,,,,,,,,,,,,,,,,,,,,,,,,,,
,318020814820,ABC,01/10/1996,001,2023-04-03_09h53.15.060,OS3_Mult_verification,2022.2.4,Win32,60.06727535,,,,,,,,,,,,,,,,,,,,,,,,,,,,,,,,,,,left,1,0.5269,,,,,,magnitude,6,1,6 | 1,5,0.06,0.06,neutral,left,0,15,15,68,1,,,,,,,,,,,,,,,,,,,,,,,,,,,,,,,,,,,,,,,,,,,,,,,,,,,,,,,,,,,,,,,,,,,,,,,,,,,,,,,,,,,,,,,,,,,,,,,,,,,,,,,,,,,,,,,,,,,,,,
,318020814820,ABC,01/10/1996,001,2023-04-03_09h53.15.060,OS3_Mult_verification,2022.2.4,Win32,60.06727535,,,,,,,,,,,,,,,,,,,,,,,,,,,,,,,,,,,left,1,0.5288,,,,,,magnitude,8,3,8 | 3,5,0.06,0.06,neutral,left,0,16,16,70,1,,,,,,,,,,,,,,,,,,,,,,,,,,,,,,,,,,,,,,,,,,,,,,,,,,,,,,,,,,,,,,,,,,,,,,,,,,,,,,,,,,,,,,,,,,,,,,,,,,,,,,,,,,,,,,,,,,,,,,
,318020814820,ABC,01/10/1996,001,2023-04-03_09h53.15.060,OS3_Mult_verification,2022.2.4,Win32,60.06727535,,,,,,,,,,,,,,,,,,,,,,,,,,,,,,,,,,,left,0,0.5172,,,,,,magnitude,6,8,6 | 8,2,0.065,0.05,incongruent,right,0,17,17,34,1,,,,,,,,,,,,,,,,,,,,,,,,,,,,,,,,,,,,,,,,,,,,,,,,,,,,,,,,,,,,,,,,,,,,,,,,,,,,,,,,,,,,,,,,,,,,,,,,,,,,,,,,,,,,,,,,,,,,,,
,318020814820,ABC,01/10/1996,001,2023-04-03_09h53.15.060,OS3_Mult_verification,2022.2.4,Win32,60.06727535,,,,,,,,,,,,,,,,,,,,,,,,,,,,,,,,,,,right,1,0.6666,,,,,,magnitude,3,8,3 | 8,5,0.06,0.06,neutral,right,0,18,18,66,1,,,,,,,,,,,,,,,,,,,,,,,,,,,,,,,,,,,,,,,,,,,,,,,,,,,,,,,,,,,,,,,,,,,,,,,,,,,,,,,,,,,,,,,,,,,,,,,,,,,,,,,,,,,,,,,,,,,,,,
,318020814820,ABC,01/10/1996,001,2023-04-03_09h53.15.060,OS3_Mult_verification,2022.2.4,Win32,60.06727535,,,,,,,,,,,,,,,,,,,,,,,,,,,,,,,,,,,left,1,0.9083,,,,,,magnitude,9,7,9 | 7,2,0.05,0.065,incongruent,left,0,19,19,39,1,,,,,,,,,,,,,,,,,,,,,,,,,,,,,,,,,,,,,,,,,,,,,,,,,,,,,,,,,,,,,,,,,,,,,,,,,,,,,,,,,,,,,,,,,,,,,,,,,,,,,,,,,,,,,,,,,,,,,,
,318020814820,ABC,01/10/1996,001,2023-04-03_09h53.15.060,OS3_Mult_verification,2022.2.4,Win32,60.06727535,,,,,,,,,,,,,,,,,,,,,,,,,,,,,,,,,,,left,1,0.7664,,,,,,magnitude,4,2,4 | 2,2,0.065,0.05,congruent,left,0,20,20,13,1,,,,,,,,,,,,,,,,,,,,,,,,,,,,,,,,,,,,,,,,,,,,,,,,,,,,,,,,,,,,,,,,,,,,,,,,,,,,,,,,,,,,,,,,,,,,,,,,,,,,,,,,,,,,,,,,,,,,,,
,318020814820,ABC,01/10/1996,001,2023-04-03_09h53.15.060,OS3_Mult_verification,2022.2.4,Win32,60.06727535,,,,,,,,,,,,,,,,,,,,,,,,,,,,,,,,,,,left,1,0.7331,,,,,,magnitude,8,3,8 | 3,5,0.05,0.065,incongruent,left,0,21,21,46,1,,,,,,,,,,,,,,,,,,,,,,,,,,,,,,,,,,,,,,,,,,,,,,,,,,,,,,,,,,,,,,,,,,,,,,,,,,,,,,,,,,,,,,,,,,,,,,,,,,,,,,,,,,,,,,,,,,,,,,
,318020814820,ABC,01/10/1996,001,2023-04-03_09h53.15.060,OS3_Mult_verification,2022.2.4,Win32,60.06727535,,,,,,,,,,,,,,,,,,,,,,,,,,,,,,,,,,,right,1,0.5209,,,,,,magnitude,2,4,2 | 4,2,0.05,0.065,congruent,right,0,22,22,9,1,,,,,,,,,,,,,,,,,,,,,,,,,,,,,,,,,,,,,,,,,,,,,,,,,,,,,,,,,,,,,,,,,,,,,,,,,,,,,,,,,,,,,,,,,,,,,,,,,,,,,,,,,,,,,,,,,,,,,,
,318020814820,ABC,01/10/1996,001,2023-04-03_09h53.15.060,OS3_Mult_verification,2022.2.4,Win32,60.06727535,,,,,,,,,,,,,,,,,,,,,,,,,,,,,,,,,,,left,1,0.599,,,,,,magnitude,3,1,3 | 1,2,0.065,0.05,congruent,left,0,23,23,12,1,,,,,,,,,,,,,,,,,,,,,,,,,,,,,,,,,,,,,,,,,,,,,,,,,,,,,,,,,,,,,,,,,,,,,,,,,,,,,,,,,,,,,,,,,,,,,,,,,,,,,,,,,,,,,,,,,,,,,,
,318020814820,ABC,01/10/1996,001,2023-04-03_09h53.15.060,OS3_Mult_verification,2022.2.4,Win32,60.06727535,,,,,,,,,,,,,,,,,,,,,,,,,,,,,,,,,,,left,1,0.5379,,,,,,magnitude,9,4,9 | 4,5,0.065,0.05,congruent,left,0,24,24,23,1,,,,,,,,,,,,,,,,,,,,,,,,,,,,,,,,,,,,,,,,,,,,,,,,,,,,,,,,,,,,,,,,,,,,,,,,,,,,,,,,,,,,,,,,,,,,,,,,,,,,,,,,,,,,,,,,,,,,,,
,318020814820,ABC,01/10/1996,001,2023-04-03_09h53.15.060,OS3_Mult_verification,2022.2.4,Win32,60.06727535,,,,,,,,,,,,,,,,,,,,,,,,,,,,,,,,,,,right,0,0.6322,,,,,,magnitude,4,3,4 | 3,1,0.05,0.065,incongruent,left,0,25,25,29,1,,,,,,,,,,,,,,,,,,,,,,,,,,,,,,,,,,,,,,,,,,,,,,,,,,,,,,,,,,,,,,,,,,,,,,,,,,,,,,,,,,,,,,,,,,,,,,,,,,,,,,,,,,,,,,,,,,,,,,
,318020814820,ABC,01/10/1996,001,2023-04-03_09h53.15.060,OS3_Mult_verification,2022.2.4,Win32,60.06727535,,,,,,,,,,,,,,,,,,,,,,,,,,,,,,,,,,,left,1,0.6507,,,,,,magnitude,2,1,2 | 1,1,0.065,0.05,congruent,left,0,26,26,4,1,,,,,,,,,,,,,,,,,,,,,,,,,,,,,,,,,,,,,,,,,,,,,,,,,,,,,,,,,,,,,,,,,,,,,,,,,,,,,,,,,,,,,,,,,,,,,,,,,,,,,,,,,,,,,,,,,,,,,,
,318020814820,ABC,01/10/1996,001,2023-04-03_09h53.15.060,OS3_Mult_verification,2022.2.4,Win32,60.06727535,,,,,,,,,,,,,,,,,,,,,,,,,,,,,,,,,,,left,1,0.6114,,,,,,magnitude,4,2,4 | 2,2,0.06,0.06,neutral,left,0,27,27,61,1,,,,,,,,,,,,,,,,,,,,,,,,,,,,,,,,,,,,,,,,,,,,,,,,,,,,,,,,,,,,,,,,,,,,,,,,,,,,,,,,,,,,,,,,,,,,,,,,,,,,,,,,,,,,,,,,,,,,,,
,318020814820,ABC,01/10/1996,001,2023-04-03_09h53.15.060,OS3_Mult_verification,2022.2.4,Win32,60.06727535,,,,,,,,,,,,,,,,,,,,,,,,,,,,,,,,,,,right,1,0.5395,,,,,,magnitude,6,7,6 | 7,1,0.05,0.065,congruent,right,0,28,28,2,1,,,,,,,,,,,,,,,,,,,,,,,,,,,,,,,,,,,,,,,,,,,,,,,,,,,,,,,,,,,,,,,,,,,,,,,,,,,,,,,,,,,,,,,,,,,,,,,,,,,,,,,,,,,,,,,,,,,,,,
,318020814820,ABC,01/10/1996,001,2023-04-03_09h53.15.060,OS3_Mult_verification,2022.2.4,Win32,60.06727535,,,,,,,,,,,,,,,,,,,,,,,,,,,,,,,,,,,left,1,0.5623,,,,,,magnitude,8,3,8 | 3,5,0.065,0.05,congruent,left,0,29,29,22,1,,,,,,,,,,,,,,,,,,,,,,,,,,,,,,,,,,,,,,,,,,,,,,,,,,,,,,,,,,,,,,,,,,,,,,,,,,,,,,,,,,,,,,,,,,,,,,,,,,,,,,,,,,,,,,,,,,,,,,
,318020814820,ABC,01/10/1996,001,2023-04-03_09h53.15.060,OS3_Mult_verification,2022.2.4,Win32,60.06727535,,,,,,,,,,,,,,,,,,,,,,,,,,,,,,,,,,,left,1,0.4934,,,,,,magnitude,9,8,9 | 8,1,0.065,0.05,congruent,left,0,30,30,7,1,,,,,,,,,,,,,,,,,,,,,,,,,,,,,,,,,,,,,,,,,,,,,,,,,,,,,,,,,,,,,,,,,,,,,,,,,,,,,,,,,,,,,,,,,,,,,,,,,,,,,,,,,,,,,,,,,,,,,,
,318020814820,ABC,01/10/1996,001,2023-04-03_09h53.15.060,OS3_Mult_verification,2022.2.4,Win32,60.06727535,,,,,,,,,,,,,,,,,,,,,,,,,,,,,,,,,,,right,0,0.7364,,,,,,magnitude,2,1,2 | 1,1,0.05,0.065,incongruent,left,0,31,31,28,1,,,,,,,,,,,,,,,,,,,,,,,,,,,,,,,,,,,,,,,,,,,,,,,,,,,,,,,,,,,,,,,,,,,,,,,,,,,,,,,,,,,,,,,,,,,,,,,,,,,,,,,,,,,,,,,,,,,,,,
,318020814820,ABC,01/10/1996,001,2023-04-03_09h53.15.060,OS3_Mult_verification,2022.2.4,Win32,60.06727535,,,,,,,,,,,,,,,,,,,,,,,,,,,,,,,,,,,left,1,0.849,,,,,,magnitude,9,4,9 | 4,5,0.06,0.06,neutral,left,0,32,32,71,1,,,,,,,,,,,,,,,,,,,,,,,,,,,,,,,,,,,,,,,,,,,,,,,,,,,,,,,,,,,,,,,,,,,,,,,,,,,,,,,,,,,,,,,,,,,,,,,,,,,,,,,,,,,,,,,,,,,,,,
,318020814820,ABC,01/10/1996,001,2023-04-03_09h53.15.060,OS3_Mult_verification,2022.2.4,Win32,60.06727535,,,,,,,,,,,,,,,,,,,,,,,,,,,,,,,,,,,left,1,1.3466,,,,,,magnitude,4,3,4 | 3,1,0.06,0.06,neutral,left,0,33,33,53,1,,,,,,,,,,,,,,,,,,,,,,,,,,,,,,,,,,,,,,,,,,,,,,,,,,,,,,,,,,,,,,,,,,,,,,,,,,,,,,,,,,,,,,,,,,,,,,,,,,,,,,,,,,,,,,,,,,,,,,
,318020814820,ABC,01/10/1996,001,2023-04-03_09h53.15.060,OS3_Mult_verification,2022.2.4,Win32,60.06727535,,,,,,,,,,,,,,,,,,,,,,,,,,,,,,,,,,,left,1,0.8524,,,,,,magnitude,8,6,8 | 6,2,0.05,0.065,incongruent,left,0,34,34,38,1,,,,,,,,,,,,,,,,,,,,,,,,,,,,,,,,,,,,,,,,,,,,,,,,,,,,,,,,,,,,,,,,,,,,,,,,,,,,,,,,,,,,,,,,,,,,,,,,,,,,,,,,,,,,,,,,,,,,,,
,318020814820,ABC,01/10/1996,001,2023-04-03_09h53.15.060,OS3_Mult_verification,2022.2.4,Win32,60.06727535,,,,,,,,,,,,,,,,,,,,,,,,,,,,,,,,,,,left,1,0.5461,,,,,,magnitude,9,8,9 | 8,1,0.06,0.06,neutral,left,0,35,35,55,1,,,,,,,,,,,,,,,,,,,,,,,,,,,,,,,,,,,,,,,,,,,,,,,,,,,,,,,,,,,,,,,,,,,,,,,,,,,,,,,,,,,,,,,,,,,,,,,,,,,,,,,,,,,,,,,,,,,,,,
,318020814820,ABC,01/10/1996,001,2023-04-03_09h53.15.060,OS3_Mult_verification,2022.2.4,Win32,60.06727535,,,,,,,,,,,,,,,,,,,,,,,,,,,,,,,,,,,left,1,0.5923,,,,,,magnitude,7,6,7 | 6,1,0.06,0.06,neutral,left,0,36,36,54,1,,,,,,,,,,,,,,,,,,,,,,,,,,,,,,,,,,,,,,,,,,,,,,,,,,,,,,,,,,,,,,,,,,,,,,,,,,,,,,,,,,,,,,,,,,,,,,,,,,,,,,,,,,,,,,,,,,,,,,
,318020814820,ABC,01/10/1996,001,2023-04-03_09h53.15.060,OS3_Mult_verification,2022.2.4,Win32,60.06727535,,,,,,,,,,,,,,,,,,,,,,,,,,,,,,,,,,,right,1,0.5346,,,,,,magnitude,2,7,2 | 7,5,0.06,0.06,neutral,right,0,37,37,65,1,,,,,,,,,,,,,,,,,,,,,,,,,,,,,,,,,,,,,,,,,,,,,,,,,,,,,,,,,,,,,,,,,,,,,,,,,,,,,,,,,,,,,,,,,,,,,,,,,,,,,,,,,,,,,,,,,,,,,,
,318020814820,ABC,01/10/1996,001,2023-04-03_09h53.15.060,OS3_Mult_verification,2022.2.4,Win32,60.06727535,,,,,,,,,,,,,,,,,,,,,,,,,,,,,,,,,,,left,1,0.595,,,,,,magnitude,3,1,3 | 1,2,0.06,0.06,neutral,left,0,38,38,60,1,,,,,,,,,,,,,,,,,,,,,,,,,,,,,,,,,,,,,,,,,,,,,,,,,,,,,,,,,,,,,,,,,,,,,,,,,,,,,,,,,,,,,,,,,,,,,,,,,,,,,,,,,,,,,,,,,,,,,,
,318020814820,ABC,01/10/1996,001,2023-04-03_09h53.15.060,OS3_Mult_verification,2022.2.4,Win32,60.06727535,,,,,,,,,,,,,,,,,,,,,,,,,,,,,,,,,,,right,1,0.6524,,,,,,magnitude,1,2,1 | 2,1,0.05,0.065,congruent,right,0,39,39,0,1,,,,,,,,,,,,,,,,,,,,,,,,,,,,,,,,,,,,,,,,,,,,,,,,,,,,,,,,,,,,,,,,,,,,,,,,,,,,,,,,,,,,,,,,,,,,,,,,,,,,,,,,,,,,,,,,,,,,,,
,318020814820,ABC,01/10/1996,001,2023-04-03_09h53.15.060,OS3_Mult_verification,2022.2.4,Win32,60.06727535,,,,,,,,,,,,,,,,,,,,,,,,,,,,,,,,,,,left,1,0.6769,,,,,,magnitude,4,2,4 | 2,2,0.05,0.065,incongruent,left,0,40,40,37,1,,,,,,,,,,,,,,,,,,,,,,,,,,,,,,,,,,,,,,,,,,,,,,,,,,,,,,,,,,,,,,,,,,,,,,,,,,,,,,,,,,,,,,,,,,,,,,,,,,,,,,,,,,,,,,,,,,,,,,
,318020814820,ABC,01/10/1996,001,2023-04-03_09h53.15.060,OS3_Mult_verification,2022.2.4,Win32,60.06727535,,,,,,,,,,,,,,,,,,,,,,,,,,,,,,,,,,,right,1,0.7166,,,,,,magnitude,4,9,4 | 9,5,0.065,0.05,incongruent,right,0,41,41,43,1,,,,,,,,,,,,,,,,,,,,,,,,,,,,,,,,,,,,,,,,,,,,,,,,,,,,,,,,,,,,,,,,,,,,,,,,,,,,,,,,,,,,,,,,,,,,,,,,,,,,,,,,,,,,,,,,,,,,,,
,318020814820,ABC,01/10/1996,001,2023-04-03_09h53.15.060,OS3_Mult_verification,2022.2.4,Win32,60.06727535,,,,,,,,,,,,,,,,,,,,,,,,,,,,,,,,,,,right,1,0.8221,,,,,,magnitude,1,6,1 | 6,5,0.065,0.05,incongruent,right,0,42,42,40,1,,,,,,,,,,,,,,,,,,,,,,,,,,,,,,,,,,,,,,,,,,,,,,,,,,,,,,,,,,,,,,,,,,,,,,,,,,,,,,,,,,,,,,,,,,,,,,,,,,,,,,,,,,,,,,,,,,,,,,
,318020814820,ABC,01/10/1996,001,2023-04-03_09h53.15.060,OS3_Mult_verification,2022.2.4,Win32,60.06727535,,,,,,,,,,,,,,,,,,,,,,,,,,,,,,,,,,,right,1,0.5671,,,,,,magnitude,6,8,6 | 8,2,0.05,0.065,congruent,right,0,43,43,10,1,,,,,,,,,,,,,,,,,,,,,,,,,,,,,,,,,,,,,,,,,,,,,,,,,,,,,,,,,,,,,,,,,,,,,,,,,,,,,,,,,,,,,,,,,,,,,,,,,,,,,,,,,,,,,,,,,,,,,,
,318020814820,ABC,01/10/1996,001,2023-04-03_09h53.15.060,OS3_Mult_verification,2022.2.4,Win32,60.06727535,,,,,,,,,,,,,,,,,,,,,,,,,,,,,,,,,,,right,1,0.535,,,,,,magnitude,3,8,3 | 8,5,0.065,0.05,incongruent,right,0,44,44,42,1,,,,,,,,,,,,,,,,,,,,,,,,,,,,,,,,,,,,,,,,,,,,,,,,,,,,,,,,,,,,,,,,,,,,,,,,,,,,,,,,,,,,,,,,,,,,,,,,,,,,,,,,,,,,,,,,,,,,,,
,318020814820,ABC,01/10/1996,001,2023-04-03_09h53.15.060,OS3_Mult_verification,2022.2.4,Win32,60.06727535,,,,,,,,,,,,,,,,,,,,,,,,,,,,,,,,,,,left,1,0.5182,,,,,,magnitude,8,6,8 | 6,2,0.065,0.05,congruent,left,0,45,45,14,1,,,,,,,,,,,,,,,,,,,,,,,,,,,,,,,,,,,,,,,,,,,,,,,,,,,,,,,,,,,,,,,,,,,,,,,,,,,,,,,,,,,,,,,,,,,,,,,,,,,,,,,,,,,,,,,,,,,,,,
,318020814820,ABC,01/10/1996,001,2023-04-03_09h53.15.060,OS3_Mult_verification,2022.2.4,Win32,60.06727535,,,,,,,,,,,,,,,,,,,,,,,,,,,,,,,,,,,right,1,0.5666,,,,,,magnitude,2,4,2 | 4,2,0.06,0.06,neutral,right,0,46,46,57,1,,,,,,,,,,,,,,,,,,,,,,,,,,,,,,,,,,,,,,,,,,,,,,,,,,,,,,,,,,,,,,,,,,,,,,,,,,,,,,,,,,,,,,,,,,,,,,,,,,,,,,,,,,,,,,,,,,,,,,
,318020814820,ABC,01/10/1996,001,2023-04-03_09h53.15.060,OS3_Mult_verification,2022.2.4,Win32,60.06727535,,,,,,,,,,,,,,,,,,,,,,,,,,,,,,,,,,,right,1,0.742,,,,,,magnitude,6,7,6 | 7,1,0.06,0.06,neutral,right,0,47,47,50,1,,,,,,,,,,,,,,,,,,,,,,,,,,,,,,,,,,,,,,,,,,,,,,,,,,,,,,,,,,,,,,,,,,,,,,,,,,,,,,,,,,,,,,,,,,,,,,,,,,,,,,,,,,,,,,,,,,,,,,
,318020814820,ABC,01/10/1996,001,2023-04-03_09h53.15.060,OS3_Mult_verification,2022.2.4,Win32,60.06727535,,,,,,,,,,,,,,,,,,,,,,,,,,,,,,,,,,,right,1,0.5332,,,,,,magnitude,1,6,1 | 6,5,0.06,0.06,neutral,right,0,48,48,64,1,,,,,,,,,,,,,,,,,,,,,,,,,,,,,,,,,,,,,,,,,,,,,,,,,,,,,,,,,,,,,,,,,,,,,,,,,,,,,,,,,,,,,,,,,,,,,,,,,,,,,,,,,,,,,,,,,,,,,,
,318020814820,ABC,01/10/1996,001,2023-04-03_09h53.15.060,OS3_Mult_verification,2022.2.4,Win32,60.06727535,,,,,,,,,,,,,,,,,,,,,,,,,,,,,,,,,,,left,1,0.542,,,,,,magnitude,2,1,2 | 1,1,0.06,0.06,neutral,left,0,49,49,52,1,,,,,,,,,,,,,,,,,,,,,,,,,,,,,,,,,,,,,,,,,,,,,,,,,,,,,,,,,,,,,,,,,,,,,,,,,,,,,,,,,,,,,,,,,,,,,,,,,,,,,,,,,,,,,,,,,,,,,,
,318020814820,ABC,01/10/1996,001,2023-04-03_09h53.15.060,OS3_Mult_verification,2022.2.4,Win32,60.06727535,,,,,,,,,,,,,,,,,,,,,,,,,,,,,,,,,,,left,1,0.6038,,,,,,magnitude,7,6,7 | 6,1,0.05,0.065,incongruent,left,0,50,50,30,1,,,,,,,,,,,,,,,,,,,,,,,,,,,,,,,,,,,,,,,,,,,,,,,,,,,,,,,,,,,,,,,,,,,,,,,,,,,,,,,,,,,,,,,,,,,,,,,,,,,,,,,,,,,,,,,,,,,,,,
,318020814820,ABC,01/10/1996,001,2023-04-03_09h53.15.060,OS3_Mult_verification,2022.2.4,Win32,60.06727535,,,,,,,,,,,,,,,,,,,,,,,,,,,,,,,,,,,right,1,0.7997,,,,,,magnitude,3,4,3 | 4,1,0.065,0.05,incongruent,right,0,51,51,25,1,,,,,,,,,,,,,,,,,,,,,,,,,,,,,,,,,,,,,,,,,,,,,,,,,,,,,,,,,,,,,,,,,,,,,,,,,,,,,,,,,,,,,,,,,,,,,,,,,,,,,,,,,,,,,,,,,,,,,,
,318020814820,ABC,01/10/1996,001,2023-04-03_09h53.15.060,OS3_Mult_verification,2022.2.4,Win32,60.06727535,,,,,,,,,,,,,,,,,,,,,,,,,,,,,,,,,,,left,1,0.5039,,,,,,magnitude,4,3,4 | 3,1,0.065,0.05,congruent,left,0,52,52,5,1,,,,,,,,,,,,,,,,,,,,,,,,,,,,,,,,,,,,,,,,,,,,,,,,,,,,,,,,,,,,,,,,,,,,,,,,,,,,,,,,,,,,,,,,,,,,,,,,,,,,,,,,,,,,,,,,,,,,,,
,318020814820,ABC,01/10/1996,001,2023-04-03_09h53.15.060,OS3_Mult_verification,2022.2.4,Win32,60.06727535,,,,,,,,,,,,,,,,,,,,,,,,,,,,,,,,,,,left,1,0.4679,,,,,,magnitude,7,2,7 | 2,5,0.06,0.06,neutral,left,0,53,53,69,1,,,,,,,,,,,,,,,,,,,,,,,,,,,,,,,,,,,,,,,,,,,,,,,,,,,,,,,,,,,,,,,,,,,,,,,,,,,,,,,,,,,,,,,,,,,,,,,,,,,,,,,,,,,,,,,,,,,,,,
,318020814820,ABC,01/10/1996,001,2023-04-03_09h53.15.060,OS3_Mult_verification,2022.2.4,Win32,60.06727535,,,,,,,,,,,,,,,,,,,,,,,,,,,,,,,,,,,left,1,0.6999,,,,,,magnitude,3,1,3 | 1,2,0.05,0.065,incongruent,left,0,54,54,36,1,,,,,,,,,,,,,,,,,,,,,,,,,,,,,,,,,,,,,,,,,,,,,,,,,,,,,,,,,,,,,,,,,,,,,,,,,,,,,,,,,,,,,,,,,,,,,,,,,,,,,,,,,,,,,,,,,,,,,,
,318020814820,ABC,01/10/1996,001,2023-04-03_09h53.15.060,OS3_Mult_verification,2022.2.4,Win32,60.06727535,,,,,,,,,,,,,,,,,,,,,,,,,,,,,,,,,,,left,1,0.4429,,,,,,magnitude,6,1,6 | 1,5,0.05,0.065,incongruent,left,0,55,55,44,1,,,,,,,,,,,,,,,,,,,,,,,,,,,,,,,,,,,,,,,,,,,,,,,,,,,,,,,,,,,,,,,,,,,,,,,,,,,,,,,,,,,,,,,,,,,,,,,,,,,,,,,,,,,,,,,,,,,,,,
,318020814820,ABC,01/10/1996,001,2023-04-03_09h53.15.060,OS3_Mult_verification,2022.2.4,Win32,60.06727535,,,,,,,,,,,,,,,,,,,,,,,,,,,,,,,,,,,right,1,0.5032,,,,,,magnitude,4,9,4 | 9,5,0.06,0.06,neutral,right,0,56,56,67,1,,,,,,,,,,,,,,,,,,,,,,,,,,,,,,,,,,,,,,,,,,,,,,,,,,,,,,,,,,,,,,,,,,,,,,,,,,,,,,,,,,,,,,,,,,,,,,,,,,,,,,,,,,,,,,,,,,,,,,
,318020814820,ABC,01/10/1996,001,2023-04-03_09h53.15.060,OS3_Mult_verification,2022.2.4,Win32,60.06727535,,,,,,,,,,,,,,,,,,,,,,,,,,,,,,,,,,,right,1,0.6607,,,,,,magnitude,1,2,1 | 2,1,0.065,0.05,incongruent,right,0,57,57,24,1,,,,,,,,,,,,,,,,,,,,,,,,,,,,,,,,,,,,,,,,,,,,,,,,,,,,,,,,,,,,,,,,,,,,,,,,,,,,,,,,,,,,,,,,,,,,,,,,,,,,,,,,,,,,,,,,,,,,,,
,318020814820,ABC,01/10/1996,001,2023-04-03_09h53.15.060,OS3_Mult_verification,2022.2.4,Win32,60.06727535,,,,,,,,,,,,,,,,,,,,,,,,,,,,,,,,,,,right,1,0.5305,,,,,,magnitude,1,3,1 | 3,2,0.065,0.05,incongruent,right,0,58,58,32,1,,,,,,,,,,,,,,,,,,,,,,,,,,,,,,,,,,,,,,,,,,,,,,,,,,,,,,,,,,,,,,,,,,,,,,,,,,,,,,,,,,,,,,,,,,,,,,,,,,,,,,,,,,,,,,,,,,,,,,
,318020814820,ABC,01/10/1996,001,2023-04-03_09h53.15.060,OS3_Mult_verification,2022.2.4,Win32,60.06727535,,,,,,,,,,,,,,,,,,,,,,,,,,,,,,,,,,,right,1,0.7239,,,,,,magnitude,7,9,7 | 9,2,0.065,0.05,incongruent,right,0,59,59,35,1,,,,,,,,,,,,,,,,,,,,,,,,,,,,,,,,,,,,,,,,,,,,,,,,,,,,,,,,,,,,,,,,,,,,,,,,,,,,,,,,,,,,,,,,,,,,,,,,,,,,,,,,,,,,,,,,,,,,,,
,318020814820,ABC,01/10/1996,001,2023-04-03_09h53.15.060,OS3_Mult_verification,2022.2.4,Win32,60.06727535,,,,,,,,,,,,,,,,,,,,,,,,,,,,,,,,,,,right,1,0.584,,,,,,magnitude,1,2,1 | 2,1,0.06,0.06,neutral,right,0,60,60,48,1,,,,,,,,,,,,,,,,,,,,,,,,,,,,,,,,,,,,,,,,,,,,,,,,,,,,,,,,,,,,,,,,,,,,,,,,,,,,,,,,,,,,,,,,,,,,,,,,,,,,,,,,,,,,,,,,,,,,,,
,318020814820,ABC,01/10/1996,001,2023-04-03_09h53.15.060,OS3_Mult_verification,2022.2.4,Win32,60.06727535,,,,,,,,,,,,,,,,,,,,,,,,,,,,,,,,,,,right,1,0.4403,,,,,,magnitude,1,3,1 | 3,2,0.06,0.06,neutral,right,0,61,61,56,1,,,,,,,,,,,,,,,,,,,,,,,,,,,,,,,,,,,,,,,,,,,,,,,,,,,,,,,,,,,,,,,,,,,,,,,,,,,,,,,,,,,,,,,,,,,,,,,,,,,,,,,,,,,,,,,,,,,,,,
,318020814820,ABC,01/10/1996,001,2023-04-03_09h53.15.060,OS3_Mult_verification,2022.2.4,Win32,60.06727535,,,,,,,,,,,,,,,,,,,,,,,,,,,,,,,,,,,left,1,0.5111,,,,,,magnitude,7,2,7 | 2,5,0.065,0.05,congruent,left,0,62,62,21,1,,,,,,,,,,,,,,,,,,,,,,,,,,,,,,,,,,,,,,,,,,,,,,,,,,,,,,,,,,,,,,,,,,,,,,,,,,,,,,,,,,,,,,,,,,,,,,,,,,,,,,,,,,,,,,,,,,,,,,
,318020814820,ABC,01/10/1996,001,2023-04-03_09h53.15.060,OS3_Mult_verification,2022.2.4,Win32,60.06727535,,,,,,,,,,,,,,,,,,,,,,,,,,,,,,,,,,,right,1,0.4519,,,,,,magnitude,3,4,3 | 4,1,0.05,0.065,congruent,right,0,63,63,1,1,,,,,,,,,,,,,,,,,,,,,,,,,,,,,,,,,,,,,,,,,,,,,,,,,,,,,,,,,,,,,,,,,,,,,,,,,,,,,,,,,,,,,,,,,,,,,,,,,,,,,,,,,,,,,,,,,,,,,,
,318020814820,ABC,01/10/1996,001,2023-04-03_09h53.15.060,OS3_Mult_verification,2022.2.4,Win32,60.06727535,,,,,,,,,,,,,,,,,,,,,,,,,,,,,,,,,,,left,1,0.5662,,,,,,magnitude,7,2,7 | 2,5,0.05,0.065,incongruent,left,0,64,64,45,1,,,,,,,,,,,,,,,,,,,,,,,,,,,,,,,,,,,,,,,,,,,,,,,,,,,,,,,,,,,,,,,,,,,,,,,,,,,,,,,,,,,,,,,,,,,,,,,,,,,,,,,,,,,,,,,,,,,,,,
,318020814820,ABC,01/10/1996,001,2023-04-03_09h53.15.060,OS3_Mult_verification,2022.2.4,Win32,60.06727535,,,,,,,,,,,,,,,,,,,,,,,,,,,,,,,,,,,left,1,0.52,,,,,,magnitude,7,6,7 | 6,1,0.065,0.05,congruent,left,0,65,65,6,1,,,,,,,,,,,,,,,,,,,,,,,,,,,,,,,,,,,,,,,,,,,,,,,,,,,,,,,,,,,,,,,,,,,,,,,,,,,,,,,,,,,,,,,,,,,,,,,,,,,,,,,,,,,,,,,,,,,,,,
