windowSize,participant,group,DOB (DD/MM/YEAR),session,date,expName,psychopyVersion,OS,frameRate,typing_instr_resp.keys,typing_instr_resp.rt,typing_response,typing_rt,typing_score,typingSpeed_input_resp.keys,typingSpeed_input_resp.rt,typing_speed_trials.thisRepN,typing_speed_trials.thisTrialN,typing_speed_trials.thisN,typing_speed_trials.thisIndex,typing_speed_trials.ran,typing_speed_stim,typing_report_resp.keys,typing_report_resp.rt,vpt_trial_resp1.keys,vpt_trial_resp1.rt,typedResponse,fluency_rt,fluency_score,fluencyInputResp.keys,fluencyInputResp.rt,fluencyPracLoop.thisRepN,fluencyPracLoop.thisTrialN,fluencyPracLoop.thisN,fluencyPracLoop.thisIndex,fluencyPracLoop.ran,problem,answers,fluencyLoop.thisRepN,fluencyLoop.thisTrialN,fluencyLoop.thisN,fluencyLoop.thisIndex,fluencyLoop.ran,sampleAudio_resp.keys,sampleAudio_resp.rt,subjResponse,audio_rt,DS_score,inputResp.keys,inputResp.rt,audioPracticeLoop.thisRepN,audioPracticeLoop.thisTrialN,audioPracticeLoop.thisN,audioPracticeLoop.thisIndex,audioPracticeLoop.ran,digitSpan,digits_audioStim,soundsFile,typeDS,audioTrials_Loop.thisRepN,audioTrials_Loop.thisTrialN,audioTrials_Loop.thisN,audioTrials_Loop.thisIndex,audioTrials_Loop.ran,audioBlocks_loop.thisRepN,audioBlocks_loop.thisTrialN,audioBlocks_loop.thisN,audioBlocks_loop.thisIndex,audioBlocks_loop.ran,ConditionFile,digitSpanTask_loop.thisRepN,digitSpanTask_loop.thisTrialN,digitSpanTask_loop.thisN,digitSpanTask_loop.thisIndex,digitSpanTask_loop.ran,dsFile,TASK_C.thisRepN,TASK_C.thisTrialN,TASK_C.thisN,TASK_C.thisIndex,TASK_C.ran,controlTaskOrder.thisRepN,controlTaskOrder.thisTrialN,controlTaskOrder.thisN,controlTaskOrder.thisIndex,controlTaskOrder.ran,nRepsTask1,nRepsTask2,nRepsTask3,vptCorrect,vpt_rt,respMouse.x,respMouse.y,respMouse.leftButton,respMouse.midButton,respMouse.rightButton,vptPracticeLoop.thisRepN,vptPracticeLoop.thisTrialN,vptPracticeLoop.thisN,vptPracticeLoop.thisIndex,vptPracticeLoop.ran,trialType,tiles,rows,cols,vptTrialLoop.thisRepN,vptTrialLoop.thisTrialN,vptTrialLoop.thisN,vptTrialLoop.thisIndex,vptTrialLoop.ran,noOfBlocks,TASK_B.thisRepN,TASK_B.thisTrialN,TASK_B.thisN,TASK_B.thisIndex,TASK_B.ran,stroopResp.keys,stroopResp.corr,stroopResp.rt,stroopPracLoop.thisRepN,stroopPracLoop.thisTrialN,stroopPracLoop.thisN,stroopPracLoop.thisIndex,stroopPracLoop.ran,stroopCond,leftNo,rightNo,displayProblem,numDistance,leftNo_size,rightNo_size,Dims,keyAnswer,stroopLoop.thisRepN,stroopLoop.thisTrialN,stroopLoop.thisN,stroopLoop.thisIndex,stroopLoop.ran,stroopBlocks.thisRepN,stroopBlocks.thisTrialN,stroopBlocks.thisN,stroopBlocks.thisIndex,stroopBlocks.ran,stroop_condition,stroop_pracFile,ActionInst,instrImage,TASK_A.thisRepN,TASK_A.thisTrialN,TASK_A.thisN,TASK_A.thisIndex,TASK_A.ran,veriStim_resp.keys,veriStim_resp.corr,veriStim_resp.rt,verificationPracLoop.thisRepN,verificationPracLoop.thisTrialN,verificationPracLoop.thisN,verificationPracLoop.thisIndex,verificationPracLoop.ran,mult_problem,mult_answer,mult_type,error_distance,interferenceScore,problemType,interferenceLevel,problemSize,img_leftButton,img_rightButton,veriLoop.thisRepN,veriLoop.thisTrialN,veriLoop.thisN,veriLoop.thisIndex,veriLoop.ran,veriBlock.thisRepN,veriBlock.thisTrialN,veriBlock.thisN,veriBlock.thisIndex,veriBlock.ran,verificationFiles,end_resp.keys,end_resp.rt
"[1536,714]",857677498017,CBA,05/05/2001,001,2023-04-03_22h39.00.523,OS3_Mult_verification,2022.2.4,Win32,60.06006006,,,,,,,,,,,,,,,,,,,,,,,,,,,,,,,,,,,,,,,,,,,,,,,,,,,,,,,,,,,,,,,,,,,,,,,,,,,,,,,,,,,,,,,,,,,,,,,,,,,,,,,,,,,,,,,,,,,,,,,,,,,,,,,,,,,,,,,,,,,,,,,,,,,,,,,,,,,,,,,,,,,,,,,,,,,,,,
,857677498017,CBA,05/05/2001,001,2023-04-03_22h39.00.523,OS3_Mult_verification,2022.2.4,Win32,60.06006006,,,,,,,,,,,,,,,,,,,,,,,,,,,,,,,,,,,,,,,,,,,,,,,,,,,,,,,,,,,,,,,,,,,,,,,,,,,,,,,,,,,,,,,,,,,,,,,,,,,,,,,,,,,,,,,,,,,,,,,,,,,,,,,,,,,,,,,,,,,,,,,,,,,,,,,,,,,,,,,,,,,,,,,,,,,,,,
,857677498017,CBA,05/05/2001,001,2023-04-03_22h39.00.523,OS3_Mult_verification,2022.2.4,Win32,60.06006006,space,1.4637,,,,,,,,,,,,,,,,,,,,,,,,,,,,,,,,,,,,,,,,,,,,,,,,,,,,,,,,,,,,,,,,,,,,,,,,,,,,,,,,,,,,,,,,,,,,,,,,,,,,,,,,,,,,,,,,,,,,,,,,,,,,,,,,,,,,,,,,,,,,,,,,,,,,,,,,,,,,,,,,,,,,,,,,,,,,
,857677498017,CBA,05/05/2001,001,2023-04-03_22h39.00.523,OS3_Mult_verification,2022.2.4,Win32,60.06006006,,,64,5.3024,1,"[""6"",""4"",""return""]","[2.921600000023844,3.113600000023851,5.268700000047687]",0,0,0,28,1,64,,,,,,,,,,,,,,,,,,,,,,,,,,,,,,,,,,,,,,,,,,,,,,,,,,,,,,,,,,,,,,,,,,,,,,,,,,,,,,,,,,,,,,,,,,,,,,,,,,,,,,,,,,,,,,,,,,,,,,,,,,,,,,,,,,,,,,,,,,,,,,,,,,,,,,,,,,,,,,,,,
,857677498017,CBA,05/05/2001,001,2023-04-03_22h39.00.523,OS3_Mult_verification,2022.2.4,Win32,60.06006006,,,48,1.5749,1,"[""4"",""8"",""return""]","[0.9586000000238499,1.343399999976171,1.5382999999523292]",0,1,1,23,1,48,,,,,,,,,,,,,,,,,,,,,,,,,,,,,,,,,,,,,,,,,,,,,,,,,,,,,,,,,,,,,,,,,,,,,,,,,,,,,,,,,,,,,,,,,,,,,,,,,,,,,,,,,,,,,,,,,,,,,,,,,,,,,,,,,,,,,,,,,,,,,,,,,,,,,,,,,,,,,,,,,
,857677498017,CBA,05/05/2001,001,2023-04-03_22h39.00.523,OS3_Mult_verification,2022.2.4,Win32,60.06006006,,,49,1.2501,1,"[""4"",""9"",""return""]","[0.8012999999523203,0.9332999999523253,1.2041000000238427]",0,2,2,24,1,49,,,,,,,,,,,,,,,,,,,,,,,,,,,,,,,,,,,,,,,,,,,,,,,,,,,,,,,,,,,,,,,,,,,,,,,,,,,,,,,,,,,,,,,,,,,,,,,,,,,,,,,,,,,,,,,,,,,,,,,,,,,,,,,,,,,,,,,,,,,,,,,,,,,,,,,,,,,,,,,,,
,857677498017,CBA,05/05/2001,001,2023-04-03_22h39.00.523,OS3_Mult_verification,2022.2.4,Win32,60.06006006,,,6,1.0499,1,"[""6"",""return""]","[0.8079999999999927,1.0037000000476866]",0,3,3,1,1,6,,,,,,,,,,,,,,,,,,,,,,,,,,,,,,,,,,,,,,,,,,,,,,,,,,,,,,,,,,,,,,,,,,,,,,,,,,,,,,,,,,,,,,,,,,,,,,,,,,,,,,,,,,,,,,,,,,,,,,,,,,,,,,,,,,,,,,,,,,,,,,,,,,,,,,,,,,,,,,,,,
,857677498017,CBA,05/05/2001,001,2023-04-03_22h39.00.523,OS3_Mult_verification,2022.2.4,Win32,60.06006006,,,56,0.9928,1,"[""5"",""6"",""return""]","[0.6438999999761563,0.820999999999998,0.9538999999761586]",0,4,4,26,1,56,,,,,,,,,,,,,,,,,,,,,,,,,,,,,,,,,,,,,,,,,,,,,,,,,,,,,,,,,,,,,,,,,,,,,,,,,,,,,,,,,,,,,,,,,,,,,,,,,,,,,,,,,,,,,,,,,,,,,,,,,,,,,,,,,,,,,,,,,,,,,,,,,,,,,,,,,,,,,,,,,
,857677498017,CBA,05/05/2001,001,2023-04-03_22h39.00.523,OS3_Mult_verification,2022.2.4,Win32,60.06006006,,,12,0.9921,1,"[""1"",""2"",""return""]","[0.6026000000238412,0.7764999999999986,0.9507999999523236]",0,5,5,5,1,12,,,,,,,,,,,,,,,,,,,,,,,,,,,,,,,,,,,,,,,,,,,,,,,,,,,,,,,,,,,,,,,,,,,,,,,,,,,,,,,,,,,,,,,,,,,,,,,,,,,,,,,,,,,,,,,,,,,,,,,,,,,,,,,,,,,,,,,,,,,,,,,,,,,,,,,,,,,,,,,,,
,857677498017,CBA,05/05/2001,001,2023-04-03_22h39.00.523,OS3_Mult_verification,2022.2.4,Win32,60.06006006,,,14,0.9588,1,"[""1"",""4"",""return""]","[0.4917999999523204,0.7423999999761577,0.9173999999761548]",0,6,6,6,1,14,,,,,,,,,,,,,,,,,,,,,,,,,,,,,,,,,,,,,,,,,,,,,,,,,,,,,,,,,,,,,,,,,,,,,,,,,,,,,,,,,,,,,,,,,,,,,,,,,,,,,,,,,,,,,,,,,,,,,,,,,,,,,,,,,,,,,,,,,,,,,,,,,,,,,,,,,,,,,,,,,
,857677498017,CBA,05/05/2001,001,2023-04-03_22h39.00.523,OS3_Mult_verification,2022.2.4,Win32,60.06006006,,,42,1.1728,1,"[""4"",""2"",""return""]","[0.7516999999284764,0.9680999999046378,1.131699999928486]",0,7,7,21,1,42,,,,,,,,,,,,,,,,,,,,,,,,,,,,,,,,,,,,,,,,,,,,,,,,,,,,,,,,,,,,,,,,,,,,,,,,,,,,,,,,,,,,,,,,,,,,,,,,,,,,,,,,,,,,,,,,,,,,,,,,,,,,,,,,,,,,,,,,,,,,,,,,,,,,,,,,,,,,,,,,,
,857677498017,CBA,05/05/2001,001,2023-04-03_22h39.00.523,OS3_Mult_verification,2022.2.4,Win32,60.06006006,,,25,1.1175,1,"[""2"",""5"",""return""]","[0.6338999999761654,0.8856999999284767,1.0675000000000097]",0,8,8,13,1,25,,,,,,,,,,,,,,,,,,,,,,,,,,,,,,,,,,,,,,,,,,,,,,,,,,,,,,,,,,,,,,,,,,,,,,,,,,,,,,,,,,,,,,,,,,,,,,,,,,,,,,,,,,,,,,,,,,,,,,,,,,,,,,,,,,,,,,,,,,,,,,,,,,,,,,,,,,,,,,,,,
,857677498017,CBA,05/05/2001,001,2023-04-03_22h39.00.523,OS3_Mult_verification,2022.2.4,Win32,60.06006006,,,21,1.2186,1,"[""2"",""1"",""return""]","[0.8016999999284735,0.982899999976155,1.1833999999761602]",0,9,9,11,1,21,,,,,,,,,,,,,,,,,,,,,,,,,,,,,,,,,,,,,,,,,,,,,,,,,,,,,,,,,,,,,,,,,,,,,,,,,,,,,,,,,,,,,,,,,,,,,,,,,,,,,,,,,,,,,,,,,,,,,,,,,,,,,,,,,,,,,,,,,,,,,,,,,,,,,,,,,,,,,,,,,
,857677498017,CBA,05/05/2001,001,2023-04-03_22h39.00.523,OS3_Mult_verification,2022.2.4,Win32,60.06006006,,,9,1.4999,1,"[""return"",""9"",""return""]","[0.721800000071525,0.8335000000000008,1.4587000000476849]",0,10,10,3,1,9,,,,,,,,,,,,,,,,,,,,,,,,,,,,,,,,,,,,,,,,,,,,,,,,,,,,,,,,,,,,,,,,,,,,,,,,,,,,,,,,,,,,,,,,,,,,,,,,,,,,,,,,,,,,,,,,,,,,,,,,,,,,,,,,,,,,,,,,,,,,,,,,,,,,,,,,,,,,,,,,,
,857677498017,CBA,05/05/2001,001,2023-04-03_22h39.00.523,OS3_Mult_verification,2022.2.4,Win32,60.06006006,,,35,1.0724,1,"[""3"",""5"",""return""]","[0.7272000000476879,0.9369999999999976,1.0365000000000038]",0,11,11,18,1,35,,,,,,,,,,,,,,,,,,,,,,,,,,,,,,,,,,,,,,,,,,,,,,,,,,,,,,,,,,,,,,,,,,,,,,,,,,,,,,,,,,,,,,,,,,,,,,,,,,,,,,,,,,,,,,,,,,,,,,,,,,,,,,,,,,,,,,,,,,,,,,,,,,,,,,,,,,,,,,,,,
,857677498017,CBA,05/05/2001,001,2023-04-03_22h39.00.523,OS3_Mult_verification,2022.2.4,Win32,60.06006006,,,27,1.1246,1,"[""2"",""7"",""return""]","[0.5863999999761518,0.9818999999761644,1.0750000000000028]",0,12,12,14,1,27,,,,,,,,,,,,,,,,,,,,,,,,,,,,,,,,,,,,,,,,,,,,,,,,,,,,,,,,,,,,,,,,,,,,,,,,,,,,,,,,,,,,,,,,,,,,,,,,,,,,,,,,,,,,,,,,,,,,,,,,,,,,,,,,,,,,,,,,,,,,,,,,,,,,,,,,,,,,,,,,,
,857677498017,CBA,05/05/2001,001,2023-04-03_22h39.00.523,OS3_Mult_verification,2022.2.4,Win32,60.06006006,,,30,1.3947,1,"[""3"",""return"",""0"",""return""]","[0.6656999999284778,0.8659999999999997,0.866299999952318,1.3534999999999968]",0,13,13,16,1,30,,,,,,,,,,,,,,,,,,,,,,,,,,,,,,,,,,,,,,,,,,,,,,,,,,,,,,,,,,,,,,,,,,,,,,,,,,,,,,,,,,,,,,,,,,,,,,,,,,,,,,,,,,,,,,,,,,,,,,,,,,,,,,,,,,,,,,,,,,,,,,,,,,,,,,,,,,,,,,,,,
,857677498017,CBA,05/05/2001,001,2023-04-03_22h39.00.523,OS3_Mult_verification,2022.2.4,Win32,60.06006006,,,36,1.1676,1,"[""3"",""6"",""return""]","[0.6730000000000018,1.0001999999284692,1.1180999999046293]",0,14,14,19,1,36,,,,,,,,,,,,,,,,,,,,,,,,,,,,,,,,,,,,,,,,,,,,,,,,,,,,,,,,,,,,,,,,,,,,,,,,,,,,,,,,,,,,,,,,,,,,,,,,,,,,,,,,,,,,,,,,,,,,,,,,,,,,,,,,,,,,,,,,,,,,,,,,,,,,,,,,,,,,,,,,,
,857677498017,CBA,05/05/2001,001,2023-04-03_22h39.00.523,OS3_Mult_verification,2022.2.4,Win32,60.06006006,,,40,1.0577,1,"[""4"",""0"",""return""]","[0.6418999999761468,0.818199999928467,1.0017999999523113]",0,15,15,20,1,40,,,,,,,,,,,,,,,,,,,,,,,,,,,,,,,,,,,,,,,,,,,,,,,,,,,,,,,,,,,,,,,,,,,,,,,,,,,,,,,,,,,,,,,,,,,,,,,,,,,,,,,,,,,,,,,,,,,,,,,,,,,,,,,,,,,,,,,,,,,,,,,,,,,,,,,,,,,,,,,,,
,857677498017,CBA,05/05/2001,001,2023-04-03_22h39.00.523,OS3_Mult_verification,2022.2.4,Win32,60.06006006,,,20,0.9168,1,"[""2"",""0"",""return""]","[0.5503999999761646,0.6858999999761579,0.8697999999523205]",0,16,16,10,1,20,,,,,,,,,,,,,,,,,,,,,,,,,,,,,,,,,,,,,,,,,,,,,,,,,,,,,,,,,,,,,,,,,,,,,,,,,,,,,,,,,,,,,,,,,,,,,,,,,,,,,,,,,,,,,,,,,,,,,,,,,,,,,,,,,,,,,,,,,,,,,,,,,,,,,,,,,,,,,,,,,
,857677498017,CBA,05/05/2001,001,2023-04-03_22h39.00.523,OS3_Mult_verification,2022.2.4,Win32,60.06006006,,,1,1.0089,0,"[""1"",""return""]","[0.5520999999046268,0.9634999999999962]",0,17,17,9,1,18,,,,,,,,,,,,,,,,,,,,,,,,,,,,,,,,,,,,,,,,,,,,,,,,,,,,,,,,,,,,,,,,,,,,,,,,,,,,,,,,,,,,,,,,,,,,,,,,,,,,,,,,,,,,,,,,,,,,,,,,,,,,,,,,,,,,,,,,,,,,,,,,,,,,,,,,,,,,,,,,,
,857677498017,CBA,05/05/2001,001,2023-04-03_22h39.00.523,OS3_Mult_verification,2022.2.4,Win32,60.06006006,,,32,1.317,1,"[""3"",""2"",""return""]","[0.9758999999761642,1.1406999999284722,1.272299999952324]",0,18,18,17,1,32,,,,,,,,,,,,,,,,,,,,,,,,,,,,,,,,,,,,,,,,,,,,,,,,,,,,,,,,,,,,,,,,,,,,,,,,,,,,,,,,,,,,,,,,,,,,,,,,,,,,,,,,,,,,,,,,,,,,,,,,,,,,,,,,,,,,,,,,,,,,,,,,,,,,,,,,,,,,,,,,,
,857677498017,CBA,05/05/2001,001,2023-04-03_22h39.00.523,OS3_Mult_verification,2022.2.4,Win32,60.06006006,,,28,1.1088,1,"[""2"",""8"",""return""]","[0.5567999999523181,0.9071999999284799,1.0674999999999955]",0,19,19,15,1,28,,,,,,,,,,,,,,,,,,,,,,,,,,,,,,,,,,,,,,,,,,,,,,,,,,,,,,,,,,,,,,,,,,,,,,,,,,,,,,,,,,,,,,,,,,,,,,,,,,,,,,,,,,,,,,,,,,,,,,,,,,,,,,,,,,,,,,,,,,,,,,,,,,,,,,,,,,,,,,,,,
,857677498017,CBA,05/05/2001,001,2023-04-03_22h39.00.523,OS3_Mult_verification,2022.2.4,Win32,60.06006006,,,24,0.8779,1,"[""2"",""4"",""return""]","[0.4878999999761646,0.7178000000715343,0.8343999999761564]",0,20,20,12,1,24,,,,,,,,,,,,,,,,,,,,,,,,,,,,,,,,,,,,,,,,,,,,,,,,,,,,,,,,,,,,,,,,,,,,,,,,,,,,,,,,,,,,,,,,,,,,,,,,,,,,,,,,,,,,,,,,,,,,,,,,,,,,,,,,,,,,,,,,,,,,,,,,,,,,,,,,,,,,,,,,,
,857677498017,CBA,05/05/2001,001,2023-04-03_22h39.00.523,OS3_Mult_verification,2022.2.4,Win32,60.06006006,,,15,1.039,1,"[""1"",""5"",""return""]","[0.5432999999523105,0.8700999999046246,1.0035999999046368]",0,21,21,7,1,15,,,,,,,,,,,,,,,,,,,,,,,,,,,,,,,,,,,,,,,,,,,,,,,,,,,,,,,,,,,,,,,,,,,,,,,,,,,,,,,,,,,,,,,,,,,,,,,,,,,,,,,,,,,,,,,,,,,,,,,,,,,,,,,,,,,,,,,,,,,,,,,,,,,,,,,,,,,,,,,,,
,857677498017,CBA,05/05/2001,001,2023-04-03_22h39.00.523,OS3_Mult_verification,2022.2.4,Win32,60.06006006,,,81,1.134,1,"[""8"",""1"",""return""]","[0.8030000000000115,0.9178000000715372,1.088300000071527]",0,22,22,30,1,81,,,,,,,,,,,,,,,,,,,,,,,,,,,,,,,,,,,,,,,,,,,,,,,,,,,,,,,,,,,,,,,,,,,,,,,,,,,,,,,,,,,,,,,,,,,,,,,,,,,,,,,,,,,,,,,,,,,,,,,,,,,,,,,,,,,,,,,,,,,,,,,,,,,,,,,,,,,,,,,,,
,857677498017,CBA,05/05/2001,001,2023-04-03_22h39.00.523,OS3_Mult_verification,2022.2.4,Win32,60.06006006,,,54,1.0163,1,"[""5"",""4"",""return""]","[0.6702999999523058,0.853699999928466,0.9756999999284659]",0,23,23,25,1,54,,,,,,,,,,,,,,,,,,,,,,,,,,,,,,,,,,,,,,,,,,,,,,,,,,,,,,,,,,,,,,,,,,,,,,,,,,,,,,,,,,,,,,,,,,,,,,,,,,,,,,,,,,,,,,,,,,,,,,,,,,,,,,,,,,,,,,,,,,,,,,,,,,,,,,,,,,,,,,,,,
,857677498017,CBA,05/05/2001,001,2023-04-03_22h39.00.523,OS3_Mult_verification,2022.2.4,Win32,60.06006006,,,45,1.5026,1,"[""3"",""backspace"",""4"",""5"",""return""]","[0.5071000000238399,1.0021000000238445,1.1076000000238366,1.2853000000715298,1.4579999999999984]",0,24,24,22,1,45,,,,,,,,,,,,,,,,,,,,,,,,,,,,,,,,,,,,,,,,,,,,,,,,,,,,,,,,,,,,,,,,,,,,,,,,,,,,,,,,,,,,,,,,,,,,,,,,,,,,,,,,,,,,,,,,,,,,,,,,,,,,,,,,,,,,,,,,,,,,,,,,,,,,,,,,,,,,,,,,,
,857677498017,CBA,05/05/2001,001,2023-04-03_22h39.00.523,OS3_Mult_verification,2022.2.4,Win32,60.06006006,,,16,1.1116,1,"[""1"",""6"",""return""]","[0.5346000000238433,0.9157000000476927,1.0740000000000123]",0,25,25,8,1,16,,,,,,,,,,,,,,,,,,,,,,,,,,,,,,,,,,,,,,,,,,,,,,,,,,,,,,,,,,,,,,,,,,,,,,,,,,,,,,,,,,,,,,,,,,,,,,,,,,,,,,,,,,,,,,,,,,,,,,,,,,,,,,,,,,,,,,,,,,,,,,,,,,,,,,,,,,,,,,,,,
,857677498017,CBA,05/05/2001,001,2023-04-03_22h39.00.523,OS3_Mult_verification,2022.2.4,Win32,60.06006006,,,72,1.4721,1,"[""7"",""2"",""return""]","[1.0404000000953602,1.1747000000476788,1.4204999999999899]",0,26,26,29,1,72,,,,,,,,,,,,,,,,,,,,,,,,,,,,,,,,,,,,,,,,,,,,,,,,,,,,,,,,,,,,,,,,,,,,,,,,,,,,,,,,,,,,,,,,,,,,,,,,,,,,,,,,,,,,,,,,,,,,,,,,,,,,,,,,,,,,,,,,,,,,,,,,,,,,,,,,,,,,,,,,,
,857677498017,CBA,05/05/2001,001,2023-04-03_22h39.00.523,OS3_Mult_verification,2022.2.4,Win32,60.06006006,,,4,0.8665,1,"[""4"",""return""]","[0.6420000000000101,0.8221000000238519]",0,27,27,0,1,4,,,,,,,,,,,,,,,,,,,,,,,,,,,,,,,,,,,,,,,,,,,,,,,,,,,,,,,,,,,,,,,,,,,,,,,,,,,,,,,,,,,,,,,,,,,,,,,,,,,,,,,,,,,,,,,,,,,,,,,,,,,,,,,,,,,,,,,,,,,,,,,,,,,,,,,,,,,,,,,,,
,857677498017,CBA,05/05/2001,001,2023-04-03_22h39.00.523,OS3_Mult_verification,2022.2.4,Win32,60.06006006,,,63,1.3002,1,"[""6"",""3"",""return""]","[0.8373999999761708,1.0845000000000056,1.266699999928477]",0,28,28,27,1,63,,,,,,,,,,,,,,,,,,,,,,,,,,,,,,,,,,,,,,,,,,,,,,,,,,,,,,,,,,,,,,,,,,,,,,,,,,,,,,,,,,,,,,,,,,,,,,,,,,,,,,,,,,,,,,,,,,,,,,,,,,,,,,,,,,,,,,,,,,,,,,,,,,,,,,,,,,,,,,,,,
,857677498017,CBA,05/05/2001,001,2023-04-03_22h39.00.523,OS3_Mult_verification,2022.2.4,Win32,60.06006006,,,10,1.1499,1,"[""1"",""0"",""return""]","[0.6844999999999999,0.8346000000238405,1.1132000000476836]",0,29,29,4,1,10,,,,,,,,,,,,,,,,,,,,,,,,,,,,,,,,,,,,,,,,,,,,,,,,,,,,,,,,,,,,,,,,,,,,,,,,,,,,,,,,,,,,,,,,,,,,,,,,,,,,,,,,,,,,,,,,,,,,,,,,,,,,,,,,,,,,,,,,,,,,,,,,,,,,,,,,,,,,,,,,,
,857677498017,CBA,05/05/2001,001,2023-04-03_22h39.00.523,OS3_Mult_verification,2022.2.4,Win32,60.06006006,,,8,1.1,1,"[""8"",""return""]","[0.917500000000004,1.05539999997616]",0,30,30,2,1,8,,,,,,,,,,,,,,,,,,,,,,,,,,,,,,,,,,,,,,,,,,,,,,,,,,,,,,,,,,,,,,,,,,,,,,,,,,,,,,,,,,,,,,,,,,,,,,,,,,,,,,,,,,,,,,,,,,,,,,,,,,,,,,,,,,,,,,,,,,,,,,,,,,,,,,,,,,,,,,,,,
,857677498017,CBA,05/05/2001,001,2023-04-03_22h39.00.523,OS3_Mult_verification,2022.2.4,Win32,60.06006006,,,9,0.9087,1,"[""9"",""return""]","[0.7199999999999989,0.8700000000000045]",1,0,31,3,1,9,,,,,,,,,,,,,,,,,,,,,,,,,,,,,,,,,,,,,,,,,,,,,,,,,,,,,,,,,,,,,,,,,,,,,,,,,,,,,,,,,,,,,,,,,,,,,,,,,,,,,,,,,,,,,,,,,,,,,,,,,,,,,,,,,,,,,,,,,,,,,,,,,,,,,,,,,,,,,,,,,
,857677498017,CBA,05/05/2001,001,2023-04-03_22h39.00.523,OS3_Mult_verification,2022.2.4,Win32,60.06006006,,,49,1.4336,1,"[""4"",""9"",""return""]","[0.9351999999284715,1.068399999976151,1.384699999928472]",1,1,32,24,1,49,,,,,,,,,,,,,,,,,,,,,,,,,,,,,,,,,,,,,,,,,,,,,,,,,,,,,,,,,,,,,,,,,,,,,,,,,,,,,,,,,,,,,,,,,,,,,,,,,,,,,,,,,,,,,,,,,,,,,,,,,,,,,,,,,,,,,,,,,,,,,,,,,,,,,,,,,,,,,,,,,
,857677498017,CBA,05/05/2001,001,2023-04-03_22h39.00.523,OS3_Mult_verification,2022.2.4,Win32,60.06006006,,,8,1.0498,1,"[""8"",""return""]","[0.8234999999999957,1.0018999999761604]",1,2,33,2,1,8,,,,,,,,,,,,,,,,,,,,,,,,,,,,,,,,,,,,,,,,,,,,,,,,,,,,,,,,,,,,,,,,,,,,,,,,,,,,,,,,,,,,,,,,,,,,,,,,,,,,,,,,,,,,,,,,,,,,,,,,,,,,,,,,,,,,,,,,,,,,,,,,,,,,,,,,,,,,,,,,,
,857677498017,CBA,05/05/2001,001,2023-04-03_22h39.00.523,OS3_Mult_verification,2022.2.4,Win32,60.06006006,,,72,1.5172,1,"[""7"",""2"",""return""]","[0.9707999999523338,1.2761000000238596,1.4702999999523172]",1,3,34,29,1,72,,,,,,,,,,,,,,,,,,,,,,,,,,,,,,,,,,,,,,,,,,,,,,,,,,,,,,,,,,,,,,,,,,,,,,,,,,,,,,,,,,,,,,,,,,,,,,,,,,,,,,,,,,,,,,,,,,,,,,,,,,,,,,,,,,,,,,,,,,,,,,,,,,,,,,,,,,,,,,,,,
,857677498017,CBA,05/05/2001,001,2023-04-03_22h39.00.523,OS3_Mult_verification,2022.2.4,Win32,60.06006006,,,54,0.9607,1,"[""5"",""4"",""return""]","[0.6501000000238548,0.8467000000476901,0.9202000000476858]",1,4,35,25,1,54,,,,,,,,,,,,,,,,,,,,,,,,,,,,,,,,,,,,,,,,,,,,,,,,,,,,,,,,,,,,,,,,,,,,,,,,,,,,,,,,,,,,,,,,,,,,,,,,,,,,,,,,,,,,,,,,,,,,,,,,,,,,,,,,,,,,,,,,,,,,,,,,,,,,,,,,,,,,,,,,,
,857677498017,CBA,05/05/2001,001,2023-04-03_22h39.00.523,OS3_Mult_verification,2022.2.4,Win32,60.06006006,,,20,1.175,1,"[""2"",""0"",""return""]","[0.5881999999284488,0.8357999999523003,1.1338999999761228]",1,5,36,10,1,20,,,,,,,,,,,,,,,,,,,,,,,,,,,,,,,,,,,,,,,,,,,,,,,,,,,,,,,,,,,,,,,,,,,,,,,,,,,,,,,,,,,,,,,,,,,,,,,,,,,,,,,,,,,,,,,,,,,,,,,,,,,,,,,,,,,,,,,,,,,,,,,,,,,,,,,,,,,,,,,,,
,857677498017,CBA,05/05/2001,001,2023-04-03_22h39.00.523,OS3_Mult_verification,2022.2.4,Win32,60.06006006,,,40,1.1757,1,"[""4"",""0"",""return""]","[0.6873999999761509,0.8111000000238562,1.1206000000238419]",1,6,37,20,1,40,,,,,,,,,,,,,,,,,,,,,,,,,,,,,,,,,,,,,,,,,,,,,,,,,,,,,,,,,,,,,,,,,,,,,,,,,,,,,,,,,,,,,,,,,,,,,,,,,,,,,,,,,,,,,,,,,,,,,,,,,,,,,,,,,,,,,,,,,,,,,,,,,,,,,,,,,,,,,,,,,
,857677498017,CBA,05/05/2001,001,2023-04-03_22h39.00.523,OS3_Mult_verification,2022.2.4,Win32,60.06006006,,,15,1.0334,1,"[""1"",""5"",""return""]","[0.5202000000476801,0.815200000047696,0.9877999999523297]",1,7,38,7,1,15,,,,,,,,,,,,,,,,,,,,,,,,,,,,,,,,,,,,,,,,,,,,,,,,,,,,,,,,,,,,,,,,,,,,,,,,,,,,,,,,,,,,,,,,,,,,,,,,,,,,,,,,,,,,,,,,,,,,,,,,,,,,,,,,,,,,,,,,,,,,,,,,,,,,,,,,,,,,,,,,,
,857677498017,CBA,05/05/2001,001,2023-04-03_22h39.00.523,OS3_Mult_verification,2022.2.4,Win32,60.06006006,,,64,1.217,1,"[""6"",""4"",""return""]","[0.820699999928479,0.9200000000000159,1.1711999999284899]",1,8,39,28,1,64,,,,,,,,,,,,,,,,,,,,,,,,,,,,,,,,,,,,,,,,,,,,,,,,,,,,,,,,,,,,,,,,,,,,,,,,,,,,,,,,,,,,,,,,,,,,,,,,,,,,,,,,,,,,,,,,,,,,,,,,,,,,,,,,,,,,,,,,,,,,,,,,,,,,,,,,,,,,,,,,,
,857677498017,CBA,05/05/2001,001,2023-04-03_22h39.00.523,OS3_Mult_verification,2022.2.4,Win32,60.06006006,,,56,0.9248,1,"[""5"",""6"",""return""]","[0.5981000000238339,0.7997999999523131,0.8849999999999909]",1,9,40,26,1,56,,,,,,,,,,,,,,,,,,,,,,,,,,,,,,,,,,,,,,,,,,,,,,,,,,,,,,,,,,,,,,,,,,,,,,,,,,,,,,,,,,,,,,,,,,,,,,,,,,,,,,,,,,,,,,,,,,,,,,,,,,,,,,,,,,,,,,,,,,,,,,,,,,,,,,,,,,,,,,,,,
,857677498017,CBA,05/05/2001,001,2023-04-03_22h39.00.523,OS3_Mult_verification,2022.2.4,Win32,60.06006006,,,35,1.1089,1,"[""3"",""5"",""return""]","[0.7109999999999843,0.9212999999523106,1.0676999999284646]",1,10,41,18,1,35,,,,,,,,,,,,,,,,,,,,,,,,,,,,,,,,,,,,,,,,,,,,,,,,,,,,,,,,,,,,,,,,,,,,,,,,,,,,,,,,,,,,,,,,,,,,,,,,,,,,,,,,,,,,,,,,,,,,,,,,,,,,,,,,,,,,,,,,,,,,,,,,,,,,,,,,,,,,,,,,,
,857677498017,CBA,05/05/2001,001,2023-04-03_22h39.00.523,OS3_Mult_verification,2022.2.4,Win32,60.06006006,,,32,1.1168,1,"[""3"",""2"",""return""]","[0.7669999999999959,0.9503999999761561,1.0867000000476708]",1,11,42,17,1,32,,,,,,,,,,,,,,,,,,,,,,,,,,,,,,,,,,,,,,,,,,,,,,,,,,,,,,,,,,,,,,,,,,,,,,,,,,,,,,,,,,,,,,,,,,,,,,,,,,,,,,,,,,,,,,,,,,,,,,,,,,,,,,,,,,,,,,,,,,,,,,,,,,,,,,,,,,,,,,,,,
,857677498017,CBA,05/05/2001,001,2023-04-03_22h39.00.523,OS3_Mult_verification,2022.2.4,Win32,60.06006006,,,18,1.0413,1,"[""1"",""8"",""return""]","[0.5068000000715074,0.8867000000476821,1.0038000000715215]",1,12,43,9,1,18,,,,,,,,,,,,,,,,,,,,,,,,,,,,,,,,,,,,,,,,,,,,,,,,,,,,,,,,,,,,,,,,,,,,,,,,,,,,,,,,,,,,,,,,,,,,,,,,,,,,,,,,,,,,,,,,,,,,,,,,,,,,,,,,,,,,,,,,,,,,,,,,,,,,,,,,,,,,,,,,,
,857677498017,CBA,05/05/2001,001,2023-04-03_22h39.00.523,OS3_Mult_verification,2022.2.4,Win32,60.06006006,,,48,1.1175,1,"[""4"",""8"",""return""]","[0.6231000000238396,0.9531000000238237,1.0702999999523115]",1,13,44,23,1,48,,,,,,,,,,,,,,,,,,,,,,,,,,,,,,,,,,,,,,,,,,,,,,,,,,,,,,,,,,,,,,,,,,,,,,,,,,,,,,,,,,,,,,,,,,,,,,,,,,,,,,,,,,,,,,,,,,,,,,,,,,,,,,,,,,,,,,,,,,,,,,,,,,,,,,,,,,,,,,,,,
,857677498017,CBA,05/05/2001,001,2023-04-03_22h39.00.523,OS3_Mult_verification,2022.2.4,Win32,60.06006006,,,16,1.106,1,"[""1"",""6"",""return""]","[0.6068999999761502,0.9026000000238241,1.0576000000238253]",1,14,45,8,1,16,,,,,,,,,,,,,,,,,,,,,,,,,,,,,,,,,,,,,,,,,,,,,,,,,,,,,,,,,,,,,,,,,,,,,,,,,,,,,,,,,,,,,,,,,,,,,,,,,,,,,,,,,,,,,,,,,,,,,,,,,,,,,,,,,,,,,,,,,,,,,,,,,,,,,,,,,,,,,,,,,
,857677498017,CBA,05/05/2001,001,2023-04-03_22h39.00.523,OS3_Mult_verification,2022.2.4,Win32,60.06006006,,,36,1.1583,1,"[""3"",""6"",""return""]","[0.6364999999999839,0.8868999999761513,1.116799999952292]",1,15,46,19,1,36,,,,,,,,,,,,,,,,,,,,,,,,,,,,,,,,,,,,,,,,,,,,,,,,,,,,,,,,,,,,,,,,,,,,,,,,,,,,,,,,,,,,,,,,,,,,,,,,,,,,,,,,,,,,,,,,,,,,,,,,,,,,,,,,,,,,,,,,,,,,,,,,,,,,,,,,,,,,,,,,,
,857677498017,CBA,05/05/2001,001,2023-04-03_22h39.00.523,OS3_Mult_verification,2022.2.4,Win32,60.06006006,,,24,1.0168,1,"[""2"",""4"",""return""]","[0.5591999999284951,0.7890000000000157,0.9703999999761663]",1,16,47,12,1,24,,,,,,,,,,,,,,,,,,,,,,,,,,,,,,,,,,,,,,,,,,,,,,,,,,,,,,,,,,,,,,,,,,,,,,,,,,,,,,,,,,,,,,,,,,,,,,,,,,,,,,,,,,,,,,,,,,,,,,,,,,,,,,,,,,,,,,,,,,,,,,,,,,,,,,,,,,,,,,,,,
,857677498017,CBA,05/05/2001,001,2023-04-03_22h39.00.523,OS3_Mult_verification,2022.2.4,Win32,60.06006006,,,4,0.892,1,"[""4"",""return""]","[0.6388999999761609,0.85089999997615]",1,17,48,0,1,4,,,,,,,,,,,,,,,,,,,,,,,,,,,,,,,,,,,,,,,,,,,,,,,,,,,,,,,,,,,,,,,,,,,,,,,,,,,,,,,,,,,,,,,,,,,,,,,,,,,,,,,,,,,,,,,,,,,,,,,,,,,,,,,,,,,,,,,,,,,,,,,,,,,,,,,,,,,,,,,,,
,857677498017,CBA,05/05/2001,001,2023-04-03_22h39.00.523,OS3_Mult_verification,2022.2.4,Win32,60.06006006,,,30,1.1335,1,"[""3"",""0"",""return""]","[0.6487000000476826,0.7987999999523083,1.0888999999761495]",1,18,49,16,1,30,,,,,,,,,,,,,,,,,,,,,,,,,,,,,,,,,,,,,,,,,,,,,,,,,,,,,,,,,,,,,,,,,,,,,,,,,,,,,,,,,,,,,,,,,,,,,,,,,,,,,,,,,,,,,,,,,,,,,,,,,,,,,,,,,,,,,,,,,,,,,,,,,,,,,,,,,,,,,,,,,
,857677498017,CBA,05/05/2001,001,2023-04-03_22h39.00.523,OS3_Mult_verification,2022.2.4,Win32,60.06006006,,,10,1.0245,1,"[""1"",""0"",""return""]","[0.5407000000476785,0.7056000000238498,0.9912000000476837]",1,19,50,4,1,10,,,,,,,,,,,,,,,,,,,,,,,,,,,,,,,,,,,,,,,,,,,,,,,,,,,,,,,,,,,,,,,,,,,,,,,,,,,,,,,,,,,,,,,,,,,,,,,,,,,,,,,,,,,,,,,,,,,,,,,,,,,,,,,,,,,,,,,,,,,,,,,,,,,,,,,,,,,,,,,,,
,857677498017,CBA,05/05/2001,001,2023-04-03_22h39.00.523,OS3_Mult_verification,2022.2.4,Win32,60.06006006,,,28,1.3005,1,"[""2"",""8"",""return""]","[0.7212000000476735,1.0910000000000082,1.2541000000238398]",1,20,51,15,1,28,,,,,,,,,,,,,,,,,,,,,,,,,,,,,,,,,,,,,,,,,,,,,,,,,,,,,,,,,,,,,,,,,,,,,,,,,,,,,,,,,,,,,,,,,,,,,,,,,,,,,,,,,,,,,,,,,,,,,,,,,,,,,,,,,,,,,,,,,,,,,,,,,,,,,,,,,,,,,,,,,
,857677498017,CBA,05/05/2001,001,2023-04-03_22h39.00.523,OS3_Mult_verification,2022.2.4,Win32,60.06006006,,,27,1.6894,1,"[""3"",""backspace"",""2"",""7"",""return""]","[0.5716000000238637,1.0080000000000098,1.170300000071535,1.5037000000477008,1.6382000000477035]",1,21,52,14,1,27,,,,,,,,,,,,,,,,,,,,,,,,,,,,,,,,,,,,,,,,,,,,,,,,,,,,,,,,,,,,,,,,,,,,,,,,,,,,,,,,,,,,,,,,,,,,,,,,,,,,,,,,,,,,,,,,,,,,,,,,,,,,,,,,,,,,,,,,,,,,,,,,,,,,,,,,,,,,,,,,,
,857677498017,CBA,05/05/2001,001,2023-04-03_22h39.00.523,OS3_Mult_verification,2022.2.4,Win32,60.06006006,,,42,1.0501,1,"[""4"",""2"",""return""]","[0.7042000000476776,0.87110000002383,1.0108000000715265]",1,22,53,21,1,42,,,,,,,,,,,,,,,,,,,,,,,,,,,,,,,,,,,,,,,,,,,,,,,,,,,,,,,,,,,,,,,,,,,,,,,,,,,,,,,,,,,,,,,,,,,,,,,,,,,,,,,,,,,,,,,,,,,,,,,,,,,,,,,,,,,,,,,,,,,,,,,,,,,,,,,,,,,,,,,,,
,857677498017,CBA,05/05/2001,001,2023-04-03_22h39.00.523,OS3_Mult_verification,2022.2.4,Win32,60.06006006,,,45,1.2611,1,"[""4"",""5"",""return""]","[0.7231000000238339,1.0506000000238203,1.2178999999761402]",1,23,54,22,1,45,,,,,,,,,,,,,,,,,,,,,,,,,,,,,,,,,,,,,,,,,,,,,,,,,,,,,,,,,,,,,,,,,,,,,,,,,,,,,,,,,,,,,,,,,,,,,,,,,,,,,,,,,,,,,,,,,,,,,,,,,,,,,,,,,,,,,,,,,,,,,,,,,,,,,,,,,,,,,,,,,
,857677498017,CBA,05/05/2001,001,2023-04-03_22h39.00.523,OS3_Mult_verification,2022.2.4,Win32,60.06006006,,,63,1.3508,1,"[""6"",""3"",""return""]","[0.9876000000238605,1.1198999999761554,1.3105000000000189]",1,24,55,27,1,63,,,,,,,,,,,,,,,,,,,,,,,,,,,,,,,,,,,,,,,,,,,,,,,,,,,,,,,,,,,,,,,,,,,,,,,,,,,,,,,,,,,,,,,,,,,,,,,,,,,,,,,,,,,,,,,,,,,,,,,,,,,,,,,,,,,,,,,,,,,,,,,,,,,,,,,,,,,,,,,,,
,857677498017,CBA,05/05/2001,001,2023-04-03_22h39.00.523,OS3_Mult_verification,2022.2.4,Win32,60.06006006,,,25,1.1167,1,"[""2"",""5"",""return""]","[0.5677000000476653,0.873500000000007,1.068600000023821]",1,25,56,13,1,25,,,,,,,,,,,,,,,,,,,,,,,,,,,,,,,,,,,,,,,,,,,,,,,,,,,,,,,,,,,,,,,,,,,,,,,,,,,,,,,,,,,,,,,,,,,,,,,,,,,,,,,,,,,,,,,,,,,,,,,,,,,,,,,,,,,,,,,,,,,,,,,,,,,,,,,,,,,,,,,,,
,857677498017,CBA,05/05/2001,001,2023-04-03_22h39.00.523,OS3_Mult_verification,2022.2.4,Win32,60.06006006,,,14,1.5422,1,"[""1"",""4"",""return""]","[0.7002999999523354,1.0076000000238423,1.484499999999997]",1,26,57,6,1,14,,,,,,,,,,,,,,,,,,,,,,,,,,,,,,,,,,,,,,,,,,,,,,,,,,,,,,,,,,,,,,,,,,,,,,,,,,,,,,,,,,,,,,,,,,,,,,,,,,,,,,,,,,,,,,,,,,,,,,,,,,,,,,,,,,,,,,,,,,,,,,,,,,,,,,,,,,,,,,,,,
,857677498017,CBA,05/05/2001,001,2023-04-03_22h39.00.523,OS3_Mult_verification,2022.2.4,Win32,60.06006006,,,81,1.8834,1,"[""8"",""1"",""return""]","[1.1884999999999764,1.2939999999999827,1.839600000023836]",1,27,58,30,1,81,,,,,,,,,,,,,,,,,,,,,,,,,,,,,,,,,,,,,,,,,,,,,,,,,,,,,,,,,,,,,,,,,,,,,,,,,,,,,,,,,,,,,,,,,,,,,,,,,,,,,,,,,,,,,,,,,,,,,,,,,,,,,,,,,,,,,,,,,,,,,,,,,,,,,,,,,,,,,,,,,
,857677498017,CBA,05/05/2001,001,2023-04-03_22h39.00.523,OS3_Mult_verification,2022.2.4,Win32,60.06006006,,,12,0.9341,1,"[""1"",""2"",""return""]","[0.4644999999999868,0.7338999999761597,0.8888999999761609]",1,28,59,5,1,12,,,,,,,,,,,,,,,,,,,,,,,,,,,,,,,,,,,,,,,,,,,,,,,,,,,,,,,,,,,,,,,,,,,,,,,,,,,,,,,,,,,,,,,,,,,,,,,,,,,,,,,,,,,,,,,,,,,,,,,,,,,,,,,,,,,,,,,,,,,,,,,,,,,,,,,,,,,,,,,,,
,857677498017,CBA,05/05/2001,001,2023-04-03_22h39.00.523,OS3_Mult_verification,2022.2.4,Win32,60.06006006,,,21,0.9583,1,"[""2"",""1"",""return""]","[0.5588999999761484,0.754299999952309,0.9178999999761572]",1,29,60,11,1,21,,,,,,,,,,,,,,,,,,,,,,,,,,,,,,,,,,,,,,,,,,,,,,,,,,,,,,,,,,,,,,,,,,,,,,,,,,,,,,,,,,,,,,,,,,,,,,,,,,,,,,,,,,,,,,,,,,,,,,,,,,,,,,,,,,,,,,,,,,,,,,,,,,,,,,,,,,,,,,,,,
,857677498017,CBA,05/05/2001,001,2023-04-03_22h39.00.523,OS3_Mult_verification,2022.2.4,Win32,60.06006006,,,6,0.9162,1,"[""6"",""return""]","[0.7162999999523265,0.8663999999761529]",1,30,61,1,1,6,,,,,,,,,,,,,,,,,,,,,,,,,,,,,,,,,,,,,,,,,,,,,,,,,,,,,,,,,,,,,,,,,,,,,,,,,,,,,,,,,,,,,,,,,,,,,,,,,,,,,,,,,,,,,,,,,,,,,,,,,,,,,,,,,,,,,,,,,,,,,,,,,,,,,,,,,,,,,,,,,
,857677498017,CBA,05/05/2001,001,2023-04-03_22h39.00.523,OS3_Mult_verification,2022.2.4,Win32,60.06006006,,,,,,,,,,,,,,space,2.7387,,,,,,,,,,,,,,,,,,,,,,,,,,,,,,,,,,,,,,,,,,,,,,,,,,,,,,,,,,,,,,,,,,,,,,,,,,,,,,,,,,,,,,,,,,,,,,,,,,,,,,,,,,,,,,,,,,,,,,,,,,,,,,,,,,,,,,,,,,,,,,,,,,,,,,,,,,,,,,,
,857677498017,CBA,05/05/2001,001,2023-04-03_22h39.00.523,OS3_Mult_verification,2022.2.4,Win32,60.06006006,,,,,,,,,,,,,,,,,,,,,,,,,,,,,,,,,,,,,,,,,,,,,,,,,,,,,,,,,,,,,,,,,,,,,,,,,,,,,,,,,,,,,,,,,,,,,,,,,,,,,,,,,,,,,,,,,,,,,,,,,,,,,,,,,,,,,,,,,,,,,,,,,,,,,,,,,,,,,,,,,,,,,,,,,,,,,,
,857677498017,CBA,05/05/2001,001,2023-04-03_22h39.00.523,OS3_Mult_verification,2022.2.4,Win32,60.06006006,,,,,,,,,,,,,,,,space,1.6895,,,,,,,,,,,,,,,,,,,,,,,,,,,,,,,,,,,,,,,,,,,,,,,,,,,,,,,,,,,,,,,,,,,,,,,,,,,,,,,,,,,,,,,,,,,,,,,,,,,,,,,,,,,,,,,,,,,,,,,,,,,,,,,,,,,,,,,,,,,,,,,,,,,,,,,,,,,,,
,857677498017,CBA,05/05/2001,001,2023-04-03_22h39.00.523,OS3_Mult_verification,2022.2.4,Win32,60.06006006,,,,,,,,,,,,,,,,,,22,1.6914,1,"[""2"",""2"",""return""]","[1.1050000000000182,1.25389999997617,1.4050000000000011]",0,0,0,2,1,2 × 11 =,22,,,,,,,,,,,,,,,,,,,,,,,,,,,,,,,,,,,,,,,,,,,,,,,,,,,,,,,,,,,,,,,,,,,,,,,,,,,,,,,,,,,,,,,,,,,,,,,,,,,,,,,,,,,,,,,,,,,,,,,,,,,,,,,,,,,,,,,,,,,,,,,,,
,857677498017,CBA,05/05/2001,001,2023-04-03_22h39.00.523,OS3_Mult_verification,2022.2.4,Win32,60.06006006,,,,,,,,,,,,,,,,,,20,1.8199,1,"[""2"",""0"",""return""]","[0.8645000000000209,1.2071000000238428,1.5331000000238646]",0,1,1,1,1,2 × 10 =,20,,,,,,,,,,,,,,,,,,,,,,,,,,,,,,,,,,,,,,,,,,,,,,,,,,,,,,,,,,,,,,,,,,,,,,,,,,,,,,,,,,,,,,,,,,,,,,,,,,,,,,,,,,,,,,,,,,,,,,,,,,,,,,,,,,,,,,,,,,,,,,,,,
,857677498017,CBA,05/05/2001,001,2023-04-03_22h39.00.523,OS3_Mult_verification,2022.2.4,Win32,60.06006006,,,,,,,,,,,,,,,,,,7,1.4162,1,"[""7"",""return""]","[0.9644000000953667,1.1163000000715044]",0,2,2,0,1,1 × 7 =,7,,,,,,,,,,,,,,,,,,,,,,,,,,,,,,,,,,,,,,,,,,,,,,,,,,,,,,,,,,,,,,,,,,,,,,,,,,,,,,,,,,,,,,,,,,,,,,,,,,,,,,,,,,,,,,,,,,,,,,,,,,,,,,,,,,,,,,,,,,,,,,,,,
,857677498017,CBA,05/05/2001,001,2023-04-03_22h39.00.523,OS3_Mult_verification,2022.2.4,Win32,60.06006006,,,,,,,,,,,,,,,,,,,,,,,,,,,,,,,,,,,,,,,,,,,,,,,,,,,,,,,,,,,,,,,,,,,,,,,,,,,,,,,,,,,,,,,,,,,,,,,,,,,,,,,,,,,,,,,,,,,,,,,,,,,,,,,,,,,,,,,,,,,,,,,,,,,,,,,,,,,,,,,,,,,,,,,,,,,,,,
,857677498017,CBA,05/05/2001,001,2023-04-03_22h39.00.523,OS3_Mult_verification,2022.2.4,Win32,60.06006006,,,,,,,,,,,,,,,,,,,,,,,,,,,,,,,,,,,,,,,,,,,,,,,,,,,,,,,,,,,,,,,,,,,,,,,,,,,,,,,,,,,,,,,,,,,,,,,,,,,,,,,,,,,,,,,,,,,,,,,,,,,,,,,,,,,,,,,,,,,,,,,,,,,,,,,,,,,,,,,,,,,,,,,,,,,,,,
,857677498017,CBA,05/05/2001,001,2023-04-03_22h39.00.523,OS3_Mult_verification,2022.2.4,Win32,60.06006006,,,,,,,,,,,,,,,,,,6,1.431,1,"[""6"",""return""]","[0.998500000000007,1.13510000002384]",,,,,,2 × 3 =,6,0,0,0,0,1,,,,,,,,,,,,,,,,,,,,,,,,,,,,,,,,,,,,,,,,,,,,,,,,,,,,,,,,,,,,,,,,,,,,,,,,,,,,,,,,,,,,,,,,,,,,,,,,,,,,,,,,,,,,,,,,,,,,,,,,,,,,,,,,,,,,,,,,,,,,
,857677498017,CBA,05/05/2001,001,2023-04-03_22h39.00.523,OS3_Mult_verification,2022.2.4,Win32,60.06006006,,,,,,,,,,,,,,,,,,40,1.683,1,"[""4"",""0"",""return""]","[0.9653000000715224,1.0838000000715056,1.3871000000238212]",,,,,,5 × 8 =,40,0,1,1,1,1,,,,,,,,,,,,,,,,,,,,,,,,,,,,,,,,,,,,,,,,,,,,,,,,,,,,,,,,,,,,,,,,,,,,,,,,,,,,,,,,,,,,,,,,,,,,,,,,,,,,,,,,,,,,,,,,,,,,,,,,,,,,,,,,,,,,,,,,,,,,
,857677498017,CBA,05/05/2001,001,2023-04-03_22h39.00.523,OS3_Mult_verification,2022.2.4,Win32,60.06006006,,,,,,,,,,,,,,,,,,12,1.8497,1,"[""1"",""2"",""return""]","[1.2680000000000007,1.4201000000238366,1.54849999999999]",,,,,,3 × 4 =,12,0,2,2,2,1,,,,,,,,,,,,,,,,,,,,,,,,,,,,,,,,,,,,,,,,,,,,,,,,,,,,,,,,,,,,,,,,,,,,,,,,,,,,,,,,,,,,,,,,,,,,,,,,,,,,,,,,,,,,,,,,,,,,,,,,,,,,,,,,,,,,,,,,,,,,
,857677498017,CBA,05/05/2001,001,2023-04-03_22h39.00.523,OS3_Mult_verification,2022.2.4,Win32,60.06006006,,,,,,,,,,,,,,,,,,15,1.4499,1,"[""1"",""5"",""return""]","[0.7450000000000045,1.0204999999999984,1.1507000000476921]",,,,,,5 × 3 =,15,0,3,3,3,1,,,,,,,,,,,,,,,,,,,,,,,,,,,,,,,,,,,,,,,,,,,,,,,,,,,,,,,,,,,,,,,,,,,,,,,,,,,,,,,,,,,,,,,,,,,,,,,,,,,,,,,,,,,,,,,,,,,,,,,,,,,,,,,,,,,,,,,,,,,,
,857677498017,CBA,05/05/2001,001,2023-04-03_22h39.00.523,OS3_Mult_verification,2022.2.4,Win32,60.06006006,,,,,,,,,,,,,,,,,,8,1.4663,1,"[""8"",""return""]","[1.0147999999523165,1.1648999999761713]",,,,,,2 × 4 =,8,0,4,4,4,1,,,,,,,,,,,,,,,,,,,,,,,,,,,,,,,,,,,,,,,,,,,,,,,,,,,,,,,,,,,,,,,,,,,,,,,,,,,,,,,,,,,,,,,,,,,,,,,,,,,,,,,,,,,,,,,,,,,,,,,,,,,,,,,,,,,,,,,,,,,,
,857677498017,CBA,05/05/2001,001,2023-04-03_22h39.00.523,OS3_Mult_verification,2022.2.4,Win32,60.06006006,,,,,,,,,,,,,,,,,,4,1.7999,1,"[""3"",""backspace"",""4"",""return""]","[0.6643999999761547,1.1666000000238341,1.2808999999761568,1.498399999976158]",,,,,,2 × 2 =,4,0,5,5,5,1,,,,,,,,,,,,,,,,,,,,,,,,,,,,,,,,,,,,,,,,,,,,,,,,,,,,,,,,,,,,,,,,,,,,,,,,,,,,,,,,,,,,,,,,,,,,,,,,,,,,,,,,,,,,,,,,,,,,,,,,,,,,,,,,,,,,,,,,,,,,
,857677498017,CBA,05/05/2001,001,2023-04-03_22h39.00.523,OS3_Mult_verification,2022.2.4,Win32,60.06006006,,,,,,,,,,,,,,,,,,20,1.7999,1,"[""2"",""0"",""return""]","[0.9866999999284758,1.1483999999761352,1.498899999976146]",,,,,,4 × 5 =,20,0,6,6,6,1,,,,,,,,,,,,,,,,,,,,,,,,,,,,,,,,,,,,,,,,,,,,,,,,,,,,,,,,,,,,,,,,,,,,,,,,,,,,,,,,,,,,,,,,,,,,,,,,,,,,,,,,,,,,,,,,,,,,,,,,,,,,,,,,,,,,,,,,,,,,
,857677498017,CBA,05/05/2001,001,2023-04-03_22h39.00.523,OS3_Mult_verification,2022.2.4,Win32,60.06006006,,,,,,,,,,,,,,,,,,9,1.3665,1,"[""9"",""return""]","[0.9175000000000182,1.0673999999761747]",,,,,,3 × 3 =,9,0,7,7,7,1,,,,,,,,,,,,,,,,,,,,,,,,,,,,,,,,,,,,,,,,,,,,,,,,,,,,,,,,,,,,,,,,,,,,,,,,,,,,,,,,,,,,,,,,,,,,,,,,,,,,,,,,,,,,,,,,,,,,,,,,,,,,,,,,,,,,,,,,,,,,
,857677498017,CBA,05/05/2001,001,2023-04-03_22h39.00.523,OS3_Mult_verification,2022.2.4,Win32,60.06006006,,,,,,,,,,,,,,,,,,10,1.583,1,"[""1"",""0"",""return""]","[0.731399999976162,0.9812999999523129,1.286899999976157]",,,,,,5 × 2 =,10,0,8,8,8,1,,,,,,,,,,,,,,,,,,,,,,,,,,,,,,,,,,,,,,,,,,,,,,,,,,,,,,,,,,,,,,,,,,,,,,,,,,,,,,,,,,,,,,,,,,,,,,,,,,,,,,,,,,,,,,,,,,,,,,,,,,,,,,,,,,,,,,,,,,,,
,857677498017,CBA,05/05/2001,001,2023-04-03_22h39.00.523,OS3_Mult_verification,2022.2.4,Win32,60.06006006,,,,,,,,,,,,,,,,,,16,1.5162,1,"[""1"",""6"",""return""]","[0.7337000000476905,1.0347000000476783,1.2153000000715224]",,,,,,4 × 4 =,16,0,9,9,9,1,,,,,,,,,,,,,,,,,,,,,,,,,,,,,,,,,,,,,,,,,,,,,,,,,,,,,,,,,,,,,,,,,,,,,,,,,,,,,,,,,,,,,,,,,,,,,,,,,,,,,,,,,,,,,,,,,,,,,,,,,,,,,,,,,,,,,,,,,,,,
,857677498017,CBA,05/05/2001,001,2023-04-03_22h39.00.523,OS3_Mult_verification,2022.2.4,Win32,60.06006006,,,,,,,,,,,,,,,,,,24,1.5836,1,"[""2"",""4"",""return""]","[0.9638999999761495,1.1848999999761531,1.300100000023832]",,,,,,8 × 3 =,24,0,10,10,10,1,,,,,,,,,,,,,,,,,,,,,,,,,,,,,,,,,,,,,,,,,,,,,,,,,,,,,,,,,,,,,,,,,,,,,,,,,,,,,,,,,,,,,,,,,,,,,,,,,,,,,,,,,,,,,,,,,,,,,,,,,,,,,,,,,,,,,,,,,,,,
,857677498017,CBA,05/05/2001,001,2023-04-03_22h39.00.523,OS3_Mult_verification,2022.2.4,Win32,60.06006006,,,,,,,,,,,,,,,,,,30,1.6834,1,"[""3"",""0"",""return""]","[0.9147999999523222,1.065299999952316,1.382000000000005]",,,,,,6 × 5 =,30,0,11,11,11,1,,,,,,,,,,,,,,,,,,,,,,,,,,,,,,,,,,,,,,,,,,,,,,,,,,,,,,,,,,,,,,,,,,,,,,,,,,,,,,,,,,,,,,,,,,,,,,,,,,,,,,,,,,,,,,,,,,,,,,,,,,,,,,,,,,,,,,,,,,,,
,857677498017,CBA,05/05/2001,001,2023-04-03_22h39.00.523,OS3_Mult_verification,2022.2.4,Win32,60.06006006,,,,,,,,,,,,,,,,,,14,1.5829,1,"[""1"",""4"",""return""]","[0.764399999976149,1.1157000000476955,1.2836000000238528]",,,,,,7 × 2 =,14,0,12,12,12,1,,,,,,,,,,,,,,,,,,,,,,,,,,,,,,,,,,,,,,,,,,,,,,,,,,,,,,,,,,,,,,,,,,,,,,,,,,,,,,,,,,,,,,,,,,,,,,,,,,,,,,,,,,,,,,,,,,,,,,,,,,,,,,,,,,,,,,,,,,,,
,857677498017,CBA,05/05/2001,001,2023-04-03_22h39.00.523,OS3_Mult_verification,2022.2.4,Win32,60.06006006,,,,,,,,,,,,,,,,,,27,1.6667,1,"[""2"",""7"",""return""]","[0.8474000000953481,1.1651000000238412,1.3649999999999807]",,,,,,3 × 9 =,27,0,13,13,13,1,,,,,,,,,,,,,,,,,,,,,,,,,,,,,,,,,,,,,,,,,,,,,,,,,,,,,,,,,,,,,,,,,,,,,,,,,,,,,,,,,,,,,,,,,,,,,,,,,,,,,,,,,,,,,,,,,,,,,,,,,,,,,,,,,,,,,,,,,,,,
,857677498017,CBA,05/05/2001,001,2023-04-03_22h39.00.523,OS3_Mult_verification,2022.2.4,Win32,60.06006006,,,,,,,,,,,,,,,,,,16,1.6496,1,"[""1"",""6"",""return""]","[0.7001999999284862,1.1980000000000075,1.3568999999761786]",,,,,,2 × 8 =,16,0,14,14,14,1,,,,,,,,,,,,,,,,,,,,,,,,,,,,,,,,,,,,,,,,,,,,,,,,,,,,,,,,,,,,,,,,,,,,,,,,,,,,,,,,,,,,,,,,,,,,,,,,,,,,,,,,,,,,,,,,,,,,,,,,,,,,,,,,,,,,,,,,,,,,
,857677498017,CBA,05/05/2001,001,2023-04-03_22h39.00.523,OS3_Mult_verification,2022.2.4,Win32,60.06006006,,,,,,,,,,,,,,,,,,24,1.5,1,"[""2"",""4"",""return""]","[0.8476000000238173,1.0516999999284735,1.197499999999991]",,,,,,4 × 6 =,24,0,15,15,15,1,,,,,,,,,,,,,,,,,,,,,,,,,,,,,,,,,,,,,,,,,,,,,,,,,,,,,,,,,,,,,,,,,,,,,,,,,,,,,,,,,,,,,,,,,,,,,,,,,,,,,,,,,,,,,,,,,,,,,,,,,,,,,,,,,,,,,,,,,,,,
,857677498017,CBA,05/05/2001,001,2023-04-03_22h39.00.523,OS3_Mult_verification,2022.2.4,Win32,60.06006006,,,,,,,,,,,,,,,,,,21,1.9836,1,"[""3"",""backspace"",""2"",""1"",""return""]","[0.8309999999999889,1.26409999990463,1.3726999999284715,1.5474999999999852,1.6833999999761602]",,,,,,7 × 3 =,21,0,16,16,16,1,,,,,,,,,,,,,,,,,,,,,,,,,,,,,,,,,,,,,,,,,,,,,,,,,,,,,,,,,,,,,,,,,,,,,,,,,,,,,,,,,,,,,,,,,,,,,,,,,,,,,,,,,,,,,,,,,,,,,,,,,,,,,,,,,,,,,,,,,,,,
,857677498017,CBA,05/05/2001,001,2023-04-03_22h39.00.523,OS3_Mult_verification,2022.2.4,Win32,60.06006006,,,,,,,,,,,,,,,,,,27,1.8833,1,"[""2"",""7"",""return""]","[0.9066000000238432,1.3826000000238423,1.5868999999761684]",,,,,,9 × 3 =,27,0,17,17,17,1,,,,,,,,,,,,,,,,,,,,,,,,,,,,,,,,,,,,,,,,,,,,,,,,,,,,,,,,,,,,,,,,,,,,,,,,,,,,,,,,,,,,,,,,,,,,,,,,,,,,,,,,,,,,,,,,,,,,,,,,,,,,,,,,,,,,,,,,,,,,
,857677498017,CBA,05/05/2001,001,2023-04-03_22h39.00.523,OS3_Mult_verification,2022.2.4,Win32,60.06006006,,,,,,,,,,,,,,,,,,28,1.6663,1,"[""2"",""8"",""return""]","[0.8318999999761445,1.2241999999284872,1.3696999999284856]",,,,,,4 × 7 =,28,0,18,18,18,1,,,,,,,,,,,,,,,,,,,,,,,,,,,,,,,,,,,,,,,,,,,,,,,,,,,,,,,,,,,,,,,,,,,,,,,,,,,,,,,,,,,,,,,,,,,,,,,,,,,,,,,,,,,,,,,,,,,,,,,,,,,,,,,,,,,,,,,,,,,,
,857677498017,CBA,05/05/2001,001,2023-04-03_22h39.00.523,OS3_Mult_verification,2022.2.4,Win32,60.06006006,,,,,,,,,,,,,,,,,,18,1.5503,1,"[""1"",""8"",""return""]","[0.781100000023855,1.133600000023847,1.2666000000238569]",,,,,,2 × 9 =,18,0,19,19,19,1,,,,,,,,,,,,,,,,,,,,,,,,,,,,,,,,,,,,,,,,,,,,,,,,,,,,,,,,,,,,,,,,,,,,,,,,,,,,,,,,,,,,,,,,,,,,,,,,,,,,,,,,,,,,,,,,,,,,,,,,,,,,,,,,,,,,,,,,,,,,
,857677498017,CBA,05/05/2001,001,2023-04-03_22h39.00.523,OS3_Mult_verification,2022.2.4,Win32,60.06006006,,,,,,,,,,,,,,,,,,72,1.8332,1,"[""7"",""2"",""return""]","[1.2152999999523217,1.367999999999995,1.535299999952315]",,,,,,9 × 8 =,72,0,20,20,20,1,,,,,,,,,,,,,,,,,,,,,,,,,,,,,,,,,,,,,,,,,,,,,,,,,,,,,,,,,,,,,,,,,,,,,,,,,,,,,,,,,,,,,,,,,,,,,,,,,,,,,,,,,,,,,,,,,,,,,,,,,,,,,,,,,,,,,,,,,,,,
,857677498017,CBA,05/05/2001,001,2023-04-03_22h39.00.523,OS3_Mult_verification,2022.2.4,Win32,60.06006006,,,,,,,,,,,,,,,,,,42,1.6165,1,"[""4"",""2"",""return""]","[0.9152000000476903,1.1648999999761713,1.316700000047689]",,,,,,7 × 6 =,42,0,21,21,21,1,,,,,,,,,,,,,,,,,,,,,,,,,,,,,,,,,,,,,,,,,,,,,,,,,,,,,,,,,,,,,,,,,,,,,,,,,,,,,,,,,,,,,,,,,,,,,,,,,,,,,,,,,,,,,,,,,,,,,,,,,,,,,,,,,,,,,,,,,,,,
,857677498017,CBA,05/05/2001,001,2023-04-03_22h39.00.523,OS3_Mult_verification,2022.2.4,Win32,60.06006006,,,,,,,,,,,,,,,,,,54,1.7668,1,"[""5"",""4"",""return""]","[1.1061000000238437,1.2376000000238605,1.467399999976152]",,,,,,6 × 9 =,54,0,22,22,22,1,,,,,,,,,,,,,,,,,,,,,,,,,,,,,,,,,,,,,,,,,,,,,,,,,,,,,,,,,,,,,,,,,,,,,,,,,,,,,,,,,,,,,,,,,,,,,,,,,,,,,,,,,,,,,,,,,,,,,,,,,,,,,,,,,,,,,,,,,,,,
,857677498017,CBA,05/05/2001,001,2023-04-03_22h39.00.523,OS3_Mult_verification,2022.2.4,Win32,60.06006006,,,,,,,,,,,,,,,,,,45,1.5167,1,"[""4"",""5"",""return""]","[0.882300000071524,1.0563000000715306,1.21550000000002]",,,,,,9 × 5 =,45,0,23,23,23,1,,,,,,,,,,,,,,,,,,,,,,,,,,,,,,,,,,,,,,,,,,,,,,,,,,,,,,,,,,,,,,,,,,,,,,,,,,,,,,,,,,,,,,,,,,,,,,,,,,,,,,,,,,,,,,,,,,,,,,,,,,,,,,,,,,,,,,,,,,,,
,857677498017,CBA,05/05/2001,001,2023-04-03_22h39.00.523,OS3_Mult_verification,2022.2.4,Win32,60.06006006,,,,,,,,,,,,,,,,,,56,1.4831,1,"[""5"",""6"",""return""]","[0.8168999999761581,1.0181999999284699,1.1910000000000025]",,,,,,8 × 7 =,56,0,24,24,24,1,,,,,,,,,,,,,,,,,,,,,,,,,,,,,,,,,,,,,,,,,,,,,,,,,,,,,,,,,,,,,,,,,,,,,,,,,,,,,,,,,,,,,,,,,,,,,,,,,,,,,,,,,,,,,,,,,,,,,,,,,,,,,,,,,,,,,,,,,,,,
,857677498017,CBA,05/05/2001,001,2023-04-03_22h39.00.523,OS3_Mult_verification,2022.2.4,Win32,60.06006006,,,,,,,,,,,,,,,,,,36,2.3665,1,"[""2"",""backspace"",""3"",""6"",""return""]","[0.89939999997614,1.416499999999985,1.5052000000476653,1.7668999999761468,2.0701000000238423]",,,,,,6 × 6 =,36,0,25,25,25,1,,,,,,,,,,,,,,,,,,,,,,,,,,,,,,,,,,,,,,,,,,,,,,,,,,,,,,,,,,,,,,,,,,,,,,,,,,,,,,,,,,,,,,,,,,,,,,,,,,,,,,,,,,,,,,,,,,,,,,,,,,,,,,,,,,,,,,,,,,,,
,857677498017,CBA,05/05/2001,001,2023-04-03_22h39.00.523,OS3_Mult_verification,2022.2.4,Win32,60.06006006,,,,,,,,,,,,,,,,,,35,2.0671,1,"[""3"",""5"",""return""]","[1.3846000000238519,1.6389000000953615,1.7652000000476846]",,,,,,5 × 7 =,35,0,26,26,26,1,,,,,,,,,,,,,,,,,,,,,,,,,,,,,,,,,,,,,,,,,,,,,,,,,,,,,,,,,,,,,,,,,,,,,,,,,,,,,,,,,,,,,,,,,,,,,,,,,,,,,,,,,,,,,,,,,,,,,,,,,,,,,,,,,,,,,,,,,,,,
,857677498017,CBA,05/05/2001,001,2023-04-03_22h39.00.523,OS3_Mult_verification,2022.2.4,Win32,60.06006006,,,,,,,,,,,,,,,,,,36,1.5883,1,"[""3"",""6"",""return""]","[0.8654999999999973,1.131699999928486,1.2986999999284876]",,,,,,4 × 9 =,36,0,27,27,27,1,,,,,,,,,,,,,,,,,,,,,,,,,,,,,,,,,,,,,,,,,,,,,,,,,,,,,,,,,,,,,,,,,,,,,,,,,,,,,,,,,,,,,,,,,,,,,,,,,,,,,,,,,,,,,,,,,,,,,,,,,,,,,,,,,,,,,,,,,,,,
,857677498017,CBA,05/05/2001,001,2023-04-03_22h39.00.523,OS3_Mult_verification,2022.2.4,Win32,60.06006006,,,,,,,,,,,,,,,,,,48,1.983,1,"[""4"",""8"",""return""]","[1.0228999999761754,1.3677999999523252,1.688299999952335]",,,,,,8 × 6 =,48,0,28,28,28,1,,,,,,,,,,,,,,,,,,,,,,,,,,,,,,,,,,,,,,,,,,,,,,,,,,,,,,,,,,,,,,,,,,,,,,,,,,,,,,,,,,,,,,,,,,,,,,,,,,,,,,,,,,,,,,,,,,,,,,,,,,,,,,,,,,,,,,,,,,,,
,857677498017,CBA,05/05/2001,001,2023-04-03_22h39.00.523,OS3_Mult_verification,2022.2.4,Win32,60.06006006,,,,,,,,,,,,,,,,,,36,1.6997,0,"[""3"",""6"",""return""]","[0.9553999999761515,1.235600000023851,1.4068000000715415]",,,,,,9 × 7 =,63,0,29,29,29,1,,,,,,,,,,,,,,,,,,,,,,,,,,,,,,,,,,,,,,,,,,,,,,,,,,,,,,,,,,,,,,,,,,,,,,,,,,,,,,,,,,,,,,,,,,,,,,,,,,,,,,,,,,,,,,,,,,,,,,,,,,,,,,,,,,,,,,,,,,,,
,857677498017,CBA,05/05/2001,001,2023-04-03_22h39.00.523,OS3_Mult_verification,2022.2.4,Win32,60.06006006,,,,,,,,,,,,,,,,,,12,1.3831,1,"[""1"",""2"",""return""]","[0.7137000000476803,0.9145000000000039,1.083799999952305]",,,,,,4 × 3 =,12,0,30,30,30,1,,,,,,,,,,,,,,,,,,,,,,,,,,,,,,,,,,,,,,,,,,,,,,,,,,,,,,,,,,,,,,,,,,,,,,,,,,,,,,,,,,,,,,,,,,,,,,,,,,,,,,,,,,,,,,,,,,,,,,,,,,,,,,,,,,,,,,,,,,,,
,857677498017,CBA,05/05/2001,001,2023-04-03_22h39.00.523,OS3_Mult_verification,2022.2.4,Win32,60.06006006,,,,,,,,,,,,,,,,,,25,1.4835,1,"[""2"",""5"",""return""]","[0.7556000000238328,1.0051999999284646,1.1829999999999927]",,,,,,5 × 5 =,25,0,31,31,31,1,,,,,,,,,,,,,,,,,,,,,,,,,,,,,,,,,,,,,,,,,,,,,,,,,,,,,,,,,,,,,,,,,,,,,,,,,,,,,,,,,,,,,,,,,,,,,,,,,,,,,,,,,,,,,,,,,,,,,,,,,,,,,,,,,,,,,,,,,,,,
,857677498017,CBA,05/05/2001,001,2023-04-03_22h39.00.523,OS3_Mult_verification,2022.2.4,Win32,60.06006006,,,,,,,,,,,,,,,,,,6,1.433,1,"[""6"",""return""]","[0.9872999999523131,1.1321999999284742]",,,,,,3 × 2 =,6,0,32,32,32,1,,,,,,,,,,,,,,,,,,,,,,,,,,,,,,,,,,,,,,,,,,,,,,,,,,,,,,,,,,,,,,,,,,,,,,,,,,,,,,,,,,,,,,,,,,,,,,,,,,,,,,,,,,,,,,,,,,,,,,,,,,,,,,,,,,,,,,,,,,,,
,857677498017,CBA,05/05/2001,001,2023-04-03_22h39.00.523,OS3_Mult_verification,2022.2.4,Win32,60.06006006,,,,,,,,,,,,,,,,,,20,1.8838,1,"[""2"",""0"",""return""]","[0.7898999999761429,1.2819999999999823,1.5906000000238407]",,,,,,5 × 4 =,20,0,33,33,33,1,,,,,,,,,,,,,,,,,,,,,,,,,,,,,,,,,,,,,,,,,,,,,,,,,,,,,,,,,,,,,,,,,,,,,,,,,,,,,,,,,,,,,,,,,,,,,,,,,,,,,,,,,,,,,,,,,,,,,,,,,,,,,,,,,,,,,,,,,,,,
,857677498017,CBA,05/05/2001,001,2023-04-03_22h39.00.523,OS3_Mult_verification,2022.2.4,Win32,60.06006006,,,,,,,,,,,,,,,,,,8,1.4666,1,"[""8"",""return""]","[1.0149000000953663,1.1729000000953533]",,,,,,4 × 2 =,8,0,34,34,34,1,,,,,,,,,,,,,,,,,,,,,,,,,,,,,,,,,,,,,,,,,,,,,,,,,,,,,,,,,,,,,,,,,,,,,,,,,,,,,,,,,,,,,,,,,,,,,,,,,,,,,,,,,,,,,,,,,,,,,,,,,,,,,,,,,,,,,,,,,,,,
,857677498017,CBA,05/05/2001,001,2023-04-03_22h39.00.523,OS3_Mult_verification,2022.2.4,Win32,60.06006006,,,,,,,,,,,,,,,,,,12,1.4661,1,"[""1"",""2"",""return""]","[0.7649000000953663,1.0002000000476698,1.164999999999992]",,,,,,2 × 6 =,12,0,35,35,35,1,,,,,,,,,,,,,,,,,,,,,,,,,,,,,,,,,,,,,,,,,,,,,,,,,,,,,,,,,,,,,,,,,,,,,,,,,,,,,,,,,,,,,,,,,,,,,,,,,,,,,,,,,,,,,,,,,,,,,,,,,,,,,,,,,,,,,,,,,,,,
,857677498017,CBA,05/05/2001,001,2023-04-03_22h39.00.523,OS3_Mult_verification,2022.2.4,Win32,60.06006006,,,,,,,,,,,,,,,,,,15,1.9337,1,"[""2"",""backspace"",""1"",""5"",""return""]","[0.6682000000476762,1.1218000000715165,1.2176000000238218,1.4681000000238384,1.6326000000238423]",,,,,,3 × 5 =,15,0,36,36,36,1,,,,,,,,,,,,,,,,,,,,,,,,,,,,,,,,,,,,,,,,,,,,,,,,,,,,,,,,,,,,,,,,,,,,,,,,,,,,,,,,,,,,,,,,,,,,,,,,,,,,,,,,,,,,,,,,,,,,,,,,,,,,,,,,,,,,,,,,,,,,
,857677498017,CBA,05/05/2001,001,2023-04-03_22h39.00.523,OS3_Mult_verification,2022.2.4,Win32,60.06006006,,,,,,,,,,,,,,,,,,18,1.6665,1,"[""1"",""8"",""return""]","[0.6342999999523045,1.1689999999999827,1.3688999999761506]",,,,,,6 × 3 =,18,0,37,37,37,1,,,,,,,,,,,,,,,,,,,,,,,,,,,,,,,,,,,,,,,,,,,,,,,,,,,,,,,,,,,,,,,,,,,,,,,,,,,,,,,,,,,,,,,,,,,,,,,,,,,,,,,,,,,,,,,,,,,,,,,,,,,,,,,,,,,,,,,,,,,,
,857677498017,CBA,05/05/2001,001,2023-04-03_22h39.00.523,OS3_Mult_verification,2022.2.4,Win32,60.06006006,,,,,,,,,,,,,,,,,,10,1.4331,1,"[""1"",""0"",""return""]","[0.6157000000476955,0.984400000095377,1.139300000071529]",,,,,,2 × 5 =,10,0,38,38,38,1,,,,,,,,,,,,,,,,,,,,,,,,,,,,,,,,,,,,,,,,,,,,,,,,,,,,,,,,,,,,,,,,,,,,,,,,,,,,,,,,,,,,,,,,,,,,,,,,,,,,,,,,,,,,,,,,,,,,,,,,,,,,,,,,,,,,,,,,,,,,
,857677498017,CBA,05/05/2001,001,2023-04-03_22h39.00.523,OS3_Mult_verification,2022.2.4,Win32,60.06006006,,,,,,,,,,,,,,,,,,32,1.6329,1,"[""3"",""2"",""return""]","[0.9511000000238425,1.1678000000715372,1.336900000095369]",,,,,,4 × 8 =,32,0,39,39,39,1,,,,,,,,,,,,,,,,,,,,,,,,,,,,,,,,,,,,,,,,,,,,,,,,,,,,,,,,,,,,,,,,,,,,,,,,,,,,,,,,,,,,,,,,,,,,,,,,,,,,,,,,,,,,,,,,,,,,,,,,,,,,,,,,,,,,,,,,,,,,
,857677498017,CBA,05/05/2001,001,2023-04-03_22h39.00.523,OS3_Mult_verification,2022.2.4,Win32,60.06006006,,,,,,,,,,,,,,,,,,24,1.5163,1,"[""2"",""4"",""return""]","[0.7652000000476846,1.0038000000715215,1.2235000000000014]",,,,,,3 × 8 =,24,0,40,40,40,1,,,,,,,,,,,,,,,,,,,,,,,,,,,,,,,,,,,,,,,,,,,,,,,,,,,,,,,,,,,,,,,,,,,,,,,,,,,,,,,,,,,,,,,,,,,,,,,,,,,,,,,,,,,,,,,,,,,,,,,,,,,,,,,,,,,,,,,,,,,,
,857677498017,CBA,05/05/2001,001,2023-04-03_22h39.00.523,OS3_Mult_verification,2022.2.4,Win32,60.06006006,,,,,,,,,,,,,,,,,,30,2.7339,1,"[""3"",""0"",""return""]","[1.9341000000238466,2.1173999999761293,2.4328000000715235]",,,,,,5 × 6 =,30,0,41,41,41,1,,,,,,,,,,,,,,,,,,,,,,,,,,,,,,,,,,,,,,,,,,,,,,,,,,,,,,,,,,,,,,,,,,,,,,,,,,,,,,,,,,,,,,,,,,,,,,,,,,,,,,,,,,,,,,,,,,,,,,,,,,,,,,,,,,,,,,,,,,,,
,857677498017,CBA,05/05/2001,001,2023-04-03_22h39.00.523,OS3_Mult_verification,2022.2.4,Win32,60.06006006,,,,,,,,,,,,,,,,,,14,2.0168,1,"[""1"",""4"",""return""]","[1.3212000000476678,1.5487000000476883,1.71550000000002]",,,,,,2 × 7 =,14,0,42,42,42,1,,,,,,,,,,,,,,,,,,,,,,,,,,,,,,,,,,,,,,,,,,,,,,,,,,,,,,,,,,,,,,,,,,,,,,,,,,,,,,,,,,,,,,,,,,,,,,,,,,,,,,,,,,,,,,,,,,,,,,,,,,,,,,,,,,,,,,,,,,,,
,857677498017,CBA,05/05/2001,001,2023-04-03_22h39.00.523,OS3_Mult_verification,2022.2.4,Win32,60.06006006,,,,,,,,,,,,,,,,,,24,1.65,1,"[""2"",""4"",""return""]","[1.0133000000715242,1.1995000000000005,1.3477000000476664]",,,,,,6 × 4 =,24,0,43,43,43,1,,,,,,,,,,,,,,,,,,,,,,,,,,,,,,,,,,,,,,,,,,,,,,,,,,,,,,,,,,,,,,,,,,,,,,,,,,,,,,,,,,,,,,,,,,,,,,,,,,,,,,,,,,,,,,,,,,,,,,,,,,,,,,,,,,,,,,,,,,,,
,857677498017,CBA,05/05/2001,001,2023-04-03_22h39.00.523,OS3_Mult_verification,2022.2.4,Win32,60.06006006,,,,,,,,,,,,,,,,,,21,1.6498,1,"[""2"",""1"",""return""]","[1.0172000000476942,1.186200000047677,1.356300000071542]",,,,,,3 × 7 =,21,0,44,44,44,1,,,,,,,,,,,,,,,,,,,,,,,,,,,,,,,,,,,,,,,,,,,,,,,,,,,,,,,,,,,,,,,,,,,,,,,,,,,,,,,,,,,,,,,,,,,,,,,,,,,,,,,,,,,,,,,,,,,,,,,,,,,,,,,,,,,,,,,,,,,,
,857677498017,CBA,05/05/2001,001,2023-04-03_22h39.00.523,OS3_Mult_verification,2022.2.4,Win32,60.06006006,,,,,,,,,,,,,,,,,,81,1.5654,1,"[""8"",""1"",""return""]","[0.9372000000477385,1.0678999999762198,1.272200000047718]",,,,,,9 × 9 =,81,0,45,45,45,1,,,,,,,,,,,,,,,,,,,,,,,,,,,,,,,,,,,,,,,,,,,,,,,,,,,,,,,,,,,,,,,,,,,,,,,,,,,,,,,,,,,,,,,,,,,,,,,,,,,,,,,,,,,,,,,,,,,,,,,,,,,,,,,,,,,,,,,,,,,,
,857677498017,CBA,05/05/2001,001,2023-04-03_22h39.00.523,OS3_Mult_verification,2022.2.4,Win32,60.06006006,,,,,,,,,,,,,,,,,,16,1.4165,1,"[""1"",""6"",""return""]","[0.6136000000238369,0.9661000000238005,1.11489999997616]",,,,,,8 × 2 =,16,0,46,46,46,1,,,,,,,,,,,,,,,,,,,,,,,,,,,,,,,,,,,,,,,,,,,,,,,,,,,,,,,,,,,,,,,,,,,,,,,,,,,,,,,,,,,,,,,,,,,,,,,,,,,,,,,,,,,,,,,,,,,,,,,,,,,,,,,,,,,,,,,,,,,,
,857677498017,CBA,05/05/2001,001,2023-04-03_22h39.00.523,OS3_Mult_verification,2022.2.4,Win32,60.06006006,,,,,,,,,,,,,,,,,,48,2.3668,1,"[""3"",""backspace"",""4"",""8"",""return""]","[1.0561000000238323,1.5566000000238205,1.6841000000238182,1.93360000002383,2.0648999999761486]",,,,,,6 × 8 =,48,0,47,47,47,1,,,,,,,,,,,,,,,,,,,,,,,,,,,,,,,,,,,,,,,,,,,,,,,,,,,,,,,,,,,,,,,,,,,,,,,,,,,,,,,,,,,,,,,,,,,,,,,,,,,,,,,,,,,,,,,,,,,,,,,,,,,,,,,,,,,,,,,,,,,,
,857677498017,CBA,05/05/2001,001,2023-04-03_22h39.00.523,OS3_Mult_verification,2022.2.4,Win32,60.06006006,,,,,,,,,,,,,,,,,,28,1.6394,1,"[""2"",""8"",""return""]","[0.8485000000000014,1.2062000000476587,1.350499999999954]",,,,,,7 × 4 =,28,0,48,48,48,1,,,,,,,,,,,,,,,,,,,,,,,,,,,,,,,,,,,,,,,,,,,,,,,,,,,,,,,,,,,,,,,,,,,,,,,,,,,,,,,,,,,,,,,,,,,,,,,,,,,,,,,,,,,,,,,,,,,,,,,,,,,,,,,,,,,,,,,,,,,,
,857677498017,CBA,05/05/2001,001,2023-04-03_22h39.00.523,OS3_Mult_verification,2022.2.4,Win32,60.06006006,,,,,,,,,,,,,,,,,,18,1.6327,1,"[""1"",""8"",""return""]","[0.7567000000476582,1.1566000000238432,1.3368000000714915]",,,,,,9 × 2 =,18,0,49,49,49,1,,,,,,,,,,,,,,,,,,,,,,,,,,,,,,,,,,,,,,,,,,,,,,,,,,,,,,,,,,,,,,,,,,,,,,,,,,,,,,,,,,,,,,,,,,,,,,,,,,,,,,,,,,,,,,,,,,,,,,,,,,,,,,,,,,,,,,,,,,,,
,857677498017,CBA,05/05/2001,001,2023-04-03_22h39.00.523,OS3_Mult_verification,2022.2.4,Win32,60.06006006,,,,,,,,,,,,,,,,,,35,2.3499,1,"[""2"",""backspace"",""3"",""5"",""return""]","[0.9146999999284731,1.4040999999046448,1.5192999999522954,1.8315000000000055,2.0550999999046553]",,,,,,7 × 5 =,35,0,50,50,50,1,,,,,,,,,,,,,,,,,,,,,,,,,,,,,,,,,,,,,,,,,,,,,,,,,,,,,,,,,,,,,,,,,,,,,,,,,,,,,,,,,,,,,,,,,,,,,,,,,,,,,,,,,,,,,,,,,,,,,,,,,,,,,,,,,,,,,,,,,,,,
,857677498017,CBA,05/05/2001,001,2023-04-03_22h39.00.523,OS3_Mult_verification,2022.2.4,Win32,60.06006006,,,,,,,,,,,,,,,,,,36,2.1169,1,"[""3"",""6"",""return""]","[1.3486000000238505,1.6652999999523104,1.8182999999523304]",,,,,,9 × 4 =,36,0,51,51,51,1,,,,,,,,,,,,,,,,,,,,,,,,,,,,,,,,,,,,,,,,,,,,,,,,,,,,,,,,,,,,,,,,,,,,,,,,,,,,,,,,,,,,,,,,,,,,,,,,,,,,,,,,,,,,,,,,,,,,,,,,,,,,,,,,,,,,,,,,,,,,
,857677498017,CBA,05/05/2001,001,2023-04-03_22h39.00.523,OS3_Mult_verification,2022.2.4,Win32,60.06006006,,,,,,,,,,,,,,,,,,,0.8997,0,,,,,,,,8 × 8 =,64,0,52,52,52,1,,,,,,,,,,,,,,,,,,,,,,,,,,,,,,,,,,,,,,,,,,,,,,,,,,,,,,,,,,,,,,,,,,,,,,,,,,,,,,,,,,,,,,,,,,,,,,,,,,,,,,,,,,,,,,,,,,,,,,,,,,,,,,,,,,,,,,,,,,,,
,857677498017,CBA,05/05/2001,001,2023-04-03_22h39.00.523,OS3_Mult_verification,2022.2.4,Win32,60.06006006,,,,,,,,,,,,,,,,space,0.732,,,,,,,,,,,,,,,,,,space,2.3787,123,1.7167,1,"[""1"",""2"",""3"",""return""]","[0.6933999999761795,1.0090000000000146,1.2785999999046567,1.6759999999999877]",0,0,0,0,1,3,123,Audio/123.mp3,practice,,,,,,,,,,,,,,,,,,,,,,,,,,,,,,,,,,,,,,,,,,,,,,,,,,,,,,,,,,,,,,,,,,,,,,,,,,,,,,,,,,,,,,,,,,,,,,,,,,,,,,,,,,,,,,,,,,,,,,,,,,,,
,857677498017,CBA,05/05/2001,001,2023-04-03_22h39.00.523,OS3_Mult_verification,2022.2.4,Win32,60.06006006,,,,,,,,,,,,,,,,,,,,,,,,,,,,,,,,,,,,,911,0.9832,1,"[""9"",""1"",""1"",""return""]","[0.46639999997614723,0.5983999999761522,0.767100000023845,0.9537999999523095]",0,1,1,2,1,3,911,Audio/911.mp3,practice,,,,,,,,,,,,,,,,,,,,,,,,,,,,,,,,,,,,,,,,,,,,,,,,,,,,,,,,,,,,,,,,,,,,,,,,,,,,,,,,,,,,,,,,,,,,,,,,,,,,,,,,,,,,,,,,,,,,,,,,,,,,
,857677498017,CBA,05/05/2001,001,2023-04-03_22h39.00.523,OS3_Mult_verification,2022.2.4,Win32,60.06006006,,,,,,,,,,,,,,,,,,,,,,,,,,,,,,,,,,,,,321,1.0159,1,"[""3"",""2"",""1"",""return""]","[0.3509999999999991,0.5819999999999936,0.6824000000953561,0.9859000000953415]",0,2,2,1,1,3,321,Audio/321.mp3,practice,,,,,,,,,,,,,,,,,,,,,,,,,,,,,,,,,,,,,,,,,,,,,,,,,,,,,,,,,,,,,,,,,,,,,,,,,,,,,,,,,,,,,,,,,,,,,,,,,,,,,,,,,,,,,,,,,,,,,,,,,,,,
,857677498017,CBA,05/05/2001,001,2023-04-03_22h39.00.523,OS3_Mult_verification,2022.2.4,Win32,60.06006006,,,,,,,,,,,,,,,,,,,,,,,,,,,,,,,,,,,,,46,1.0496,1,"[""4"",""6"",""return""]","[0.6063999999761904,0.8008999999761954,1.0161000000238687]",,,,,,2,46,Audio/46.mp3,EGNER,0,0,0,0,1,,,,,,,,,,,,,,,,,,,,,,,,,,,,,,,,,,,,,,,,,,,,,,,,,,,,,,,,,,,,,,,,,,,,,,,,,,,,,,,,,,,,,,,,,,,,,,,,,,,,,,,,,,,,,,,,,,,,,,,
,857677498017,CBA,05/05/2001,001,2023-04-03_22h39.00.523,OS3_Mult_verification,2022.2.4,Win32,60.06006006,,,,,,,,,,,,,,,,,,,,,,,,,,,,,,,,,,,,,82,0.767,1,"[""8"",""2"",""return""]","[0.3819000000953565,0.5182000000476705,0.7323000000715183]",,,,,,2,82,Audio/82.mp3,EGNER,0,1,1,1,1,,,,,,,,,,,,,,,,,,,,,,,,,,,,,,,,,,,,,,,,,,,,,,,,,,,,,,,,,,,,,,,,,,,,,,,,,,,,,,,,,,,,,,,,,,,,,,,,,,,,,,,,,,,,,,,,,,,,,,,
,857677498017,CBA,05/05/2001,001,2023-04-03_22h39.00.523,OS3_Mult_verification,2022.2.4,Win32,60.06006006,,,,,,,,,,,,,,,,,,,,,,,,,,,,,,,,,,,,,,,,,,,,,,,,,,,,,,,,0,0,0,0,1,digitSpan_stim/twoAudio.xlsx,,,,,,,,,,,,,,,,,,,,,,,,,,,,,,,,,,,,,,,,,,,,,,,,,,,,,,,,,,,,,,,,,,,,,,,,,,,,,,,,,,,,,,,,,,,,,,,,,,,,,,,,,,,,,,,,,
,857677498017,CBA,05/05/2001,001,2023-04-03_22h39.00.523,OS3_Mult_verification,2022.2.4,Win32,60.06006006,,,,,,,,,,,,,,,,,,,,,,,,,,,,,,,,,,,,,157,1.0323,1,"[""1"",""5"",""7"",""return""]","[0.2983999999761977,0.5185000000000173,0.6631999999285085,0.9955000000000496]",,,,,,3,157,Audio/157.mp3,EGNER,0,0,0,0,1,,,,,,,,,,,,,,,,,,,,,,,,,,,,,,,,,,,,,,,,,,,,,,,,,,,,,,,,,,,,,,,,,,,,,,,,,,,,,,,,,,,,,,,,,,,,,,,,,,,,,,,,,,,,,,,,,,,,,,,
,857677498017,CBA,05/05/2001,001,2023-04-03_22h39.00.523,OS3_Mult_verification,2022.2.4,Win32,60.06006006,,,,,,,,,,,,,,,,,,,,,,,,,,,,,,,,,,,,,397,0.9334,1,"[""3"",""9"",""7"",""return""]","[0.3170999999045989,0.5324999999999704,0.6674999999999613,0.9015999999046471]",,,,,,3,397,Audio/397.mp3,EGNER,0,1,1,1,1,,,,,,,,,,,,,,,,,,,,,,,,,,,,,,,,,,,,,,,,,,,,,,,,,,,,,,,,,,,,,,,,,,,,,,,,,,,,,,,,,,,,,,,,,,,,,,,,,,,,,,,,,,,,,,,,,,,,,,,
,857677498017,CBA,05/05/2001,001,2023-04-03_22h39.00.523,OS3_Mult_verification,2022.2.4,Win32,60.06006006,,,,,,,,,,,,,,,,,,,,,,,,,,,,,,,,,,,,,,,,,,,,,,,,,,,,,,,,0,1,1,1,1,digitSpan_stim/threeAudio.xlsx,,,,,,,,,,,,,,,,,,,,,,,,,,,,,,,,,,,,,,,,,,,,,,,,,,,,,,,,,,,,,,,,,,,,,,,,,,,,,,,,,,,,,,,,,,,,,,,,,,,,,,,,,,,,,,,,,
,857677498017,CBA,05/05/2001,001,2023-04-03_22h39.00.523,OS3_Mult_verification,2022.2.4,Win32,60.06006006,,,,,,,,,,,,,,,,,,,,,,,,,,,,,,,,,,,,,6352,1.9675,1,"[""6"",""3"",""5"",""1"",""backspace"",""2"",""return""]","[0.2884999999999991,0.5537000000476837,0.7831000000238078,1.0885000000000105,1.603600000023846,1.734700000047667,1.9356000000238396]",,,,,,4,6352,Audio/6352.mp3,EGNER,0,0,0,0,1,,,,,,,,,,,,,,,,,,,,,,,,,,,,,,,,,,,,,,,,,,,,,,,,,,,,,,,,,,,,,,,,,,,,,,,,,,,,,,,,,,,,,,,,,,,,,,,,,,,,,,,,,,,,,,,,,,,,,,,
,857677498017,CBA,05/05/2001,001,2023-04-03_22h39.00.523,OS3_Mult_verification,2022.2.4,Win32,60.06006006,,,,,,,,,,,,,,,,,,,,,,,,,,,,,,,,,,,,,9184,1.3166,1,"[""9"",""1"",""8"",""4"",""return""]","[0.4812000000476928,0.6568999999761331,0.8553999999761572,1.017399999976135,1.2860000000000014]",,,,,,4,9184,Audio/9184.mp3,EGNER,0,1,1,1,1,,,,,,,,,,,,,,,,,,,,,,,,,,,,,,,,,,,,,,,,,,,,,,,,,,,,,,,,,,,,,,,,,,,,,,,,,,,,,,,,,,,,,,,,,,,,,,,,,,,,,,,,,,,,,,,,,,,,,,,
,857677498017,CBA,05/05/2001,001,2023-04-03_22h39.00.523,OS3_Mult_verification,2022.2.4,Win32,60.06006006,,,,,,,,,,,,,,,,,,,,,,,,,,,,,,,,,,,,,,,,,,,,,,,,,,,,,,,,0,2,2,2,1,digitSpan_stim/fourAudio.xlsx,,,,,,,,,,,,,,,,,,,,,,,,,,,,,,,,,,,,,,,,,,,,,,,,,,,,,,,,,,,,,,,,,,,,,,,,,,,,,,,,,,,,,,,,,,,,,,,,,,,,,,,,,,,,,,,,,
,857677498017,CBA,05/05/2001,001,2023-04-03_22h39.00.523,OS3_Mult_verification,2022.2.4,Win32,60.06006006,,,,,,,,,,,,,,,,,,,,,,,,,,,,,,,,,,,,,59381,2.444,0,"[""5"",""9"",""3"",""8"",""1"",""return""]","[1.0847999999523381,1.3487000000476996,1.5728999999761868,1.8496000000238837,2.0882000000477206,2.4139999999999873]",,,,,,5,59281,Audio/59281.mp3,EGNER,0,0,0,0,1,,,,,,,,,,,,,,,,,,,,,,,,,,,,,,,,,,,,,,,,,,,,,,,,,,,,,,,,,,,,,,,,,,,,,,,,,,,,,,,,,,,,,,,,,,,,,,,,,,,,,,,,,,,,,,,,,,,,,,,
,857677498017,CBA,05/05/2001,001,2023-04-03_22h39.00.523,OS3_Mult_verification,2022.2.4,Win32,60.06006006,,,,,,,,,,,,,,,,,,,,,,,,,,,,,,,,,,,,,64738,2.8503,1,"[""6"",""4"",""7"",""3"",""8"",""return""]","[0.5510999999046362,1.383199999928479,1.8498999999761736,2.21939999997619,2.451999999999998,2.819899999976201]",,,,,,5,64738,Audio/64738.mp3,EGNER,0,1,1,1,1,,,,,,,,,,,,,,,,,,,,,,,,,,,,,,,,,,,,,,,,,,,,,,,,,,,,,,,,,,,,,,,,,,,,,,,,,,,,,,,,,,,,,,,,,,,,,,,,,,,,,,,,,,,,,,,,,,,,,,,
,857677498017,CBA,05/05/2001,001,2023-04-03_22h39.00.523,OS3_Mult_verification,2022.2.4,Win32,60.06006006,,,,,,,,,,,,,,,,,,,,,,,,,,,,,,,,,,,,,,,,,,,,,,,,,,,,,,,,0,3,3,3,1,digitSpan_stim/fiveAudio.xlsx,,,,,,,,,,,,,,,,,,,,,,,,,,,,,,,,,,,,,,,,,,,,,,,,,,,,,,,,,,,,,,,,,,,,,,,,,,,,,,,,,,,,,,,,,,,,,,,,,,,,,,,,,,,,,,,,,
,857677498017,CBA,05/05/2001,001,2023-04-03_22h39.00.523,OS3_Mult_verification,2022.2.4,Win32,60.06006006,,,,,,,,,,,,,,,,,,,,,,,,,,,,,,,,,,,,,693172,2.3838,0,"[""6"",""9"",""3"",""1"",""7"",""2"",""return""]","[0.6014999999999873,0.8725000000000023,1.1011999999284399,1.4513999999761609,1.7683999999761113,2.0670000000000073,2.358299999952294]",,,,,,6,396172,Audio/396172.mp3,EGNER,0,0,0,0,1,,,,,,,,,,,,,,,,,,,,,,,,,,,,,,,,,,,,,,,,,,,,,,,,,,,,,,,,,,,,,,,,,,,,,,,,,,,,,,,,,,,,,,,,,,,,,,,,,,,,,,,,,,,,,,,,,,,,,,,
,857677498017,CBA,05/05/2001,001,2023-04-03_22h39.00.523,OS3_Mult_verification,2022.2.4,Win32,60.06006006,,,,,,,,,,,,,,,,,,,,,,,,,,,,,,,,,,,,,594631,2.5174,1,"[""5"",""9"",""4"",""6"",""3"",""1"",""return""]","[0.4686000000237982,0.7978999999761527,1.4988999999761177,1.7738999999761518,2.0154999999999745,2.2654999999999745,2.4846000000238178]",,,,,,6,594631,Audio/594631.mp3,EGNER,0,1,1,1,1,,,,,,,,,,,,,,,,,,,,,,,,,,,,,,,,,,,,,,,,,,,,,,,,,,,,,,,,,,,,,,,,,,,,,,,,,,,,,,,,,,,,,,,,,,,,,,,,,,,,,,,,,,,,,,,,,,,,,,,
,857677498017,CBA,05/05/2001,001,2023-04-03_22h39.00.523,OS3_Mult_verification,2022.2.4,Win32,60.06006006,,,,,,,,,,,,,,,,,,,,,,,,,,,,,,,,,,,,,,,,,,,,,,,,,,,,,,,,0,4,4,4,1,digitSpan_stim/sixAudio.xlsx,,,,,,,,,,,,,,,,,,,,,,,,,,,,,,,,,,,,,,,,,,,,,,,,,,,,,,,,,,,,,,,,,,,,,,,,,,,,,,,,,,,,,,,,,,,,,,,,,,,,,,,,,,,,,,,,,
,857677498017,CBA,05/05/2001,001,2023-04-03_22h39.00.523,OS3_Mult_verification,2022.2.4,Win32,60.06006006,,,,,,,,,,,,,,,,,,,,,,,,,,,,,,,,,,,,,819673,4.7179,0,"[""8"",""1"",""9"",""6"",""7"",""3"",""return""]","[1.8356000000238168,2.134999999999991,2.490299999952299,3.8024999999999523,4.121799999952316,4.369299999952318,4.6854999999999905]",,,,,,7,8241973,Audio/8241973.mp3,EGNER,0,0,0,0,1,,,,,,,,,,,,,,,,,,,,,,,,,,,,,,,,,,,,,,,,,,,,,,,,,,,,,,,,,,,,,,,,,,,,,,,,,,,,,,,,,,,,,,,,,,,,,,,,,,,,,,,,,,,,,,,,,,,,,,,
,857677498017,CBA,05/05/2001,001,2023-04-03_22h39.00.523,OS3_Mult_verification,2022.2.4,Win32,60.06006006,,,,,,,,,,,,,,,,,,,,,,,,,,,,,,,,,,,,,812367,4.1844,0,"[""8"",""1"",""2"",""3"",""6"",""7"",""return""]","[1.1347000000476442,1.3568999999761218,1.6571000000238314,1.9718999999761309,2.95799999999997,3.3519999999999754,4.152399999976126]",,,,,,7,2814367,Audio/2814367.mp3,EGNER,0,1,1,1,1,,,,,,,,,,,,,,,,,,,,,,,,,,,,,,,,,,,,,,,,,,,,,,,,,,,,,,,,,,,,,,,,,,,,,,,,,,,,,,,,,,,,,,,,,,,,,,,,,,,,,,,,,,,,,,,,,,,,,,,
,857677498017,CBA,05/05/2001,001,2023-04-03_22h39.00.523,OS3_Mult_verification,2022.2.4,Win32,60.06006006,,,,,,,,,,,,,,,,,,,,,,,,,,,,,,,,,,,,,,,,,,,,,,,Egner,,,,,,,,,,,,,,,0,0,0,0,1,digitSpan_stim/Egner.xlsx,,,,,,,,,,,,,,,,,,,,,,,,,,,,,,,,,,,,,,,,,,,,,,,,,,,,,,,,,,,,,,,,,,,,,,,,,,,,,,,,,,,,,,,,,,,,,,,,,,,,,,,,,,,
,857677498017,CBA,05/05/2001,001,2023-04-03_22h39.00.523,OS3_Mult_verification,2022.2.4,Win32,60.06006006,,,,,,,,,,,,,,,,,,,,,,,,,,,,,,,,,,,,,97,1,1,"[""9"",""7"",""return""]","[0.5002999999522899,0.670399999976155,0.9662000000476496]",,,,,,2,97,Audio/97.mp3,WAIS,0,0,0,0,1,,,,,,,,,,,,,,,,,,,,,,,,,,,,,,,,,,,,,,,,,,,,,,,,,,,,,,,,,,,,,,,,,,,,,,,,,,,,,,,,,,,,,,,,,,,,,,,,,,,,,,,,,,,,,,,,,,,,,,,
,857677498017,CBA,05/05/2001,001,2023-04-03_22h39.00.523,OS3_Mult_verification,2022.2.4,Win32,60.06006006,,,,,,,,,,,,,,,,,,,,,,,,,,,,,,,,,,,,,63,0.7162,1,"[""6"",""3"",""return""]","[0.34869999992844214,0.49819999992848807,0.6839999999999691]",,,,,,2,63,Audio/63.mp3,WAIS,0,1,1,1,1,,,,,,,,,,,,,,,,,,,,,,,,,,,,,,,,,,,,,,,,,,,,,,,,,,,,,,,,,,,,,,,,,,,,,,,,,,,,,,,,,,,,,,,,,,,,,,,,,,,,,,,,,,,,,,,,,,,,,,,
,857677498017,CBA,05/05/2001,001,2023-04-03_22h39.00.523,OS3_Mult_verification,2022.2.4,Win32,60.06006006,,,,,,,,,,,,,,,,,,,,,,,,,,,,,,,,,,,,,,,,,,,,,,,,,,,,,,,,0,0,0,0,1,digitSpan_stim/twoWAIS.xlsx,,,,,,,,,,,,,,,,,,,,,,,,,,,,,,,,,,,,,,,,,,,,,,,,,,,,,,,,,,,,,,,,,,,,,,,,,,,,,,,,,,,,,,,,,,,,,,,,,,,,,,,,,,,,,,,,,
,857677498017,CBA,05/05/2001,001,2023-04-03_22h39.00.523,OS3_Mult_verification,2022.2.4,Win32,60.06006006,,,,,,,,,,,,,,,,,,,,,,,,,,,,,,,,,,,,,582,1.617,1,"[""5"",""8"",""3"",""backspace"",""2"",""return""]","[0.2722000000476896,0.42290000009535333,0.7492000000476651,1.317400000095347,1.399000000000001,1.5844999999999914]",,,,,,3,582,Audio/582.mp3,WAIS,0,0,0,0,1,,,,,,,,,,,,,,,,,,,,,,,,,,,,,,,,,,,,,,,,,,,,,,,,,,,,,,,,,,,,,,,,,,,,,,,,,,,,,,,,,,,,,,,,,,,,,,,,,,,,,,,,,,,,,,,,,,,,,,,
,857677498017,CBA,05/05/2001,001,2023-04-03_22h39.00.523,OS3_Mult_verification,2022.2.4,Win32,60.06006006,,,,,,,,,,,,,,,,,,,,,,,,,,,,,,,,,,,,,694,1.1331,1,"[""6"",""9"",""4"",""return""]","[0.46699999999998454,0.7179999999999609,0.8676999999284476,1.1003999999761618]",,,,,,3,694,Audio/694.mp3,WAIS,0,1,1,1,1,,,,,,,,,,,,,,,,,,,,,,,,,,,,,,,,,,,,,,,,,,,,,,,,,,,,,,,,,,,,,,,,,,,,,,,,,,,,,,,,,,,,,,,,,,,,,,,,,,,,,,,,,,,,,,,,,,,,,,,
,857677498017,CBA,05/05/2001,001,2023-04-03_22h39.00.523,OS3_Mult_verification,2022.2.4,Win32,60.06006006,,,,,,,,,,,,,,,,,,,,,,,,,,,,,,,,,,,,,,,,,,,,,,,,,,,,,,,,0,1,1,1,1,digitSpan_stim/threeWAIS.xlsx,,,,,,,,,,,,,,,,,,,,,,,,,,,,,,,,,,,,,,,,,,,,,,,,,,,,,,,,,,,,,,,,,,,,,,,,,,,,,,,,,,,,,,,,,,,,,,,,,,,,,,,,,,,,,,,,,
,857677498017,CBA,05/05/2001,001,2023-04-03_22h39.00.523,OS3_Mult_verification,2022.2.4,Win32,60.06006006,,,,,,,,,,,,,,,,,,,,,,,,,,,,,,,,,,,,,7286,1.6334,1,"[""7"",""2"",""8"",""6"",""return""]","[0.5649999999999977,0.8011000000238369,0.9878999999761504,1.2156000000238123,1.6008000000715015]",,,,,,4,7286,Audio/7286.mp3,WAIS,0,0,0,0,1,,,,,,,,,,,,,,,,,,,,,,,,,,,,,,,,,,,,,,,,,,,,,,,,,,,,,,,,,,,,,,,,,,,,,,,,,,,,,,,,,,,,,,,,,,,,,,,,,,,,,,,,,,,,,,,,,,,,,,,
,857677498017,CBA,05/05/2001,001,2023-04-03_22h39.00.523,OS3_Mult_verification,2022.2.4,Win32,60.06006006,,,,,,,,,,,,,,,,,,,,,,,,,,,,,,,,,,,,,6439,1.3501,1,"[""6"",""4"",""3"",""9"",""return""]","[0.41540000009536016,0.5906000000238123,0.8173000000714978,0.9992000000476651,1.3174999999999955]",,,,,,4,6439,Audio/6439.mp3,WAIS,0,1,1,1,1,,,,,,,,,,,,,,,,,,,,,,,,,,,,,,,,,,,,,,,,,,,,,,,,,,,,,,,,,,,,,,,,,,,,,,,,,,,,,,,,,,,,,,,,,,,,,,,,,,,,,,,,,,,,,,,,,,,,,,,
,857677498017,CBA,05/05/2001,001,2023-04-03_22h39.00.523,OS3_Mult_verification,2022.2.4,Win32,60.06006006,,,,,,,,,,,,,,,,,,,,,,,,,,,,,,,,,,,,,,,,,,,,,,,,,,,,,,,,0,2,2,2,1,digitSpan_stim/fourWAIS.xlsx,,,,,,,,,,,,,,,,,,,,,,,,,,,,,,,,,,,,,,,,,,,,,,,,,,,,,,,,,,,,,,,,,,,,,,,,,,,,,,,,,,,,,,,,,,,,,,,,,,,,,,,,,,,,,,,,,
,857677498017,CBA,05/05/2001,001,2023-04-03_22h39.00.523,OS3_Mult_verification,2022.2.4,Win32,60.06006006,,,,,,,,,,,,,,,,,,,,,,,,,,,,,,,,,,,,,7231,3.7342,0,"[""7"",""2"",""3"",""1"",""return""]","[0.9482999999523258,2.4732000000476546,3.149499999999989,3.4497999999522904,3.701399999976161]",,,,,,5,42731,Audio/42731.mp3,WAIS,0,0,0,0,1,,,,,,,,,,,,,,,,,,,,,,,,,,,,,,,,,,,,,,,,,,,,,,,,,,,,,,,,,,,,,,,,,,,,,,,,,,,,,,,,,,,,,,,,,,,,,,,,,,,,,,,,,,,,,,,,,,,,,,,
,857677498017,CBA,05/05/2001,001,2023-04-03_22h39.00.523,OS3_Mult_verification,2022.2.4,Win32,60.06006006,,,,,,,,,,,,,,,,,,,,,,,,,,,,,,,,,,,,,23574,2.0335,0,"[""2"",""3"",""5"",""7"",""4"",""return""]","[0.2831000000238646,0.46529999995232174,0.8366999999284985,1.237199999928464,1.638600000023871,2.003399999976182]",,,,,,5,75836,Audio/75836.mp3,WAIS,0,1,1,1,1,,,,,,,,,,,,,,,,,,,,,,,,,,,,,,,,,,,,,,,,,,,,,,,,,,,,,,,,,,,,,,,,,,,,,,,,,,,,,,,,,,,,,,,,,,,,,,,,,,,,,,,,,,,,,,,,,,,,,,,
,857677498017,CBA,05/05/2001,001,2023-04-03_22h39.00.523,OS3_Mult_verification,2022.2.4,Win32,60.06006006,,,,,,,,,,,,,,,,,,,,,,,,,,,,,,,,,,,,,,,,,,,,,,,WAIS,,,,,,,,,,,,,,,0,1,1,1,1,digitSpan_stim/WAIS.xlsx,,,,,,,,,,,,,,,,,,,,,,,,,,,,,,,,,,,,,,,,,,,,,,,,,,,,,,,,,,,,,,,,,,,,,,,,,,,,,,,,,,,,,,,,,,,,,,,,,,,,,,,,,,,
,857677498017,CBA,05/05/2001,001,2023-04-03_22h39.00.523,OS3_Mult_verification,2022.2.4,Win32,60.06006006,,,,,,,,,,,,,,,,,,,,,,,,,,,,,,,,,,,,,,,,,,,,,,,,,,,,,,,,,,,,,,,,,,,,0,0,0,0,1,,,,,,,,,,,,,,,,,,,,,,,,,,,,,,,,,,,,,,,,,,,,,,,,,,,,,,,,,,,,,,,,,,,,,,,,,,,,,,,,,,,,,,,,,,,,,,,,,,,,,,
,857677498017,CBA,05/05/2001,001,2023-04-03_22h39.00.523,OS3_Mult_verification,2022.2.4,Win32,60.06006006,,,,,,,,,,,,,,,,,,,,,,,,,,,,,,,,,,,,,,,,,,,,,,,,,,,,,,,,,,,,,,,,,,,,,,,,,0,0,0,0,1,0,0,1,,,,,,,,,,,,,,,,,,,,,,,,,,,,,,,,,,,,,,,,,,,,,,,,,,,,,,,,,,,,,,,,,,,,,,,,,,,,,,,,,,,,,,,,,,,,,,
,857677498017,CBA,05/05/2001,001,2023-04-03_22h39.00.523,OS3_Mult_verification,2022.2.4,Win32,60.06006006,,,,,,,,,,,,,,,,space,0.6834,,,,,,,,,,,,,,,,,,,,,,,,,,,,,,,,,,,,,,,,,,,,,,,,,,,,,,,,,,,,,,,,TRUE,2.684,-0.035185143,-0.337962963,1,0,0,0,0,0,1,1,practice trial,,3,3,,,,,,,,,,,,,,,,,,,,,,,,,,,,,,,,,,,,,,,,,,,,,,,,,,,,,,,,,,,,,,,,,,,,,,,,,,,,,,
,857677498017,CBA,05/05/2001,001,2023-04-03_22h39.00.523,OS3_Mult_verification,2022.2.4,Win32,60.06006006,,,,,,,,,,,,,,,,,,,,,,,,,,,,,,,,,,,,,,,,,,,,,,,,,,,,,,,,,,,,,,,,,,,,,,,,,,,,,,,,,TRUE,1.7843,0.067592621,-0.333333333,1,0,0,0,1,1,2,1,practice trial,,3,3,,,,,,,,,,,,,,,,,,,,,,,,,,,,,,,,,,,,,,,,,,,,,,,,,,,,,,,,,,,,,,,,,,,,,,,,,,,,,,
,857677498017,CBA,05/05/2001,001,2023-04-03_22h39.00.523,OS3_Mult_verification,2022.2.4,Win32,60.06006006,,,,,,,,,,,,,,,,,,,,,,,,,,,,,,,,,,,,,,,,,,,,,,,,,,,,,,,,,,,,,,,,,,,,,,,,,,,,,,,,,TRUE,2.5705,-0.032407407,-0.32685188,1,0,0,0,2,2,0,1,practice trial,,3,3,,,,,,,,,,,,,,,,,,,,,,,,,,,,,,,,,,,,,,,,,,,,,,,,,,,,,,,,,,,,,,,,,,,,,,,,,,,,,,
,857677498017,CBA,05/05/2001,001,2023-04-03_22h39.00.523,OS3_Mult_verification,2022.2.4,Win32,60.06006006,,,,,,,,,,,,,,,,,,,,,,,,,,,,,,,,,,,,,,,,,,,,,,,,,,,,,,,,,,,,,,,,,,,,,,,,,,,,,,,,,TRUE,1.1502,-0.016666624,-0.353703746,1,0,0,,,,,,Trial #1,,2,2,0,0,0,0,1,2,,,,,,,,,,,,,,,,,,,,,,,,,,,,,,,,,,,,,,,,,,,,,,,,,,,,,,,,,,,,,,,,,,,,,,,,
,857677498017,CBA,05/05/2001,001,2023-04-03_22h39.00.523,OS3_Mult_verification,2022.2.4,Win32,60.06006006,,,,,,,,,,,,,,,,,,,,,,,,,,,,,,,,,,,,,,,,,,,,,,,,,,,,,,,,,,,,,,,,,,,,,,,,,,,,,,,,,TRUE,1.3001,0.047222208,-0.335185228,1,0,0,,,,,,Trial #1,,2,2,0,1,1,1,1,2,,,,,,,,,,,,,,,,,,,,,,,,,,,,,,,,,,,,,,,,,,,,,,,,,,,,,,,,,,,,,,,,,,,,,,,,
,857677498017,CBA,05/05/2001,001,2023-04-03_22h39.00.523,OS3_Mult_verification,2022.2.4,Win32,60.06006006,,,,,,,,,,,,,,,,,,,,,,,,,,,,,,,,,,,,,,,,,,,,,,,,,,,,,,,,,,,,,,,,,,,,,,,,,,,,,,,,,TRUE,1.1498,-0.035185143,-0.360185199,1,0,0,,,,,,Trial #1,,2,2,0,2,2,2,1,2,,,,,,,,,,,,,,,,,,,,,,,,,,,,,,,,,,,,,,,,,,,,,,,,,,,,,,,,,,,,,,,,,,,,,,,,
,857677498017,CBA,05/05/2001,001,2023-04-03_22h39.00.523,OS3_Mult_verification,2022.2.4,Win32,60.06006006,,,,,,,,,,,,,,,,,,,,,,,,,,,,,,,,,,,,,,,,,,,,,,,,,,,,,,,,,,,,,,,,,,,,,,,,,,,,,,,,,TRUE,1.7006,0.018518519,-0.357407393,1,0,0,,,,,,Trial #2,,3,3,0,0,0,0,1,3,,,,,,,,,,,,,,,,,,,,,,,,,,,,,,,,,,,,,,,,,,,,,,,,,,,,,,,,,,,,,,,,,,,,,,,,
,857677498017,CBA,05/05/2001,001,2023-04-03_22h39.00.523,OS3_Mult_verification,2022.2.4,Win32,60.06006006,,,,,,,,,,,,,,,,,,,,,,,,,,,,,,,,,,,,,,,,,,,,,,,,,,,,,,,,,,,,,,,,,,,,,,,,,,,,,,,,,FALSE,3.5512,0.088888875,-0.354629658,1,0,0,,,,,,Trial #2,,3,3,0,1,1,1,1,3,,,,,,,,,,,,,,,,,,,,,,,,,,,,,,,,,,,,,,,,,,,,,,,,,,,,,,,,,,,,,,,,,,,,,,,,
,857677498017,CBA,05/05/2001,001,2023-04-03_22h39.00.523,OS3_Mult_verification,2022.2.4,Win32,60.06006006,,,,,,,,,,,,,,,,,,,,,,,,,,,,,,,,,,,,,,,,,,,,,,,,,,,,,,,,,,,,,,,,,,,,,,,,,,,,,,,,,TRUE,1.9446,0.071296339,-0.344444487,1,0,0,,,,,,Trial #2,,3,3,0,2,2,2,1,3,,,,,,,,,,,,,,,,,,,,,,,,,,,,,,,,,,,,,,,,,,,,,,,,,,,,,,,,,,,,,,,,,,,,,,,,
,857677498017,CBA,05/05/2001,001,2023-04-03_22h39.00.523,OS3_Mult_verification,2022.2.4,Win32,60.06006006,,,,,,,,,,,,,,,,,,,,,,,,,,,,,,,,,,,,,,,,,,,,,,,,,,,,,,,,,,,,,,,,,,,,,,,,,,,,,,,,,TRUE,1.7396,0.022222236,-0.362037023,1,0,0,,,,,,Trial #3,,3,3,0,0,0,0,1,4,,,,,,,,,,,,,,,,,,,,,,,,,,,,,,,,,,,,,,,,,,,,,,,,,,,,,,,,,,,,,,,,,,,,,,,,
,857677498017,CBA,05/05/2001,001,2023-04-03_22h39.00.523,OS3_Mult_verification,2022.2.4,Win32,60.06006006,,,,,,,,,,,,,,,,,,,,,,,,,,,,,,,,,,,,,,,,,,,,,,,,,,,,,,,,,,,,,,,,,,,,,,,,,,,,,,,,,TRUE,1.8257,0.017592607,-0.353703746,1,0,0,,,,,,Trial #3,,3,3,0,1,1,1,1,4,,,,,,,,,,,,,,,,,,,,,,,,,,,,,,,,,,,,,,,,,,,,,,,,,,,,,,,,,,,,,,,,,,,,,,,,
,857677498017,CBA,05/05/2001,001,2023-04-03_22h39.00.523,OS3_Mult_verification,2022.2.4,Win32,60.06006006,,,,,,,,,,,,,,,,,,,,,,,,,,,,,,,,,,,,,,,,,,,,,,,,,,,,,,,,,,,,,,,,,,,,,,,,,,,,,,,,,TRUE,1.8201,0.003703718,-0.349074116,1,0,0,,,,,,Trial #3,,3,3,0,2,2,2,1,4,,,,,,,,,,,,,,,,,,,,,,,,,,,,,,,,,,,,,,,,,,,,,,,,,,,,,,,,,,,,,,,,,,,,,,,,
,857677498017,CBA,05/05/2001,001,2023-04-03_22h39.00.523,OS3_Mult_verification,2022.2.4,Win32,60.06006006,,,,,,,,,,,,,,,,,,,,,,,,,,,,,,,,,,,,,,,,,,,,,,,,,,,,,,,,,,,,,,,,,,,,,,,,,,,,,,,,,FALSE,2.2694,0.045370384,-0.361111111,1,0,0,,,,,,Trial #4,,4,4,0,0,0,0,1,5,,,,,,,,,,,,,,,,,,,,,,,,,,,,,,,,,,,,,,,,,,,,,,,,,,,,,,,,,,,,,,,,,,,,,,,,
,857677498017,CBA,05/05/2001,001,2023-04-03_22h39.00.523,OS3_Mult_verification,2022.2.4,Win32,60.06006006,,,,,,,,,,,,,,,,,,,,,,,,,,,,,,,,,,,,,,,,,,,,,,,,,,,,,,,,,,,,,,,,,,,,,,,,,,,,,,,,,TRUE,2.1988,0.078703704,-0.336111139,1,0,0,,,,,,Trial #4,,4,4,0,1,1,1,1,5,,,,,,,,,,,,,,,,,,,,,,,,,,,,,,,,,,,,,,,,,,,,,,,,,,,,,,,,,,,,,,,,,,,,,,,,
,857677498017,CBA,05/05/2001,001,2023-04-03_22h39.00.523,OS3_Mult_verification,2022.2.4,Win32,60.06006006,,,,,,,,,,,,,,,,,,,,,,,,,,,,,,,,,,,,,,,,,,,,,,,,,,,,,,,,,,,,,,,,,,,,,,,,,,,,,,,,,TRUE,2.2097,-0.017592607,-0.358333376,1,0,0,,,,,,Trial #4,,4,4,0,2,2,2,1,5,,,,,,,,,,,,,,,,,,,,,,,,,,,,,,,,,,,,,,,,,,,,,,,,,,,,,,,,,,,,,,,,,,,,,,,,
,857677498017,CBA,05/05/2001,001,2023-04-03_22h39.00.523,OS3_Mult_verification,2022.2.4,Win32,60.06006006,,,,,,,,,,,,,,,,,,,,,,,,,,,,,,,,,,,,,,,,,,,,,,,,,,,,,,,,,,,,,,,,,,,,,,,,,,,,,,,,,TRUE,3.1424,-0.012036995,-0.349074116,1,0,0,,,,,,Trial #5,,4,4,0,0,0,0,1,6,,,,,,,,,,,,,,,,,,,,,,,,,,,,,,,,,,,,,,,,,,,,,,,,,,,,,,,,,,,,,,,,,,,,,,,,
,857677498017,CBA,05/05/2001,001,2023-04-03_22h39.00.523,OS3_Mult_verification,2022.2.4,Win32,60.06006006,,,,,,,,,,,,,,,,,,,,,,,,,,,,,,,,,,,,,,,,,,,,,,,,,,,,,,,,,,,,,,,,,,,,,,,,,,,,,,,,,TRUE,2.1878,0.078703704,-0.344444487,1,0,0,,,,,,Trial #5,,4,4,0,1,1,1,1,6,,,,,,,,,,,,,,,,,,,,,,,,,,,,,,,,,,,,,,,,,,,,,,,,,,,,,,,,,,,,,,,,,,,,,,,,
,857677498017,CBA,05/05/2001,001,2023-04-03_22h39.00.523,OS3_Mult_verification,2022.2.4,Win32,60.06006006,,,,,,,,,,,,,,,,,,,,,,,,,,,,,,,,,,,,,,,,,,,,,,,,,,,,,,,,,,,,,,,,,,,,,,,,,,,,,,,,,TRUE,2.4335,-0.04814812,-0.362037023,1,0,0,,,,,,Trial #5,,4,4,0,2,2,2,1,6,,,,,,,,,,,,,,,,,,,,,,,,,,,,,,,,,,,,,,,,,,,,,,,,,,,,,,,,,,,,,,,,,,,,,,,,
,857677498017,CBA,05/05/2001,001,2023-04-03_22h39.00.523,OS3_Mult_verification,2022.2.4,Win32,60.06006006,,,,,,,,,,,,,,,,,,,,,,,,,,,,,,,,,,,,,,,,,,,,,,,,,,,,,,,,,,,,,,,,,,,,,,,,,,,,,,,,,TRUE,2.5842,0.054629644,-0.37037037,1,0,0,,,,,,Trial #6,,4,4,0,0,0,0,1,7,,,,,,,,,,,,,,,,,,,,,,,,,,,,,,,,,,,,,,,,,,,,,,,,,,,,,,,,,,,,,,,,,,,,,,,,
,857677498017,CBA,05/05/2001,001,2023-04-03_22h39.00.523,OS3_Mult_verification,2022.2.4,Win32,60.06006006,,,,,,,,,,,,,,,,,,,,,,,,,,,,,,,,,,,,,,,,,,,,,,,,,,,,,,,,,,,,,,,,,,,,,,,,,,,,,,,,,TRUE,2.5594,0.074074074,-0.35092594,1,0,0,,,,,,Trial #6,,4,4,0,1,1,1,1,7,,,,,,,,,,,,,,,,,,,,,,,,,,,,,,,,,,,,,,,,,,,,,,,,,,,,,,,,,,,,,,,,,,,,,,,,
,857677498017,CBA,05/05/2001,001,2023-04-03_22h39.00.523,OS3_Mult_verification,2022.2.4,Win32,60.06006006,,,,,,,,,,,,,,,,,,,,,,,,,,,,,,,,,,,,,,,,,,,,,,,,,,,,,,,,,,,,,,,,,,,,,,,,,,,,,,,,,TRUE,3.9175,0.05277782,-0.339814857,1,0,0,,,,,,Trial #6,,4,4,0,2,2,2,1,7,,,,,,,,,,,,,,,,,,,,,,,,,,,,,,,,,,,,,,,,,,,,,,,,,,,,,,,,,,,,,,,,,,,,,,,,
,857677498017,CBA,05/05/2001,001,2023-04-03_22h39.00.523,OS3_Mult_verification,2022.2.4,Win32,60.06006006,,,,,,,,,,,,,,,,,,,,,,,,,,,,,,,,,,,,,,,,,,,,,,,,,,,,,,,,,,,,,,,,,,,,,,,,,,,,,,,,,TRUE,4.768,0.011111153,-0.348148134,1,0,0,,,,,,Trial #7,,4,4,0,0,0,0,1,8,,,,,,,,,,,,,,,,,,,,,,,,,,,,,,,,,,,,,,,,,,,,,,,,,,,,,,,,,,,,,,,,,,,,,,,,
,857677498017,CBA,05/05/2001,001,2023-04-03_22h39.00.523,OS3_Mult_verification,2022.2.4,Win32,60.06006006,,,,,,,,,,,,,,,,,,,,,,,,,,,,,,,,,,,,,,,,,,,,,,,,,,,,,,,,,,,,,,,,,,,,,,,,,,,,,,,,,TRUE,3.2178,0.063888903,-0.327777792,1,0,0,,,,,,Trial #7,,4,4,0,1,1,1,1,8,,,,,,,,,,,,,,,,,,,,,,,,,,,,,,,,,,,,,,,,,,,,,,,,,,,,,,,,,,,,,,,,,,,,,,,,
,857677498017,CBA,05/05/2001,001,2023-04-03_22h39.00.523,OS3_Mult_verification,2022.2.4,Win32,60.06006006,,,,,,,,,,,,,,,,,,,,,,,,,,,,,,,,,,,,,,,,,,,,,,,,,,,,,,,,,,,,,,,,,,,,,,,,,,,,,,,,,TRUE,3.5519,0.067592621,-0.343518504,1,0,0,,,,,,Trial #7,,4,4,0,2,2,2,1,8,,,,,,,,,,,,,,,,,,,,,,,,,,,,,,,,,,,,,,,,,,,,,,,,,,,,,,,,,,,,,,,,,,,,,,,,
,857677498017,CBA,05/05/2001,001,2023-04-03_22h39.00.523,OS3_Mult_verification,2022.2.4,Win32,60.06006006,,,,,,,,,,,,,,,,,,,,,,,,,,,,,,,,,,,,,,,,,,,,,,,,,,,,,,,,,,,,,,,,,,,,,,,,,,,,,,,,,TRUE,3.2179,-0.02870369,-0.351851852,1,0,0,,,,,,Trial #8,,5,5,0,0,0,0,1,9,,,,,,,,,,,,,,,,,,,,,,,,,,,,,,,,,,,,,,,,,,,,,,,,,,,,,,,,,,,,,,,,,,,,,,,,
,857677498017,CBA,05/05/2001,001,2023-04-03_22h39.00.523,OS3_Mult_verification,2022.2.4,Win32,60.06006006,,,,,,,,,,,,,,,,,,,,,,,,,,,,,,,,,,,,,,,,,,,,,,,,,,,,,,,,,,,,,,,,,,,,,,,,,,,,,,,,,TRUE,3.9678,0.010185171,-0.339814857,1,0,0,,,,,,Trial #8,,5,5,0,1,1,1,1,9,,,,,,,,,,,,,,,,,,,,,,,,,,,,,,,,,,,,,,,,,,,,,,,,,,,,,,,,,,,,,,,,,,,,,,,,
,857677498017,CBA,05/05/2001,001,2023-04-03_22h39.00.523,OS3_Mult_verification,2022.2.4,Win32,60.06006006,,,,,,,,,,,,,,,,,,,,,,,,,,,,,,,,,,,,,,,,,,,,,,,,,,,,,,,,,,,,,,,,,,,,,,,,,,,,,,,,,TRUE,3.4003,0.07222225,-0.360185199,1,0,0,,,,,,Trial #8,,5,5,0,2,2,2,1,9,,,,,,,,,,,,,,,,,,,,,,,,,,,,,,,,,,,,,,,,,,,,,,,,,,,,,,,,,,,,,,,,,,,,,,,,
,857677498017,CBA,05/05/2001,001,2023-04-03_22h39.00.523,OS3_Mult_verification,2022.2.4,Win32,60.06006006,,,,,,,,,,,,,,,,,,,,,,,,,,,,,,,,,,,,,,,,,,,,,,,,,,,,,,,,,,,,,,,,,,,,,,,,,,,,,,,,,TRUE,3.8172,-0.017592607,-0.35092594,1,0,0,,,,,,Trial #9,,5,5,0,0,0,0,1,10,,,,,,,,,,,,,,,,,,,,,,,,,,,,,,,,,,,,,,,,,,,,,,,,,,,,,,,,,,,,,,,,,,,,,,,,
,857677498017,CBA,05/05/2001,001,2023-04-03_22h39.00.523,OS3_Mult_verification,2022.2.4,Win32,60.06006006,,,,,,,,,,,,,,,,,,,,,,,,,,,,,,,,,,,,,,,,,,,,,,,,,,,,,,,,,,,,,,,,,,,,,,,,,,,,,,,,,TRUE,4.6096,0.047222208,-0.336111139,1,0,0,,,,,,Trial #9,,5,5,0,1,1,1,1,10,,,,,,,,,,,,,,,,,,,,,,,,,,,,,,,,,,,,,,,,,,,,,,,,,,,,,,,,,,,,,,,,,,,,,,,,
,857677498017,CBA,05/05/2001,001,2023-04-03_22h39.00.523,OS3_Mult_verification,2022.2.4,Win32,60.06006006,,,,,,,,,,,,,,,,,,,,,,,,,,,,,,,,,,,,,,,,,,,,,,,,,,,,,,,,,,,,,,,,,,,,,,,,,,,,,,,,,TRUE,3.9682,0.089814857,-0.368518547,1,0,0,,,,,,Trial #9,,5,5,0,2,2,2,1,10,,,,,,,,,,,,,,,,,,,,,,,,,,,,,,,,,,,,,,,,,,,,,,,,,,,,,,,,,,,,,,,,,,,,,,,,
,857677498017,CBA,05/05/2001,001,2023-04-03_22h39.00.523,OS3_Mult_verification,2022.2.4,Win32,60.06006006,,,,,,,,,,,,,,,,,,,,,,,,,,,,,,,,,,,,,,,,,,,,,,,,,,,,,,,,,,,,,,,,,,,,,,,,,,,,,,,,,TRUE,5.2855,-0.008333347,-0.354629658,1,0,0,,,,,,Trial #10,,5,5,0,0,0,0,1,11,,,,,,,,,,,,,,,,,,,,,,,,,,,,,,,,,,,,,,,,,,,,,,,,,,,,,,,,,,,,,,,,,,,,,,,,
,857677498017,CBA,05/05/2001,001,2023-04-03_22h39.00.523,OS3_Mult_verification,2022.2.4,Win32,60.06006006,,,,,,,,,,,,,,,,,,,,,,,,,,,,,,,,,,,,,,,,,,,,,,,,,,,,,,,,,,,,,,,,,,,,,,,,,,,,,,,,,TRUE,4.2682,0.012037065,-0.343518504,1,0,0,,,,,,Trial #10,,5,5,0,1,1,1,1,11,,,,,,,,,,,,,,,,,,,,,,,,,,,,,,,,,,,,,,,,,,,,,,,,,,,,,,,,,,,,,,,,,,,,,,,,
,857677498017,CBA,05/05/2001,001,2023-04-03_22h39.00.523,OS3_Mult_verification,2022.2.4,Win32,60.06006006,,,,,,,,,,,,,,,,,,,,,,,,,,,,,,,,,,,,,,,,,,,,,,,,,,,,,,,,,,,,,,,,,,,,,,,,,,,,,,,,,TRUE,4.6255,0.08148151,-0.351851852,1,0,0,,,,,,Trial #10,,5,5,0,2,2,2,1,11,,,,,,,,,,,,,,,,,,,,,,,,,,,,,,,,,,,,,,,,,,,,,,,,,,,,,,,,,,,,,,,,,,,,,,,,
,857677498017,CBA,05/05/2001,001,2023-04-03_22h39.00.523,OS3_Mult_verification,2022.2.4,Win32,60.06006006,,,,,,,,,,,,,,,,,,,,,,,,,,,,,,,,,,,,,,,,,,,,,,,,,,,,,,,,,,,,,,,,,,,,,,,,,,,,,,,,,FALSE,5.6346,0.104629658,-0.357407393,1,0,0,,,,,,Trial #11,,5,5,0,0,0,0,1,12,,,,,,,,,,,,,,,,,,,,,,,,,,,,,,,,,,,,,,,,,,,,,,,,,,,,,,,,,,,,,,,,,,,,,,,,
,857677498017,CBA,05/05/2001,001,2023-04-03_22h39.00.523,OS3_Mult_verification,2022.2.4,Win32,60.06006006,,,,,,,,,,,,,,,,,,,,,,,,,,,,,,,,,,,,,,,,,,,,,,,,,,,,,,,,,,,,,,,,,,,,,,,,,,,,,,,,,FALSE,4.9765,0.094444487,-0.389814801,1,0,0,,,,,,Trial #11,,5,5,0,1,1,1,1,12,,,,,,,,,,,,,,,,,,,,,,,,,,,,,,,,,,,,,,,,,,,,,,,,,,,,,,,,,,,,,,,,,,,,,,,,
,857677498017,CBA,05/05/2001,001,2023-04-03_22h39.00.523,OS3_Mult_verification,2022.2.4,Win32,60.06006006,,,,,,,,,,,,,,,,,,,,,,,,,,,,,,,,,,,,,,,,,,,,,,,,,,,,,,,,,,,,,,,,,,,,,,,,,,,,,,,,,FALSE,5.9686,-0.011111083,-0.348148134,1,0,0,,,,,,Trial #11,,5,5,0,2,2,2,1,12,,,,,,,,,,,,,,,,,,,,,,,,,,,,,,,,,,,,,,,,,,,,,,,,,,,,,,,,,,,,,,,,,,,,,,,,
,857677498017,CBA,05/05/2001,001,2023-04-03_22h39.00.523,OS3_Mult_verification,2022.2.4,Win32,60.06006006,,,,,,,,,,,,,,,,,,,,,,,,,,,,,,,,,,,,,,,,,,,,,,,,,,,,,,,,,,,,,,,,,,,,,,,,,,,,,,,,,,,,,,,,,,,,,,,,,,,,,,,0,0,0,0,1,,,,,,,,,,,,,,,,,,,,,,,,,,,,,,,,,,,,,,,,,,,,,,,,,,,,,,,,,,,,,,,,,,,
,857677498017,CBA,05/05/2001,001,2023-04-03_22h39.00.523,OS3_Mult_verification,2022.2.4,Win32,60.06006006,,,,,,,,,,,,,,,,,,,,,,,,,,,,,,,,,,,,,,,,,,,,,,,,,,,,,,,,,,,,,,,,,,,,,,,,,0,1,1,1,1,0,1,0,,,,,,,,,,,,,,,,,,,,,,,,,,,,,,,,,,,,,,,,,,,,,,,,,,,,,,,,,,,,,,,,,,,,,,,,,,,,,,,,,,,,,,,,,,,,,,
,857677498017,CBA,05/05/2001,001,2023-04-03_22h39.00.523,OS3_Mult_verification,2022.2.4,Win32,60.06006006,,,,,,,,,,,,,,,,space,0.7533,,,,,,,,,,,,,,,,,,,,,,,,,,,,,,,,,,,,,,,,,,,,,,,,,,,,,,,,,,,,,,,,,,,,,,,,,,,,,,,,,,,,,,,,,,,right,1,2.693,0,0,0,2,1,practice,4,9,4 | 9,5,0.06,0.06,neutral,right,,,,,,,,,,,,,,,,,,,,,,,,,,,,,,,,,,,,,,,,,,,,,,,,,,
,857677498017,CBA,05/05/2001,001,2023-04-03_22h39.00.523,OS3_Mult_verification,2022.2.4,Win32,60.06006006,,,,,,,,,,,,,,,,,,,,,,,,,,,,,,,,,,,,,,,,,,,,,,,,,,,,,,,,,,,,,,,,,,,,,,,,,,,,,,,,,,,,,,,,,,,,,,,,,,,,,,,,,,,,right,1,0.4979,0,1,1,0,1,practice,1,2,1 | 2,1,0.05,0.065,congruent,right,,,,,,,,,,,,,,,,,,,,,,,,,,,,,,,,,,,,,,,,,,,,,,,,,,
,857677498017,CBA,05/05/2001,001,2023-04-03_22h39.00.523,OS3_Mult_verification,2022.2.4,Win32,60.06006006,,,,,,,,,,,,,,,,,,,,,,,,,,,,,,,,,,,,,,,,,,,,,,,,,,,,,,,,,,,,,,,,,,,,,,,,,,,,,,,,,,,,,,,,,,,,,,,,,,,,,,,,,,,,left,0,0.5331,0,2,2,1,1,practice,7,8,7 | 8,1,0.065,0.05,incongruent,right,,,,,,,,,,,,,,,,,,,,,,,,,,,,,,,,,,,,,,,,,,,,,,,,,,
,857677498017,CBA,05/05/2001,001,2023-04-03_22h39.00.523,OS3_Mult_verification,2022.2.4,Win32,60.06006006,,,,,,,,,,,,,,,,,,,,,,,,,,,,,,,,,,,,,,,,,,,,,,,,,,,,,,,,,,,,,,,,,,,,,,,,,,,,,,,,,,,,,,,,,,,,,,,,,,,,,,,,,,,,right,0,0.7056,,,,,,magnitude,4,3,4 | 3,1,0.05,0.065,incongruent,left,0,0,0,29,1,,,,,,,,,,,,,,,,,,,,,,,,,,,,,,,,,,,,,,,,,,,,,
,857677498017,CBA,05/05/2001,001,2023-04-03_22h39.00.523,OS3_Mult_verification,2022.2.4,Win32,60.06006006,,,,,,,,,,,,,,,,,,,,,,,,,,,,,,,,,,,,,,,,,,,,,,,,,,,,,,,,,,,,,,,,,,,,,,,,,,,,,,,,,,,,,,,,,,,,,,,,,,,,,,,,,,,,right,0,0.7168,,,,,,magnitude,6,1,6 | 1,5,0.05,0.065,incongruent,left,0,1,1,44,1,,,,,,,,,,,,,,,,,,,,,,,,,,,,,,,,,,,,,,,,,,,,,
,857677498017,CBA,05/05/2001,001,2023-04-03_22h39.00.523,OS3_Mult_verification,2022.2.4,Win32,60.06006006,,,,,,,,,,,,,,,,,,,,,,,,,,,,,,,,,,,,,,,,,,,,,,,,,,,,,,,,,,,,,,,,,,,,,,,,,,,,,,,,,,,,,,,,,,,,,,,,,,,,,,,,,,,,right,1,0.6171,,,,,,magnitude,6,8,6 | 8,2,0.05,0.065,congruent,right,0,2,2,10,1,,,,,,,,,,,,,,,,,,,,,,,,,,,,,,,,,,,,,,,,,,,,,
,857677498017,CBA,05/05/2001,001,2023-04-03_22h39.00.523,OS3_Mult_verification,2022.2.4,Win32,60.06006006,,,,,,,,,,,,,,,,,,,,,,,,,,,,,,,,,,,,,,,,,,,,,,,,,,,,,,,,,,,,,,,,,,,,,,,,,,,,,,,,,,,,,,,,,,,,,,,,,,,,,,,,,,,,left,0,0.6482,,,,,,magnitude,1,6,1 | 6,5,0.06,0.06,neutral,right,0,3,3,64,1,,,,,,,,,,,,,,,,,,,,,,,,,,,,,,,,,,,,,,,,,,,,,
,857677498017,CBA,05/05/2001,001,2023-04-03_22h39.00.523,OS3_Mult_verification,2022.2.4,Win32,60.06006006,,,,,,,,,,,,,,,,,,,,,,,,,,,,,,,,,,,,,,,,,,,,,,,,,,,,,,,,,,,,,,,,,,,,,,,,,,,,,,,,,,,,,,,,,,,,,,,,,,,,,,,,,,,,left,1,0.5508,,,,,,magnitude,7,2,7 | 2,5,0.065,0.05,congruent,left,0,4,4,21,1,,,,,,,,,,,,,,,,,,,,,,,,,,,,,,,,,,,,,,,,,,,,,
,857677498017,CBA,05/05/2001,001,2023-04-03_22h39.00.523,OS3_Mult_verification,2022.2.4,Win32,60.06006006,,,,,,,,,,,,,,,,,,,,,,,,,,,,,,,,,,,,,,,,,,,,,,,,,,,,,,,,,,,,,,,,,,,,,,,,,,,,,,,,,,,,,,,,,,,,,,,,,,,,,,,,,,,,right,0,0.6193,,,,,,magnitude,3,1,3 | 1,2,0.06,0.06,neutral,left,0,5,5,60,1,,,,,,,,,,,,,,,,,,,,,,,,,,,,,,,,,,,,,,,,,,,,,
,857677498017,CBA,05/05/2001,001,2023-04-03_22h39.00.523,OS3_Mult_verification,2022.2.4,Win32,60.06006006,,,,,,,,,,,,,,,,,,,,,,,,,,,,,,,,,,,,,,,,,,,,,,,,,,,,,,,,,,,,,,,,,,,,,,,,,,,,,,,,,,,,,,,,,,,,,,,,,,,,,,,,,,,,left,1,0.5564,,,,,,magnitude,4,2,4 | 2,2,0.05,0.065,incongruent,left,0,6,6,37,1,,,,,,,,,,,,,,,,,,,,,,,,,,,,,,,,,,,,,,,,,,,,,
,857677498017,CBA,05/05/2001,001,2023-04-03_22h39.00.523,OS3_Mult_verification,2022.2.4,Win32,60.06006006,,,,,,,,,,,,,,,,,,,,,,,,,,,,,,,,,,,,,,,,,,,,,,,,,,,,,,,,,,,,,,,,,,,,,,,,,,,,,,,,,,,,,,,,,,,,,,,,,,,,,,,,,,,,left,1,0.6034,,,,,,magnitude,9,8,9 | 8,1,0.065,0.05,congruent,left,0,7,7,7,1,,,,,,,,,,,,,,,,,,,,,,,,,,,,,,,,,,,,,,,,,,,,,
,857677498017,CBA,05/05/2001,001,2023-04-03_22h39.00.523,OS3_Mult_verification,2022.2.4,Win32,60.06006006,,,,,,,,,,,,,,,,,,,,,,,,,,,,,,,,,,,,,,,,,,,,,,,,,,,,,,,,,,,,,,,,,,,,,,,,,,,,,,,,,,,,,,,,,,,,,,,,,,,,,,,,,,,,left,0,0.5574,,,,,,magnitude,6,8,6 | 8,2,0.065,0.05,incongruent,right,0,8,8,34,1,,,,,,,,,,,,,,,,,,,,,,,,,,,,,,,,,,,,,,,,,,,,,
,857677498017,CBA,05/05/2001,001,2023-04-03_22h39.00.523,OS3_Mult_verification,2022.2.4,Win32,60.06006006,,,,,,,,,,,,,,,,,,,,,,,,,,,,,,,,,,,,,,,,,,,,,,,,,,,,,,,,,,,,,,,,,,,,,,,,,,,,,,,,,,,,,,,,,,,,,,,,,,,,,,,,,,,,right,1,0.5979,,,,,,magnitude,8,9,8 | 9,1,0.06,0.06,neutral,right,0,9,9,51,1,,,,,,,,,,,,,,,,,,,,,,,,,,,,,,,,,,,,,,,,,,,,,
,857677498017,CBA,05/05/2001,001,2023-04-03_22h39.00.523,OS3_Mult_verification,2022.2.4,Win32,60.06006006,,,,,,,,,,,,,,,,,,,,,,,,,,,,,,,,,,,,,,,,,,,,,,,,,,,,,,,,,,,,,,,,,,,,,,,,,,,,,,,,,,,,,,,,,,,,,,,,,,,,,,,,,,,,left,1,0.5807,,,,,,magnitude,9,4,9 | 4,5,0.06,0.06,neutral,left,0,10,10,71,1,,,,,,,,,,,,,,,,,,,,,,,,,,,,,,,,,,,,,,,,,,,,,
,857677498017,CBA,05/05/2001,001,2023-04-03_22h39.00.523,OS3_Mult_verification,2022.2.4,Win32,60.06006006,,,,,,,,,,,,,,,,,,,,,,,,,,,,,,,,,,,,,,,,,,,,,,,,,,,,,,,,,,,,,,,,,,,,,,,,,,,,,,,,,,,,,,,,,,,,,,,,,,,,,,,,,,,,right,0,0.7515,,,,,,magnitude,8,3,8 | 3,5,0.05,0.065,incongruent,left,0,11,11,46,1,,,,,,,,,,,,,,,,,,,,,,,,,,,,,,,,,,,,,,,,,,,,,
,857677498017,CBA,05/05/2001,001,2023-04-03_22h39.00.523,OS3_Mult_verification,2022.2.4,Win32,60.06006006,,,,,,,,,,,,,,,,,,,,,,,,,,,,,,,,,,,,,,,,,,,,,,,,,,,,,,,,,,,,,,,,,,,,,,,,,,,,,,,,,,,,,,,,,,,,,,,,,,,,,,,,,,,,left,1,0.5818,,,,,,magnitude,8,3,8 | 3,5,0.06,0.06,neutral,left,0,12,12,70,1,,,,,,,,,,,,,,,,,,,,,,,,,,,,,,,,,,,,,,,,,,,,,
,857677498017,CBA,05/05/2001,001,2023-04-03_22h39.00.523,OS3_Mult_verification,2022.2.4,Win32,60.06006006,,,,,,,,,,,,,,,,,,,,,,,,,,,,,,,,,,,,,,,,,,,,,,,,,,,,,,,,,,,,,,,,,,,,,,,,,,,,,,,,,,,,,,,,,,,,,,,,,,,,,,,,,,,,right,1,0.5505,,,,,,magnitude,3,4,3 | 4,1,0.06,0.06,neutral,right,0,13,13,49,1,,,,,,,,,,,,,,,,,,,,,,,,,,,,,,,,,,,,,,,,,,,,,
,857677498017,CBA,05/05/2001,001,2023-04-03_22h39.00.523,OS3_Mult_verification,2022.2.4,Win32,60.06006006,,,,,,,,,,,,,,,,,,,,,,,,,,,,,,,,,,,,,,,,,,,,,,,,,,,,,,,,,,,,,,,,,,,,,,,,,,,,,,,,,,,,,,,,,,,,,,,,,,,,,,,,,,,,left,0,1.151,,,,,,magnitude,2,7,2 | 7,5,0.06,0.06,neutral,right,0,14,14,65,1,,,,,,,,,,,,,,,,,,,,,,,,,,,,,,,,,,,,,,,,,,,,,
,857677498017,CBA,05/05/2001,001,2023-04-03_22h39.00.523,OS3_Mult_verification,2022.2.4,Win32,60.06006006,,,,,,,,,,,,,,,,,,,,,,,,,,,,,,,,,,,,,,,,,,,,,,,,,,,,,,,,,,,,,,,,,,,,,,,,,,,,,,,,,,,,,,,,,,,,,,,,,,,,,,,,,,,,left,1,0.551,,,,,,magnitude,8,3,8 | 3,5,0.065,0.05,congruent,left,0,15,15,22,1,,,,,,,,,,,,,,,,,,,,,,,,,,,,,,,,,,,,,,,,,,,,,
,857677498017,CBA,05/05/2001,001,2023-04-03_22h39.00.523,OS3_Mult_verification,2022.2.4,Win32,60.06006006,,,,,,,,,,,,,,,,,,,,,,,,,,,,,,,,,,,,,,,,,,,,,,,,,,,,,,,,,,,,,,,,,,,,,,,,,,,,,,,,,,,,,,,,,,,,,,,,,,,,,,,,,,,,right,1,0.5514,,,,,,magnitude,7,9,7 | 9,2,0.05,0.065,congruent,right,0,16,16,11,1,,,,,,,,,,,,,,,,,,,,,,,,,,,,,,,,,,,,,,,,,,,,,
,857677498017,CBA,05/05/2001,001,2023-04-03_22h39.00.523,OS3_Mult_verification,2022.2.4,Win32,60.06006006,,,,,,,,,,,,,,,,,,,,,,,,,,,,,,,,,,,,,,,,,,,,,,,,,,,,,,,,,,,,,,,,,,,,,,,,,,,,,,,,,,,,,,,,,,,,,,,,,,,,,,,,,,,,left,1,0.5988,,,,,,magnitude,2,1,2 | 1,1,0.06,0.06,neutral,left,0,17,17,52,1,,,,,,,,,,,,,,,,,,,,,,,,,,,,,,,,,,,,,,,,,,,,,
,857677498017,CBA,05/05/2001,001,2023-04-03_22h39.00.523,OS3_Mult_verification,2022.2.4,Win32,60.06006006,,,,,,,,,,,,,,,,,,,,,,,,,,,,,,,,,,,,,,,,,,,,,,,,,,,,,,,,,,,,,,,,,,,,,,,,,,,,,,,,,,,,,,,,,,,,,,,,,,,,,,,,,,,,right,1,0.9011,,,,,,magnitude,2,4,2 | 4,2,0.06,0.06,neutral,right,0,18,18,57,1,,,,,,,,,,,,,,,,,,,,,,,,,,,,,,,,,,,,,,,,,,,,,
,857677498017,CBA,05/05/2001,001,2023-04-03_22h39.00.523,OS3_Mult_verification,2022.2.4,Win32,60.06006006,,,,,,,,,,,,,,,,,,,,,,,,,,,,,,,,,,,,,,,,,,,,,,,,,,,,,,,,,,,,,,,,,,,,,,,,,,,,,,,,,,,,,,,,,,,,,,,,,,,,,,,,,,,,left,1,0.6672,,,,,,magnitude,4,3,4 | 3,1,0.065,0.05,congruent,left,0,19,19,5,1,,,,,,,,,,,,,,,,,,,,,,,,,,,,,,,,,,,,,,,,,,,,,
,857677498017,CBA,05/05/2001,001,2023-04-03_22h39.00.523,OS3_Mult_verification,2022.2.4,Win32,60.06006006,,,,,,,,,,,,,,,,,,,,,,,,,,,,,,,,,,,,,,,,,,,,,,,,,,,,,,,,,,,,,,,,,,,,,,,,,,,,,,,,,,,,,,,,,,,,,,,,,,,,,,,,,,,,right,1,0.6526,,,,,,magnitude,1,6,1 | 6,5,0.05,0.065,congruent,right,0,20,20,16,1,,,,,,,,,,,,,,,,,,,,,,,,,,,,,,,,,,,,,,,,,,,,,
,857677498017,CBA,05/05/2001,001,2023-04-03_22h39.00.523,OS3_Mult_verification,2022.2.4,Win32,60.06006006,,,,,,,,,,,,,,,,,,,,,,,,,,,,,,,,,,,,,,,,,,,,,,,,,,,,,,,,,,,,,,,,,,,,,,,,,,,,,,,,,,,,,,,,,,,,,,,,,,,,,,,,,,,,left,1,0.5312,,,,,,magnitude,8,6,8 | 6,2,0.065,0.05,congruent,left,0,21,21,14,1,,,,,,,,,,,,,,,,,,,,,,,,,,,,,,,,,,,,,,,,,,,,,
,857677498017,CBA,05/05/2001,001,2023-04-03_22h39.00.523,OS3_Mult_verification,2022.2.4,Win32,60.06006006,,,,,,,,,,,,,,,,,,,,,,,,,,,,,,,,,,,,,,,,,,,,,,,,,,,,,,,,,,,,,,,,,,,,,,,,,,,,,,,,,,,,,,,,,,,,,,,,,,,,,,,,,,,,right,0,0.6205,,,,,,magnitude,9,4,9 | 4,5,0.05,0.065,incongruent,left,0,22,22,47,1,,,,,,,,,,,,,,,,,,,,,,,,,,,,,,,,,,,,,,,,,,,,,
,857677498017,CBA,05/05/2001,001,2023-04-03_22h39.00.523,OS3_Mult_verification,2022.2.4,Win32,60.06006006,,,,,,,,,,,,,,,,,,,,,,,,,,,,,,,,,,,,,,,,,,,,,,,,,,,,,,,,,,,,,,,,,,,,,,,,,,,,,,,,,,,,,,,,,,,,,,,,,,,,,,,,,,,,right,1,0.6564,,,,,,magnitude,3,8,3 | 8,5,0.065,0.05,incongruent,right,0,23,23,42,1,,,,,,,,,,,,,,,,,,,,,,,,,,,,,,,,,,,,,,,,,,,,,
,857677498017,CBA,05/05/2001,001,2023-04-03_22h39.00.523,OS3_Mult_verification,2022.2.4,Win32,60.06006006,,,,,,,,,,,,,,,,,,,,,,,,,,,,,,,,,,,,,,,,,,,,,,,,,,,,,,,,,,,,,,,,,,,,,,,,,,,,,,,,,,,,,,,,,,,,,,,,,,,,,,,,,,,,left,1,0.5507,,,,,,magnitude,9,7,9 | 7,2,0.065,0.05,congruent,left,0,24,24,15,1,,,,,,,,,,,,,,,,,,,,,,,,,,,,,,,,,,,,,,,,,,,,,
,857677498017,CBA,05/05/2001,001,2023-04-03_22h39.00.523,OS3_Mult_verification,2022.2.4,Win32,60.06006006,,,,,,,,,,,,,,,,,,,,,,,,,,,,,,,,,,,,,,,,,,,,,,,,,,,,,,,,,,,,,,,,,,,,,,,,,,,,,,,,,,,,,,,,,,,,,,,,,,,,,,,,,,,,right,1,1.0512,,,,,,magnitude,8,9,8 | 9,1,0.065,0.05,incongruent,right,0,25,25,27,1,,,,,,,,,,,,,,,,,,,,,,,,,,,,,,,,,,,,,,,,,,,,,
,857677498017,CBA,05/05/2001,001,2023-04-03_22h39.00.523,OS3_Mult_verification,2022.2.4,Win32,60.06006006,,,,,,,,,,,,,,,,,,,,,,,,,,,,,,,,,,,,,,,,,,,,,,,,,,,,,,,,,,,,,,,,,,,,,,,,,,,,,,,,,,,,,,,,,,,,,,,,,,,,,,,,,,,,right,1,0.5895,,,,,,magnitude,4,9,4 | 9,5,0.05,0.065,congruent,right,0,26,26,19,1,,,,,,,,,,,,,,,,,,,,,,,,,,,,,,,,,,,,,,,,,,,,,
,857677498017,CBA,05/05/2001,001,2023-04-03_22h39.00.523,OS3_Mult_verification,2022.2.4,Win32,60.06006006,,,,,,,,,,,,,,,,,,,,,,,,,,,,,,,,,,,,,,,,,,,,,,,,,,,,,,,,,,,,,,,,,,,,,,,,,,,,,,,,,,,,,,,,,,,,,,,,,,,,,,,,,,,,right,1,0.5577,,,,,,magnitude,3,8,3 | 8,5,0.05,0.065,congruent,right,0,27,27,18,1,,,,,,,,,,,,,,,,,,,,,,,,,,,,,,,,,,,,,,,,,,,,,
,857677498017,CBA,05/05/2001,001,2023-04-03_22h39.00.523,OS3_Mult_verification,2022.2.4,Win32,60.06006006,,,,,,,,,,,,,,,,,,,,,,,,,,,,,,,,,,,,,,,,,,,,,,,,,,,,,,,,,,,,,,,,,,,,,,,,,,,,,,,,,,,,,,,,,,,,,,,,,,,,,,,,,,,,left,1,0.6014,,,,,,magnitude,3,1,3 | 1,2,0.065,0.05,congruent,left,0,28,28,12,1,,,,,,,,,,,,,,,,,,,,,,,,,,,,,,,,,,,,,,,,,,,,,
,857677498017,CBA,05/05/2001,001,2023-04-03_22h39.00.523,OS3_Mult_verification,2022.2.4,Win32,60.06006006,,,,,,,,,,,,,,,,,,,,,,,,,,,,,,,,,,,,,,,,,,,,,,,,,,,,,,,,,,,,,,,,,,,,,,,,,,,,,,,,,,,,,,,,,,,,,,,,,,,,,,,,,,,,left,1,0.5812,,,,,,magnitude,7,6,7 | 6,1,0.065,0.05,congruent,left,0,29,29,6,1,,,,,,,,,,,,,,,,,,,,,,,,,,,,,,,,,,,,,,,,,,,,,
,857677498017,CBA,05/05/2001,001,2023-04-03_22h39.00.523,OS3_Mult_verification,2022.2.4,Win32,60.06006006,,,,,,,,,,,,,,,,,,,,,,,,,,,,,,,,,,,,,,,,,,,,,,,,,,,,,,,,,,,,,,,,,,,,,,,,,,,,,,,,,,,,,,,,,,,,,,,,,,,,,,,,,,,,right,1,0.6836,,,,,,magnitude,2,7,2 | 7,5,0.065,0.05,incongruent,right,0,30,30,41,1,,,,,,,,,,,,,,,,,,,,,,,,,,,,,,,,,,,,,,,,,,,,,
,857677498017,CBA,05/05/2001,001,2023-04-03_22h39.00.523,OS3_Mult_verification,2022.2.4,Win32,60.06006006,,,,,,,,,,,,,,,,,,,,,,,,,,,,,,,,,,,,,,,,,,,,,,,,,,,,,,,,,,,,,,,,,,,,,,,,,,,,,,,,,,,,,,,,,,,,,,,,,,,,,,,,,,,,right,1,0.717,,,,,,magnitude,7,9,7 | 9,2,0.06,0.06,neutral,right,0,31,31,59,1,,,,,,,,,,,,,,,,,,,,,,,,,,,,,,,,,,,,,,,,,,,,,
,857677498017,CBA,05/05/2001,001,2023-04-03_22h39.00.523,OS3_Mult_verification,2022.2.4,Win32,60.06006006,,,,,,,,,,,,,,,,,,,,,,,,,,,,,,,,,,,,,,,,,,,,,,,,,,,,,,,,,,,,,,,,,,,,,,,,,,,,,,,,,,,,,,,,,,,,,,,,,,,,,,,,,,,,left,1,0.5753,,,,,,magnitude,9,7,9 | 7,2,0.06,0.06,neutral,left,0,32,32,63,1,,,,,,,,,,,,,,,,,,,,,,,,,,,,,,,,,,,,,,,,,,,,,
,857677498017,CBA,05/05/2001,001,2023-04-03_22h39.00.523,OS3_Mult_verification,2022.2.4,Win32,60.06006006,,,,,,,,,,,,,,,,,,,,,,,,,,,,,,,,,,,,,,,,,,,,,,,,,,,,,,,,,,,,,,,,,,,,,,,,,,,,,,,,,,,,,,,,,,,,,,,,,,,,,,,,,,,,left,1,0.9009,,,,,,magnitude,9,8,9 | 8,1,0.05,0.065,incongruent,left,0,33,33,31,1,,,,,,,,,,,,,,,,,,,,,,,,,,,,,,,,,,,,,,,,,,,,,
,857677498017,CBA,05/05/2001,001,2023-04-03_22h39.00.523,OS3_Mult_verification,2022.2.4,Win32,60.06006006,,,,,,,,,,,,,,,,,,,,,,,,,,,,,,,,,,,,,,,,,,,,,,,,,,,,,,,,,,,,,,,,,,,,,,,,,,,,,,,,,,,,,,,,,,,,,,,,,,,,,,,,,,,,left,1,1.1181,,,,,,magnitude,9,8,9 | 8,1,0.06,0.06,neutral,left,0,34,34,55,1,,,,,,,,,,,,,,,,,,,,,,,,,,,,,,,,,,,,,,,,,,,,,
,857677498017,CBA,05/05/2001,001,2023-04-03_22h39.00.523,OS3_Mult_verification,2022.2.4,Win32,60.06006006,,,,,,,,,,,,,,,,,,,,,,,,,,,,,,,,,,,,,,,,,,,,,,,,,,,,,,,,,,,,,,,,,,,,,,,,,,,,,,,,,,,,,,,,,,,,,,,,,,,,,,,,,,,,right,1,0.8143,,,,,,magnitude,4,9,4 | 9,5,0.06,0.06,neutral,right,0,35,35,67,1,,,,,,,,,,,,,,,,,,,,,,,,,,,,,,,,,,,,,,,,,,,,,
,857677498017,CBA,05/05/2001,001,2023-04-03_22h39.00.523,OS3_Mult_verification,2022.2.4,Win32,60.06006006,,,,,,,,,,,,,,,,,,,,,,,,,,,,,,,,,,,,,,,,,,,,,,,,,,,,,,,,,,,,,,,,,,,,,,,,,,,,,,,,,,,,,,,,,,,,,,,,,,,,,,,,,,,,right,1,0.7181,,,,,,magnitude,1,3,1 | 3,2,0.065,0.05,incongruent,right,0,36,36,32,1,,,,,,,,,,,,,,,,,,,,,,,,,,,,,,,,,,,,,,,,,,,,,
,857677498017,CBA,05/05/2001,001,2023-04-03_22h39.00.523,OS3_Mult_verification,2022.2.4,Win32,60.06006006,,,,,,,,,,,,,,,,,,,,,,,,,,,,,,,,,,,,,,,,,,,,,,,,,,,,,,,,,,,,,,,,,,,,,,,,,,,,,,,,,,,,,,,,,,,,,,,,,,,,,,,,,,,,right,1,0.6035,,,,,,magnitude,3,4,3 | 4,1,0.065,0.05,incongruent,right,0,37,37,25,1,,,,,,,,,,,,,,,,,,,,,,,,,,,,,,,,,,,,,,,,,,,,,
,857677498017,CBA,05/05/2001,001,2023-04-03_22h39.00.523,OS3_Mult_verification,2022.2.4,Win32,60.06006006,,,,,,,,,,,,,,,,,,,,,,,,,,,,,,,,,,,,,,,,,,,,,,,,,,,,,,,,,,,,,,,,,,,,,,,,,,,,,,,,,,,,,,,,,,,,,,,,,,,,,,,,,,,,left,1,0.6091,,,,,,magnitude,2,1,2 | 1,1,0.05,0.065,incongruent,left,0,38,38,28,1,,,,,,,,,,,,,,,,,,,,,,,,,,,,,,,,,,,,,,,,,,,,,
,857677498017,CBA,05/05/2001,001,2023-04-03_22h39.00.523,OS3_Mult_verification,2022.2.4,Win32,60.06006006,,,,,,,,,,,,,,,,,,,,,,,,,,,,,,,,,,,,,,,,,,,,,,,,,,,,,,,,,,,,,,,,,,,,,,,,,,,,,,,,,,,,,,,,,,,,,,,,,,,,,,,,,,,,right,1,0.5036,,,,,,magnitude,1,2,1 | 2,1,0.05,0.065,congruent,right,0,39,39,0,1,,,,,,,,,,,,,,,,,,,,,,,,,,,,,,,,,,,,,,,,,,,,,
,857677498017,CBA,05/05/2001,001,2023-04-03_22h39.00.523,OS3_Mult_verification,2022.2.4,Win32,60.06006006,,,,,,,,,,,,,,,,,,,,,,,,,,,,,,,,,,,,,,,,,,,,,,,,,,,,,,,,,,,,,,,,,,,,,,,,,,,,,,,,,,,,,,,,,,,,,,,,,,,,,,,,,,,,right,1,0.5527,,,,,,magnitude,3,4,3 | 4,1,0.05,0.065,congruent,right,0,40,40,1,1,,,,,,,,,,,,,,,,,,,,,,,,,,,,,,,,,,,,,,,,,,,,,
,857677498017,CBA,05/05/2001,001,2023-04-03_22h39.00.523,OS3_Mult_verification,2022.2.4,Win32,60.06006006,,,,,,,,,,,,,,,,,,,,,,,,,,,,,,,,,,,,,,,,,,,,,,,,,,,,,,,,,,,,,,,,,,,,,,,,,,,,,,,,,,,,,,,,,,,,,,,,,,,,,,,,,,,,right,1,0.5407,,,,,,magnitude,1,6,1 | 6,5,0.065,0.05,incongruent,right,0,41,41,40,1,,,,,,,,,,,,,,,,,,,,,,,,,,,,,,,,,,,,,,,,,,,,,
,857677498017,CBA,05/05/2001,001,2023-04-03_22h39.00.523,OS3_Mult_verification,2022.2.4,Win32,60.06006006,,,,,,,,,,,,,,,,,,,,,,,,,,,,,,,,,,,,,,,,,,,,,,,,,,,,,,,,,,,,,,,,,,,,,,,,,,,,,,,,,,,,,,,,,,,,,,,,,,,,,,,,,,,,left,1,0.4843,,,,,,magnitude,6,1,6 | 1,5,0.065,0.05,congruent,left,0,42,42,20,1,,,,,,,,,,,,,,,,,,,,,,,,,,,,,,,,,,,,,,,,,,,,,
,857677498017,CBA,05/05/2001,001,2023-04-03_22h39.00.523,OS3_Mult_verification,2022.2.4,Win32,60.06006006,,,,,,,,,,,,,,,,,,,,,,,,,,,,,,,,,,,,,,,,,,,,,,,,,,,,,,,,,,,,,,,,,,,,,,,,,,,,,,,,,,,,,,,,,,,,,,,,,,,,,,,,,,,,right,1,0.4651,,,,,,magnitude,6,7,6 | 7,1,0.06,0.06,neutral,right,0,43,43,50,1,,,,,,,,,,,,,,,,,,,,,,,,,,,,,,,,,,,,,,,,,,,,,
,857677498017,CBA,05/05/2001,001,2023-04-03_22h39.00.523,OS3_Mult_verification,2022.2.4,Win32,60.06006006,,,,,,,,,,,,,,,,,,,,,,,,,,,,,,,,,,,,,,,,,,,,,,,,,,,,,,,,,,,,,,,,,,,,,,,,,,,,,,,,,,,,,,,,,,,,,,,,,,,,,,,,,,,,left,1,0.5355,,,,,,magnitude,9,4,9 | 4,5,0.065,0.05,congruent,left,0,44,44,23,1,,,,,,,,,,,,,,,,,,,,,,,,,,,,,,,,,,,,,,,,,,,,,
,857677498017,CBA,05/05/2001,001,2023-04-03_22h39.00.523,OS3_Mult_verification,2022.2.4,Win32,60.06006006,,,,,,,,,,,,,,,,,,,,,,,,,,,,,,,,,,,,,,,,,,,,,,,,,,,,,,,,,,,,,,,,,,,,,,,,,,,,,,,,,,,,,,,,,,,,,,,,,,,,,,,,,,,,left,1,0.6672,,,,,,magnitude,7,2,7 | 2,5,0.06,0.06,neutral,left,0,45,45,69,1,,,,,,,,,,,,,,,,,,,,,,,,,,,,,,,,,,,,,,,,,,,,,
,857677498017,CBA,05/05/2001,001,2023-04-03_22h39.00.523,OS3_Mult_verification,2022.2.4,Win32,60.06006006,,,,,,,,,,,,,,,,,,,,,,,,,,,,,,,,,,,,,,,,,,,,,,,,,,,,,,,,,,,,,,,,,,,,,,,,,,,,,,,,,,,,,,,,,,,,,,,,,,,,,,,,,,,,left,1,0.4877,,,,,,magnitude,6,1,6 | 1,5,0.06,0.06,neutral,left,0,46,46,68,1,,,,,,,,,,,,,,,,,,,,,,,,,,,,,,,,,,,,,,,,,,,,,
,857677498017,CBA,05/05/2001,001,2023-04-03_22h39.00.523,OS3_Mult_verification,2022.2.4,Win32,60.06006006,,,,,,,,,,,,,,,,,,,,,,,,,,,,,,,,,,,,,,,,,,,,,,,,,,,,,,,,,,,,,,,,,,,,,,,,,,,,,,,,,,,,,,,,,,,,,,,,,,,,,,,,,,,,right,1,0.4468,,,,,,magnitude,2,4,2 | 4,2,0.05,0.065,congruent,right,0,47,47,9,1,,,,,,,,,,,,,,,,,,,,,,,,,,,,,,,,,,,,,,,,,,,,,
,857677498017,CBA,05/05/2001,001,2023-04-03_22h39.00.523,OS3_Mult_verification,2022.2.4,Win32,60.06006006,,,,,,,,,,,,,,,,,,,,,,,,,,,,,,,,,,,,,,,,,,,,,,,,,,,,,,,,,,,,,,,,,,,,,,,,,,,,,,,,,,,,,,,,,,,,,,,,,,,,,,,,,,,,right,1,0.4676,,,,,,magnitude,2,7,2 | 7,5,0.05,0.065,congruent,right,0,48,48,17,1,,,,,,,,,,,,,,,,,,,,,,,,,,,,,,,,,,,,,,,,,,,,,
,857677498017,CBA,05/05/2001,001,2023-04-03_22h39.00.523,OS3_Mult_verification,2022.2.4,Win32,60.06006006,,,,,,,,,,,,,,,,,,,,,,,,,,,,,,,,,,,,,,,,,,,,,,,,,,,,,,,,,,,,,,,,,,,,,,,,,,,,,,,,,,,,,,,,,,,,,,,,,,,,,,,,,,,,left,1,0.4947,,,,,,magnitude,7,6,7 | 6,1,0.06,0.06,neutral,left,0,49,49,54,1,,,,,,,,,,,,,,,,,,,,,,,,,,,,,,,,,,,,,,,,,,,,,
,857677498017,CBA,05/05/2001,001,2023-04-03_22h39.00.523,OS3_Mult_verification,2022.2.4,Win32,60.06006006,,,,,,,,,,,,,,,,,,,,,,,,,,,,,,,,,,,,,,,,,,,,,,,,,,,,,,,,,,,,,,,,,,,,,,,,,,,,,,,,,,,,,,,,,,,,,,,,,,,,,,,,,,,,left,1,0.5499,,,,,,magnitude,8,6,8 | 6,2,0.06,0.06,neutral,left,0,50,50,62,1,,,,,,,,,,,,,,,,,,,,,,,,,,,,,,,,,,,,,,,,,,,,,
,857677498017,CBA,05/05/2001,001,2023-04-03_22h39.00.523,OS3_Mult_verification,2022.2.4,Win32,60.06006006,,,,,,,,,,,,,,,,,,,,,,,,,,,,,,,,,,,,,,,,,,,,,,,,,,,,,,,,,,,,,,,,,,,,,,,,,,,,,,,,,,,,,,,,,,,,,,,,,,,,,,,,,,,,left,1,0.4843,,,,,,magnitude,8,6,8 | 6,2,0.05,0.065,incongruent,left,0,51,51,38,1,,,,,,,,,,,,,,,,,,,,,,,,,,,,,,,,,,,,,,,,,,,,,
,857677498017,CBA,05/05/2001,001,2023-04-03_22h39.00.523,OS3_Mult_verification,2022.2.4,Win32,60.06006006,,,,,,,,,,,,,,,,,,,,,,,,,,,,,,,,,,,,,,,,,,,,,,,,,,,,,,,,,,,,,,,,,,,,,,,,,,,,,,,,,,,,,,,,,,,,,,,,,,,,,,,,,,,,right,1,0.4689,,,,,,magnitude,1,3,1 | 3,2,0.05,0.065,congruent,right,0,52,52,8,1,,,,,,,,,,,,,,,,,,,,,,,,,,,,,,,,,,,,,,,,,,,,,
,857677498017,CBA,05/05/2001,001,2023-04-03_22h39.00.523,OS3_Mult_verification,2022.2.4,Win32,60.06006006,,,,,,,,,,,,,,,,,,,,,,,,,,,,,,,,,,,,,,,,,,,,,,,,,,,,,,,,,,,,,,,,,,,,,,,,,,,,,,,,,,,,,,,,,,,,,,,,,,,,,,,,,,,,left,1,0.451,,,,,,magnitude,7,2,7 | 2,5,0.05,0.065,incongruent,left,0,53,53,45,1,,,,,,,,,,,,,,,,,,,,,,,,,,,,,,,,,,,,,,,,,,,,,
,857677498017,CBA,05/05/2001,001,2023-04-03_22h39.00.523,OS3_Mult_verification,2022.2.4,Win32,60.06006006,,,,,,,,,,,,,,,,,,,,,,,,,,,,,,,,,,,,,,,,,,,,,,,,,,,,,,,,,,,,,,,,,,,,,,,,,,,,,,,,,,,,,,,,,,,,,,,,,,,,,,,,,,,,right,1,0.4697,,,,,,magnitude,6,7,6 | 7,1,0.05,0.065,congruent,right,0,54,54,2,1,,,,,,,,,,,,,,,,,,,,,,,,,,,,,,,,,,,,,,,,,,,,,
,857677498017,CBA,05/05/2001,001,2023-04-03_22h39.00.523,OS3_Mult_verification,2022.2.4,Win32,60.06006006,,,,,,,,,,,,,,,,,,,,,,,,,,,,,,,,,,,,,,,,,,,,,,,,,,,,,,,,,,,,,,,,,,,,,,,,,,,,,,,,,,,,,,,,,,,,,,,,,,,,,,,,,,,,right,1,0.5505,,,,,,magnitude,3,8,3 | 8,5,0.06,0.06,neutral,right,0,55,55,66,1,,,,,,,,,,,,,,,,,,,,,,,,,,,,,,,,,,,,,,,,,,,,,
,857677498017,CBA,05/05/2001,001,2023-04-03_22h39.00.523,OS3_Mult_verification,2022.2.4,Win32,60.06006006,,,,,,,,,,,,,,,,,,,,,,,,,,,,,,,,,,,,,,,,,,,,,,,,,,,,,,,,,,,,,,,,,,,,,,,,,,,,,,,,,,,,,,,,,,,,,,,,,,,,,,,,,,,,right,1,0.5671,,,,,,magnitude,1,2,1 | 2,1,0.065,0.05,incongruent,right,0,56,56,24,1,,,,,,,,,,,,,,,,,,,,,,,,,,,,,,,,,,,,,,,,,,,,,
,857677498017,CBA,05/05/2001,001,2023-04-03_22h39.00.523,OS3_Mult_verification,2022.2.4,Win32,60.06006006,,,,,,,,,,,,,,,,,,,,,,,,,,,,,,,,,,,,,,,,,,,,,,,,,,,,,,,,,,,,,,,,,,,,,,,,,,,,,,,,,,,,,,,,,,,,,,,,,,,,,,,,,,,,left,1,0.8182,,,,,,magnitude,7,6,7 | 6,1,0.05,0.065,incongruent,left,0,57,57,30,1,,,,,,,,,,,,,,,,,,,,,,,,,,,,,,,,,,,,,,,,,,,,,
,857677498017,CBA,05/05/2001,001,2023-04-03_22h39.00.523,OS3_Mult_verification,2022.2.4,Win32,60.06006006,,,,,,,,,,,,,,,,,,,,,,,,,,,,,,,,,,,,,,,,,,,,,,,,,,,,,,,,,,,,,,,,,,,,,,,,,,,,,,,,,,,,,,,,,,,,,,,,,,,,,,,,,,,,left,1,0.4681,,,,,,magnitude,4,2,4 | 2,2,0.065,0.05,congruent,left,0,58,58,13,1,,,,,,,,,,,,,,,,,,,,,,,,,,,,,,,,,,,,,,,,,,,,,
,857677498017,CBA,05/05/2001,001,2023-04-03_22h39.00.523,OS3_Mult_verification,2022.2.4,Win32,60.06006006,,,,,,,,,,,,,,,,,,,,,,,,,,,,,,,,,,,,,,,,,,,,,,,,,,,,,,,,,,,,,,,,,,,,,,,,,,,,,,,,,,,,,,,,,,,,,,,,,,,,,,,,,,,,right,1,0.517,,,,,,magnitude,6,8,6 | 8,2,0.06,0.06,neutral,right,0,59,59,58,1,,,,,,,,,,,,,,,,,,,,,,,,,,,,,,,,,,,,,,,,,,,,,
,857677498017,CBA,05/05/2001,001,2023-04-03_22h39.00.523,OS3_Mult_verification,2022.2.4,Win32,60.06006006,,,,,,,,,,,,,,,,,,,,,,,,,,,,,,,,,,,,,,,,,,,,,,,,,,,,,,,,,,,,,,,,,,,,,,,,,,,,,,,,,,,,,,,,,,,,,,,,,,,,,,,,,,,,left,1,0.5324,,,,,,magnitude,3,1,3 | 1,2,0.05,0.065,incongruent,left,0,60,60,36,1,,,,,,,,,,,,,,,,,,,,,,,,,,,,,,,,,,,,,,,,,,,,,
,857677498017,CBA,05/05/2001,001,2023-04-03_22h39.00.523,OS3_Mult_verification,2022.2.4,Win32,60.06006006,,,,,,,,,,,,,,,,,,,,,,,,,,,,,,,,,,,,,,,,,,,,,,,,,,,,,,,,,,,,,,,,,,,,,,,,,,,,,,,,,,,,,,,,,,,,,,,,,,,,,,,,,,,,left,1,0.4529,,,,,,magnitude,2,1,2 | 1,1,0.065,0.05,congruent,left,0,61,61,4,1,,,,,,,,,,,,,,,,,,,,,,,,,,,,,,,,,,,,,,,,,,,,,
