windowSize,participant,group,DOB (DD/MM/YEAR),session,date,expName,psychopyVersion,OS,frameRate,typing_instr_resp.keys,typing_instr_resp.rt,typing_response,typing_rt,typing_score,typingSpeed_input_resp.keys,typingSpeed_input_resp.rt,typing_speed_trials.thisRepN,typing_speed_trials.thisTrialN,typing_speed_trials.thisN,typing_speed_trials.thisIndex,typing_speed_trials.ran,typing_speed_stim,typing_report_resp.keys,typing_report_resp.rt,vpt_trial_resp1.keys,vpt_trial_resp1.rt,typedResponse,fluency_rt,fluency_score,fluencyInputResp.keys,fluencyInputResp.rt,fluencyPracLoop.thisRepN,fluencyPracLoop.thisTrialN,fluencyPracLoop.thisN,fluencyPracLoop.thisIndex,fluencyPracLoop.ran,problem,answers,fluencyLoop.thisRepN,fluencyLoop.thisTrialN,fluencyLoop.thisN,fluencyLoop.thisIndex,fluencyLoop.ran,sampleAudio_resp.keys,sampleAudio_resp.rt,subjResponse,audio_rt,DS_score,inputResp.keys,inputResp.rt,audioPracticeLoop.thisRepN,audioPracticeLoop.thisTrialN,audioPracticeLoop.thisN,audioPracticeLoop.thisIndex,audioPracticeLoop.ran,digitSpan,digits_audioStim,soundsFile,typeDS,audioTrials_Loop.thisRepN,audioTrials_Loop.thisTrialN,audioTrials_Loop.thisN,audioTrials_Loop.thisIndex,audioTrials_Loop.ran,audioBlocks_loop.thisRepN,audioBlocks_loop.thisTrialN,audioBlocks_loop.thisN,audioBlocks_loop.thisIndex,audioBlocks_loop.ran,ConditionFile,digitSpanTask_loop.thisRepN,digitSpanTask_loop.thisTrialN,digitSpanTask_loop.thisN,digitSpanTask_loop.thisIndex,digitSpanTask_loop.ran,dsFile,TASK_C.thisRepN,TASK_C.thisTrialN,TASK_C.thisN,TASK_C.thisIndex,TASK_C.ran,controlTaskOrder.thisRepN,controlTaskOrder.thisTrialN,controlTaskOrder.thisN,controlTaskOrder.thisIndex,controlTaskOrder.ran,nRepsTask1,nRepsTask2,nRepsTask3,stroopResp.keys,stroopResp.corr,stroopResp.rt,stroopPracLoop.thisRepN,stroopPracLoop.thisTrialN,stroopPracLoop.thisN,stroopPracLoop.thisIndex,stroopPracLoop.ran,stroopCond,leftNo,rightNo,displayProblem,numDistance,leftNo_size,rightNo_size,Dims,keyAnswer,stroopLoop.thisRepN,stroopLoop.thisTrialN,stroopLoop.thisN,stroopLoop.thisIndex,stroopLoop.ran,stroopBlocks.thisRepN,stroopBlocks.thisTrialN,stroopBlocks.thisN,stroopBlocks.thisIndex,stroopBlocks.ran,stroop_condition,stroop_pracFile,ActionInst,instrImage,TASK_A.thisRepN,TASK_A.thisTrialN,TASK_A.thisN,TASK_A.thisIndex,TASK_A.ran,vptCorrect,vpt_rt,respMouse.x,respMouse.y,respMouse.leftButton,respMouse.midButton,respMouse.rightButton,vptPracticeLoop.thisRepN,vptPracticeLoop.thisTrialN,vptPracticeLoop.thisN,vptPracticeLoop.thisIndex,vptPracticeLoop.ran,trialType,tiles,rows,cols,vptTrialLoop.thisRepN,vptTrialLoop.thisTrialN,vptTrialLoop.thisN,vptTrialLoop.thisIndex,vptTrialLoop.ran,noOfBlocks,TASK_B.thisRepN,TASK_B.thisTrialN,TASK_B.thisN,TASK_B.thisIndex,TASK_B.ran,veriStim_resp.keys,veriStim_resp.corr,veriStim_resp.rt,verificationPracLoop.thisRepN,verificationPracLoop.thisTrialN,verificationPracLoop.thisN,verificationPracLoop.thisIndex,verificationPracLoop.ran,mult_problem,mult_answer,mult_type,error_distance,interferenceScore,problemType,interferenceLevel,problemSize,img_leftButton,img_rightButton,veriLoop.thisRepN,veriLoop.thisTrialN,veriLoop.thisN,veriLoop.thisIndex,veriLoop.ran,veriBlock.thisRepN,veriBlock.thisTrialN,veriBlock.thisN,veriBlock.thisIndex,veriBlock.ran,verificationFiles,end_resp.keys,end_resp.rt
"[1232,564]",8902,CAB,30/06/2004,001,2023-12-02_10h14.47.606,OS3_Mult_verification,2022.2.4,Win32,60.86056844,,,,,,,,,,,,,,,,,,,,,,,,,,,,,,,,,,,,,,,,,,,,,,,,,,,,,,,,,,,,,,,,,,,,,,,,,,,,,,,,,,,,,,,,,,,,,,,,,,,,,,,,,,,,,,,,,,,,,,,,,,,,,,,,,,,,,,,,,,,,,,,,,,,,,,,,,,,,,,,,,,,,,,,,,,,,,,
,8902,CAB,30/06/2004,001,2023-12-02_10h14.47.606,OS3_Mult_verification,2022.2.4,Win32,60.86056844,,,,,,,,,,,,,,,,,,,,,,,,,,,,,,,,,,,,,,,,,,,,,,,,,,,,,,,,,,,,,,,,,,,,,,,,,,,,,,,,,,,,,,,,,,,,,,,,,,,,,,,,,,,,,,,,,,,,,,,,,,,,,,,,,,,,,,,,,,,,,,,,,,,,,,,,,,,,,,,,,,,,,,,,,,,,,,
,8902,CAB,30/06/2004,001,2023-12-02_10h14.47.606,OS3_Mult_verification,2022.2.4,Win32,60.86056844,space,23.5024,,,,,,,,,,,,,,,,,,,,,,,,,,,,,,,,,,,,,,,,,,,,,,,,,,,,,,,,,,,,,,,,,,,,,,,,,,,,,,,,,,,,,,,,,,,,,,,,,,,,,,,,,,,,,,,,,,,,,,,,,,,,,,,,,,,,,,,,,,,,,,,,,,,,,,,,,,,,,,,,,,,,,,,,,,,,
,8902,CAB,30/06/2004,001,2023-12-02_10h14.47.606,OS3_Mult_verification,2022.2.4,Win32,60.86056844,,,64,20.9671,1,"[""return"",""return"",""6"",""4"",""return""]","[4.143500000000003,14.66829999995231,18.15919999980926,18.302000000000007,20.9285]",0,0,0,28,1,64,,,,,,,,,,,,,,,,,,,,,,,,,,,,,,,,,,,,,,,,,,,,,,,,,,,,,,,,,,,,,,,,,,,,,,,,,,,,,,,,,,,,,,,,,,,,,,,,,,,,,,,,,,,,,,,,,,,,,,,,,,,,,,,,,,,,,,,,,,,,,,,,,,,,,,,,,,,,,,,,,
,8902,CAB,30/06/2004,001,2023-12-02_10h14.47.606,OS3_Mult_verification,2022.2.4,Win32,60.86056844,,,24,2.7503,1,"[""2"",""4"",""return""]","[1.6837000000476792,1.867599999904641,2.70959999990464]",0,1,1,12,1,24,,,,,,,,,,,,,,,,,,,,,,,,,,,,,,,,,,,,,,,,,,,,,,,,,,,,,,,,,,,,,,,,,,,,,,,,,,,,,,,,,,,,,,,,,,,,,,,,,,,,,,,,,,,,,,,,,,,,,,,,,,,,,,,,,,,,,,,,,,,,,,,,,,,,,,,,,,,,,,,,,
,8902,CAB,30/06/2004,001,2023-12-02_10h14.47.606,OS3_Mult_verification,2022.2.4,Win32,60.86056844,,,63,5.8669,1,"[""6"",""3"",""return""]","[4.633799999952316,4.888999999999996,5.818099999904632]",0,2,2,27,1,63,,,,,,,,,,,,,,,,,,,,,,,,,,,,,,,,,,,,,,,,,,,,,,,,,,,,,,,,,,,,,,,,,,,,,,,,,,,,,,,,,,,,,,,,,,,,,,,,,,,,,,,,,,,,,,,,,,,,,,,,,,,,,,,,,,,,,,,,,,,,,,,,,,,,,,,,,,,,,,,,,
,8902,CAB,30/06/2004,001,2023-12-02_10h14.47.606,OS3_Mult_verification,2022.2.4,Win32,60.86056844,,,8,3.9158,1,"[""8"",""return""]","[3.019500000000022,3.8727999999523206]",0,3,3,2,1,8,,,,,,,,,,,,,,,,,,,,,,,,,,,,,,,,,,,,,,,,,,,,,,,,,,,,,,,,,,,,,,,,,,,,,,,,,,,,,,,,,,,,,,,,,,,,,,,,,,,,,,,,,,,,,,,,,,,,,,,,,,,,,,,,,,,,,,,,,,,,,,,,,,,,,,,,,,,,,,,,,
,8902,CAB,30/06/2004,001,2023-12-02_10h14.47.606,OS3_Mult_verification,2022.2.4,Win32,60.86056844,,,14,2.5168,1,"[""1"",""4"",""return""]","[0.9844000000953628,1.2437000000476957,2.4726000001430606]",0,4,4,6,1,14,,,,,,,,,,,,,,,,,,,,,,,,,,,,,,,,,,,,,,,,,,,,,,,,,,,,,,,,,,,,,,,,,,,,,,,,,,,,,,,,,,,,,,,,,,,,,,,,,,,,,,,,,,,,,,,,,,,,,,,,,,,,,,,,,,,,,,,,,,,,,,,,,,,,,,,,,,,,,,,,,
,8902,CAB,30/06/2004,001,2023-12-02_10h14.47.606,OS3_Mult_verification,2022.2.4,Win32,60.86056844,,,6,5.3794,1,"[""6"",""return""]","[4.217400000095381,5.340000000000003]",0,5,5,1,1,6,,,,,,,,,,,,,,,,,,,,,,,,,,,,,,,,,,,,,,,,,,,,,,,,,,,,,,,,,,,,,,,,,,,,,,,,,,,,,,,,,,,,,,,,,,,,,,,,,,,,,,,,,,,,,,,,,,,,,,,,,,,,,,,,,,,,,,,,,,,,,,,,,,,,,,,,,,,,,,,,,
,8902,CAB,30/06/2004,001,2023-12-02_10h14.47.606,OS3_Mult_verification,2022.2.4,Win32,60.86056844,,,15,1.4994,1,"[""1"",""5"",""return""]","[0.8970999999046398,1.1794000000953702,1.4545000000000243]",0,6,6,7,1,15,,,,,,,,,,,,,,,,,,,,,,,,,,,,,,,,,,,,,,,,,,,,,,,,,,,,,,,,,,,,,,,,,,,,,,,,,,,,,,,,,,,,,,,,,,,,,,,,,,,,,,,,,,,,,,,,,,,,,,,,,,,,,,,,,,,,,,,,,,,,,,,,,,,,,,,,,,,,,,,,,
,8902,CAB,30/06/2004,001,2023-12-02_10h14.47.606,OS3_Mult_verification,2022.2.4,Win32,60.86056844,,,48,1.6863,1,"[""4"",""8"",""return""]","[0.9937000000476814,1.3682000000476933,1.6507000000476921]",0,7,7,23,1,48,,,,,,,,,,,,,,,,,,,,,,,,,,,,,,,,,,,,,,,,,,,,,,,,,,,,,,,,,,,,,,,,,,,,,,,,,,,,,,,,,,,,,,,,,,,,,,,,,,,,,,,,,,,,,,,,,,,,,,,,,,,,,,,,,,,,,,,,,,,,,,,,,,,,,,,,,,,,,,,,,
,8902,CAB,30/06/2004,001,2023-12-02_10h14.47.606,OS3_Mult_verification,2022.2.4,Win32,60.86056844,,,28,1.8663,1,"[""2"",""8"",""return""]","[1.1625999999046428,1.600900000095379,1.822499999999991]",0,8,8,15,1,28,,,,,,,,,,,,,,,,,,,,,,,,,,,,,,,,,,,,,,,,,,,,,,,,,,,,,,,,,,,,,,,,,,,,,,,,,,,,,,,,,,,,,,,,,,,,,,,,,,,,,,,,,,,,,,,,,,,,,,,,,,,,,,,,,,,,,,,,,,,,,,,,,,,,,,,,,,,,,,,,,
,8902,CAB,30/06/2004,001,2023-12-02_10h14.47.606,OS3_Mult_verification,2022.2.4,Win32,60.86056844,,,40,8.5366,1,"[""4"",""0"",""return""]","[0.9590999999046232,1.4085999999046237,8.484099999904629]",0,9,9,20,1,40,,,,,,,,,,,,,,,,,,,,,,,,,,,,,,,,,,,,,,,,,,,,,,,,,,,,,,,,,,,,,,,,,,,,,,,,,,,,,,,,,,,,,,,,,,,,,,,,,,,,,,,,,,,,,,,,,,,,,,,,,,,,,,,,,,,,,,,,,,,,,,,,,,,,,,,,,,,,,,,,,
,8902,CAB,30/06/2004,001,2023-12-02_10h14.47.606,OS3_Mult_verification,2022.2.4,Win32,60.86056844,,,16,1.6662,1,"[""1"",""6"",""return""]","[0.9609999999999843,1.2843000001907114,1.6296000001430286]",0,10,10,8,1,16,,,,,,,,,,,,,,,,,,,,,,,,,,,,,,,,,,,,,,,,,,,,,,,,,,,,,,,,,,,,,,,,,,,,,,,,,,,,,,,,,,,,,,,,,,,,,,,,,,,,,,,,,,,,,,,,,,,,,,,,,,,,,,,,,,,,,,,,,,,,,,,,,,,,,,,,,,,,,,,,,
,8902,CAB,30/06/2004,001,2023-12-02_10h14.47.606,OS3_Mult_verification,2022.2.4,Win32,60.86056844,,,9,1.1999,1,"[""9"",""return""]","[0.9837999999523106,1.1617999999523079]",0,11,11,3,1,9,,,,,,,,,,,,,,,,,,,,,,,,,,,,,,,,,,,,,,,,,,,,,,,,,,,,,,,,,,,,,,,,,,,,,,,,,,,,,,,,,,,,,,,,,,,,,,,,,,,,,,,,,,,,,,,,,,,,,,,,,,,,,,,,,,,,,,,,,,,,,,,,,,,,,,,,,,,,,,,,,
,8902,CAB,30/06/2004,001,2023-12-02_10h14.47.606,OS3_Mult_verification,2022.2.4,Win32,60.86056844,,,45,1.3338,1,"[""4"",""5"",""return""]","[0.8953999998569486,1.0802999999523024,1.2952999999523058]",0,12,12,22,1,45,,,,,,,,,,,,,,,,,,,,,,,,,,,,,,,,,,,,,,,,,,,,,,,,,,,,,,,,,,,,,,,,,,,,,,,,,,,,,,,,,,,,,,,,,,,,,,,,,,,,,,,,,,,,,,,,,,,,,,,,,,,,,,,,,,,,,,,,,,,,,,,,,,,,,,,,,,,,,,,,,
,8902,CAB,30/06/2004,001,2023-12-02_10h14.47.606,OS3_Mult_verification,2022.2.4,Win32,60.86056844,,,81,7.5833,1,"[""8"",""1"",""return""]","[6.890200000047685,7.143599999904637,7.538999999999987]",0,13,13,30,1,81,,,,,,,,,,,,,,,,,,,,,,,,,,,,,,,,,,,,,,,,,,,,,,,,,,,,,,,,,,,,,,,,,,,,,,,,,,,,,,,,,,,,,,,,,,,,,,,,,,,,,,,,,,,,,,,,,,,,,,,,,,,,,,,,,,,,,,,,,,,,,,,,,,,,,,,,,,,,,,,,,
,8902,CAB,30/06/2004,001,2023-12-02_10h14.47.606,OS3_Mult_verification,2022.2.4,Win32,60.86056844,,,42,1.5,1,"[""4"",""2"",""return""]","[0.8730999999046389,1.1127999999523013,1.4528999998569532]",0,14,14,21,1,42,,,,,,,,,,,,,,,,,,,,,,,,,,,,,,,,,,,,,,,,,,,,,,,,,,,,,,,,,,,,,,,,,,,,,,,,,,,,,,,,,,,,,,,,,,,,,,,,,,,,,,,,,,,,,,,,,,,,,,,,,,,,,,,,,,,,,,,,,,,,,,,,,,,,,,,,,,,,,,,,,
,8902,CAB,30/06/2004,001,2023-12-02_10h14.47.606,OS3_Mult_verification,2022.2.4,Win32,60.86056844,,,25,1.1501,1,"[""2"",""5"",""return""]","[0.6518999998569655,0.911599999904638,1.101799999952334]",0,15,15,13,1,25,,,,,,,,,,,,,,,,,,,,,,,,,,,,,,,,,,,,,,,,,,,,,,,,,,,,,,,,,,,,,,,,,,,,,,,,,,,,,,,,,,,,,,,,,,,,,,,,,,,,,,,,,,,,,,,,,,,,,,,,,,,,,,,,,,,,,,,,,,,,,,,,,,,,,,,,,,,,,,,,,
,8902,CAB,30/06/2004,001,2023-12-02_10h14.47.606,OS3_Mult_verification,2022.2.4,Win32,60.86056844,,,32,1.2669,1,"[""3"",""2"",""return""]","[0.8352999999523263,1.0360000000000014,1.225500000000011]",0,16,16,17,1,32,,,,,,,,,,,,,,,,,,,,,,,,,,,,,,,,,,,,,,,,,,,,,,,,,,,,,,,,,,,,,,,,,,,,,,,,,,,,,,,,,,,,,,,,,,,,,,,,,,,,,,,,,,,,,,,,,,,,,,,,,,,,,,,,,,,,,,,,,,,,,,,,,,,,,,,,,,,,,,,,,
,8902,CAB,30/06/2004,001,2023-12-02_10h14.47.606,OS3_Mult_verification,2022.2.4,Win32,60.86056844,,,72,1.8338,1,"[""7"",""2"",""return""]","[1.1159999999999854,1.589900000095355,1.7951000001430373]",0,17,17,29,1,72,,,,,,,,,,,,,,,,,,,,,,,,,,,,,,,,,,,,,,,,,,,,,,,,,,,,,,,,,,,,,,,,,,,,,,,,,,,,,,,,,,,,,,,,,,,,,,,,,,,,,,,,,,,,,,,,,,,,,,,,,,,,,,,,,,,,,,,,,,,,,,,,,,,,,,,,,,,,,,,,,
,8902,CAB,30/06/2004,001,2023-12-02_10h14.47.606,OS3_Mult_verification,2022.2.4,Win32,60.86056844,,,30,1.7189,1,"[""3"",""0"",""return""]","[0.9661000001430295,1.205799999952319,1.6802000000476767]",0,18,18,16,1,30,,,,,,,,,,,,,,,,,,,,,,,,,,,,,,,,,,,,,,,,,,,,,,,,,,,,,,,,,,,,,,,,,,,,,,,,,,,,,,,,,,,,,,,,,,,,,,,,,,,,,,,,,,,,,,,,,,,,,,,,,,,,,,,,,,,,,,,,,,,,,,,,,,,,,,,,,,,,,,,,,
,8902,CAB,30/06/2004,001,2023-12-02_10h14.47.606,OS3_Mult_verification,2022.2.4,Win32,60.86056844,,,21,1.5665,1,"[""2"",""1"",""return""]","[1.06870000004767,1.2834000000953552,1.5270999999046353]",0,19,19,11,1,21,,,,,,,,,,,,,,,,,,,,,,,,,,,,,,,,,,,,,,,,,,,,,,,,,,,,,,,,,,,,,,,,,,,,,,,,,,,,,,,,,,,,,,,,,,,,,,,,,,,,,,,,,,,,,,,,,,,,,,,,,,,,,,,,,,,,,,,,,,,,,,,,,,,,,,,,,,,,,,,,,
,8902,CAB,30/06/2004,001,2023-12-02_10h14.47.606,OS3_Mult_verification,2022.2.4,Win32,60.86056844,,,56,1.5503,1,"[""5"",""6"",""return""]","[1.1167999999523204,1.308299999952311,1.5090999999046346]",0,20,20,26,1,56,,,,,,,,,,,,,,,,,,,,,,,,,,,,,,,,,,,,,,,,,,,,,,,,,,,,,,,,,,,,,,,,,,,,,,,,,,,,,,,,,,,,,,,,,,,,,,,,,,,,,,,,,,,,,,,,,,,,,,,,,,,,,,,,,,,,,,,,,,,,,,,,,,,,,,,,,,,,,,,,,
,8902,CAB,30/06/2004,001,2023-12-02_10h14.47.606,OS3_Mult_verification,2022.2.4,Win32,60.86056844,,,54,1.2657,1,"[""5"",""4"",""return""]","[0.8576000001430373,1.041400000095365,1.226600000143037]",0,21,21,25,1,54,,,,,,,,,,,,,,,,,,,,,,,,,,,,,,,,,,,,,,,,,,,,,,,,,,,,,,,,,,,,,,,,,,,,,,,,,,,,,,,,,,,,,,,,,,,,,,,,,,,,,,,,,,,,,,,,,,,,,,,,,,,,,,,,,,,,,,,,,,,,,,,,,,,,,,,,,,,,,,,,,
,8902,CAB,30/06/2004,001,2023-12-02_10h14.47.606,OS3_Mult_verification,2022.2.4,Win32,60.86056844,,,18,1.4831,1,"[""1"",""8"",""return""]","[0.80460000014304,1.168400000095346,1.4437999999522901]",0,22,22,9,1,18,,,,,,,,,,,,,,,,,,,,,,,,,,,,,,,,,,,,,,,,,,,,,,,,,,,,,,,,,,,,,,,,,,,,,,,,,,,,,,,,,,,,,,,,,,,,,,,,,,,,,,,,,,,,,,,,,,,,,,,,,,,,,,,,,,,,,,,,,,,,,,,,,,,,,,,,,,,,,,,,,
,8902,CAB,30/06/2004,001,2023-12-02_10h14.47.606,OS3_Mult_verification,2022.2.4,Win32,60.86056844,,,4,0.9825,1,"[""4"",""return""]","[0.7835000000000036,0.9438999998569386]",0,23,23,0,1,4,,,,,,,,,,,,,,,,,,,,,,,,,,,,,,,,,,,,,,,,,,,,,,,,,,,,,,,,,,,,,,,,,,,,,,,,,,,,,,,,,,,,,,,,,,,,,,,,,,,,,,,,,,,,,,,,,,,,,,,,,,,,,,,,,,,,,,,,,,,,,,,,,,,,,,,,,,,,,,,,,
,8902,CAB,30/06/2004,001,2023-12-02_10h14.47.606,OS3_Mult_verification,2022.2.4,Win32,60.86056844,,,35,1.2832,1,"[""3"",""5"",""return""]","[0.8187999999523186,1.0635000000000048,1.2435999999046317]",0,24,24,18,1,35,,,,,,,,,,,,,,,,,,,,,,,,,,,,,,,,,,,,,,,,,,,,,,,,,,,,,,,,,,,,,,,,,,,,,,,,,,,,,,,,,,,,,,,,,,,,,,,,,,,,,,,,,,,,,,,,,,,,,,,,,,,,,,,,,,,,,,,,,,,,,,,,,,,,,,,,,,,,,,,,,
,8902,CAB,30/06/2004,001,2023-12-02_10h14.47.606,OS3_Mult_verification,2022.2.4,Win32,60.86056844,,,20,1.5665,1,"[""2"",""0"",""return""]","[0.8100999999046508,1.3523999998569707,1.5302999999523195]",0,25,25,10,1,20,,,,,,,,,,,,,,,,,,,,,,,,,,,,,,,,,,,,,,,,,,,,,,,,,,,,,,,,,,,,,,,,,,,,,,,,,,,,,,,,,,,,,,,,,,,,,,,,,,,,,,,,,,,,,,,,,,,,,,,,,,,,,,,,,,,,,,,,,,,,,,,,,,,,,,,,,,,,,,,,,
,8902,CAB,30/06/2004,001,2023-12-02_10h14.47.606,OS3_Mult_verification,2022.2.4,Win32,60.86056844,,,36,1.1694,1,"[""3"",""6"",""return""]","[0.6957000000476796,0.9672999999523029,1.1342000000476844]",0,26,26,19,1,36,,,,,,,,,,,,,,,,,,,,,,,,,,,,,,,,,,,,,,,,,,,,,,,,,,,,,,,,,,,,,,,,,,,,,,,,,,,,,,,,,,,,,,,,,,,,,,,,,,,,,,,,,,,,,,,,,,,,,,,,,,,,,,,,,,,,,,,,,,,,,,,,,,,,,,,,,,,,,,,,,
,8902,CAB,30/06/2004,001,2023-12-02_10h14.47.606,OS3_Mult_verification,2022.2.4,Win32,60.86056844,,,49,1.9499,1,"[""4"",""9"",""return""]","[0.856700000047681,1.572100000143024,1.9007000000476637]",0,27,27,24,1,49,,,,,,,,,,,,,,,,,,,,,,,,,,,,,,,,,,,,,,,,,,,,,,,,,,,,,,,,,,,,,,,,,,,,,,,,,,,,,,,,,,,,,,,,,,,,,,,,,,,,,,,,,,,,,,,,,,,,,,,,,,,,,,,,,,,,,,,,,,,,,,,,,,,,,,,,,,,,,,,,,
,8902,CAB,30/06/2004,001,2023-12-02_10h14.47.606,OS3_Mult_verification,2022.2.4,Win32,60.86056844,,,10,1.4331,1,"[""1"",""0"",""return""]","[0.7051999998092526,1.169299999952301,1.3953999998569486]",0,28,28,4,1,10,,,,,,,,,,,,,,,,,,,,,,,,,,,,,,,,,,,,,,,,,,,,,,,,,,,,,,,,,,,,,,,,,,,,,,,,,,,,,,,,,,,,,,,,,,,,,,,,,,,,,,,,,,,,,,,,,,,,,,,,,,,,,,,,,,,,,,,,,,,,,,,,,,,,,,,,,,,,,,,,,
,8902,CAB,30/06/2004,001,2023-12-02_10h14.47.606,OS3_Mult_verification,2022.2.4,Win32,60.86056844,,,12,1.019,1,"[""1"",""2"",""return""]","[0.605200000047688,0.8049000000953583,0.9842000000476787]",0,29,29,5,1,12,,,,,,,,,,,,,,,,,,,,,,,,,,,,,,,,,,,,,,,,,,,,,,,,,,,,,,,,,,,,,,,,,,,,,,,,,,,,,,,,,,,,,,,,,,,,,,,,,,,,,,,,,,,,,,,,,,,,,,,,,,,,,,,,,,,,,,,,,,,,,,,,,,,,,,,,,,,,,,,,,
,8902,CAB,30/06/2004,001,2023-12-02_10h14.47.606,OS3_Mult_verification,2022.2.4,Win32,60.86056844,,,27,1.3503,1,"[""2"",""7"",""return""]","[0.5612999999523254,1.0360000000000014,1.3109000000953586]",0,30,30,14,1,27,,,,,,,,,,,,,,,,,,,,,,,,,,,,,,,,,,,,,,,,,,,,,,,,,,,,,,,,,,,,,,,,,,,,,,,,,,,,,,,,,,,,,,,,,,,,,,,,,,,,,,,,,,,,,,,,,,,,,,,,,,,,,,,,,,,,,,,,,,,,,,,,,,,,,,,,,,,,,,,,,
,8902,CAB,30/06/2004,001,2023-12-02_10h14.47.606,OS3_Mult_verification,2022.2.4,Win32,60.86056844,,,25,1.1003,1,"[""2"",""5"",""return""]","[0.5854999999999961,0.885300000190739,1.0599000000953822]",1,0,31,13,1,25,,,,,,,,,,,,,,,,,,,,,,,,,,,,,,,,,,,,,,,,,,,,,,,,,,,,,,,,,,,,,,,,,,,,,,,,,,,,,,,,,,,,,,,,,,,,,,,,,,,,,,,,,,,,,,,,,,,,,,,,,,,,,,,,,,,,,,,,,,,,,,,,,,,,,,,,,,,,,,,,,
,8902,CAB,30/06/2004,001,2023-12-02_10h14.47.606,OS3_Mult_verification,2022.2.4,Win32,60.86056844,,,72,1.5835,1,"[""7"",""2"",""return""]","[0.9245999999046433,1.2925000000000182,1.5330000000000155]",1,1,32,29,1,72,,,,,,,,,,,,,,,,,,,,,,,,,,,,,,,,,,,,,,,,,,,,,,,,,,,,,,,,,,,,,,,,,,,,,,,,,,,,,,,,,,,,,,,,,,,,,,,,,,,,,,,,,,,,,,,,,,,,,,,,,,,,,,,,,,,,,,,,,,,,,,,,,,,,,,,,,,,,,,,,,
,8902,CAB,30/06/2004,001,2023-12-02_10h14.47.606,OS3_Mult_verification,2022.2.4,Win32,60.86056844,,,9,1.7002,1,"[""9"",""return""]","[1.3530000000000086,1.654599999904633]",1,2,33,3,1,9,,,,,,,,,,,,,,,,,,,,,,,,,,,,,,,,,,,,,,,,,,,,,,,,,,,,,,,,,,,,,,,,,,,,,,,,,,,,,,,,,,,,,,,,,,,,,,,,,,,,,,,,,,,,,,,,,,,,,,,,,,,,,,,,,,,,,,,,,,,,,,,,,,,,,,,,,,,,,,,,,
,8902,CAB,30/06/2004,001,2023-12-02_10h14.47.606,OS3_Mult_verification,2022.2.4,Win32,60.86056844,,,64,1.8003,1,"[""6"",""4"",""return""]","[1.0462000000476905,1.2609999999999957,1.7607999999522974]",1,3,34,28,1,64,,,,,,,,,,,,,,,,,,,,,,,,,,,,,,,,,,,,,,,,,,,,,,,,,,,,,,,,,,,,,,,,,,,,,,,,,,,,,,,,,,,,,,,,,,,,,,,,,,,,,,,,,,,,,,,,,,,,,,,,,,,,,,,,,,,,,,,,,,,,,,,,,,,,,,,,,,,,,,,,,
,8902,CAB,30/06/2004,001,2023-12-02_10h14.47.606,OS3_Mult_verification,2022.2.4,Win32,60.86056844,,,49,2.1499,1,"[""4"",""9"",""return""]","[1.2086000001430648,1.644700000047692,2.1030000000000086]",1,4,35,24,1,49,,,,,,,,,,,,,,,,,,,,,,,,,,,,,,,,,,,,,,,,,,,,,,,,,,,,,,,,,,,,,,,,,,,,,,,,,,,,,,,,,,,,,,,,,,,,,,,,,,,,,,,,,,,,,,,,,,,,,,,,,,,,,,,,,,,,,,,,,,,,,,,,,,,,,,,,,,,,,,,,,
,8902,CAB,30/06/2004,001,2023-12-02_10h14.47.606,OS3_Mult_verification,2022.2.4,Win32,60.86056844,,,10,1.4828,1,"[""1"",""0"",""return""]","[0.8865000000000123,1.0855000000000246,1.4329000000953727]",1,5,36,4,1,10,,,,,,,,,,,,,,,,,,,,,,,,,,,,,,,,,,,,,,,,,,,,,,,,,,,,,,,,,,,,,,,,,,,,,,,,,,,,,,,,,,,,,,,,,,,,,,,,,,,,,,,,,,,,,,,,,,,,,,,,,,,,,,,,,,,,,,,,,,,,,,,,,,,,,,,,,,,,,,,,,
,8902,CAB,30/06/2004,001,2023-12-02_10h14.47.606,OS3_Mult_verification,2022.2.4,Win32,60.86056844,,,15,1.7339,1,"[""1"",""5"",""return""]","[0.8827000000476914,1.2967000000476787,1.6825000000000045]",1,6,37,7,1,15,,,,,,,,,,,,,,,,,,,,,,,,,,,,,,,,,,,,,,,,,,,,,,,,,,,,,,,,,,,,,,,,,,,,,,,,,,,,,,,,,,,,,,,,,,,,,,,,,,,,,,,,,,,,,,,,,,,,,,,,,,,,,,,,,,,,,,,,,,,,,,,,,,,,,,,,,,,,,,,,,
,8902,CAB,30/06/2004,001,2023-12-02_10h14.47.606,OS3_Mult_verification,2022.2.4,Win32,60.86056844,,,35,1.2666,1,"[""3"",""5"",""return""]","[0.7757999999523122,1.0340999999046119,1.2169999999999845]",1,7,38,18,1,35,,,,,,,,,,,,,,,,,,,,,,,,,,,,,,,,,,,,,,,,,,,,,,,,,,,,,,,,,,,,,,,,,,,,,,,,,,,,,,,,,,,,,,,,,,,,,,,,,,,,,,,,,,,,,,,,,,,,,,,,,,,,,,,,,,,,,,,,,,,,,,,,,,,,,,,,,,,,,,,,,
,8902,CAB,30/06/2004,001,2023-12-02_10h14.47.606,OS3_Mult_verification,2022.2.4,Win32,60.86056844,,,21,1.134,1,"[""2"",""1"",""return""]","[0.7522000000476794,0.9269000000953724,1.092400000095381]",1,8,39,11,1,21,,,,,,,,,,,,,,,,,,,,,,,,,,,,,,,,,,,,,,,,,,,,,,,,,,,,,,,,,,,,,,,,,,,,,,,,,,,,,,,,,,,,,,,,,,,,,,,,,,,,,,,,,,,,,,,,,,,,,,,,,,,,,,,,,,,,,,,,,,,,,,,,,,,,,,,,,,,,,,,,,
,8902,CAB,30/06/2004,001,2023-12-02_10h14.47.606,OS3_Mult_verification,2022.2.4,Win32,60.86056844,,,42,1.3367,1,"[""4"",""2"",""return""]","[0.9076000001430486,1.1123000001907428,1.3013000001907358]",1,9,40,21,1,42,,,,,,,,,,,,,,,,,,,,,,,,,,,,,,,,,,,,,,,,,,,,,,,,,,,,,,,,,,,,,,,,,,,,,,,,,,,,,,,,,,,,,,,,,,,,,,,,,,,,,,,,,,,,,,,,,,,,,,,,,,,,,,,,,,,,,,,,,,,,,,,,,,,,,,,,,,,,,,,,,
,8902,CAB,30/06/2004,001,2023-12-02_10h14.47.606,OS3_Mult_verification,2022.2.4,Win32,60.86056844,,,32,1.2172,1,"[""3"",""2"",""return""]","[0.7722000000476896,0.967000000000013,1.1670000000000016]",1,10,41,17,1,32,,,,,,,,,,,,,,,,,,,,,,,,,,,,,,,,,,,,,,,,,,,,,,,,,,,,,,,,,,,,,,,,,,,,,,,,,,,,,,,,,,,,,,,,,,,,,,,,,,,,,,,,,,,,,,,,,,,,,,,,,,,,,,,,,,,,,,,,,,,,,,,,,,,,,,,,,,,,,,,,,
,8902,CAB,30/06/2004,001,2023-12-02_10h14.47.606,OS3_Mult_verification,2022.2.4,Win32,60.86056844,,,63,1.5503,1,"[""6"",""3"",""return""]","[1.0354000000953647,1.2502000000476698,1.5117000000476821]",1,11,42,27,1,63,,,,,,,,,,,,,,,,,,,,,,,,,,,,,,,,,,,,,,,,,,,,,,,,,,,,,,,,,,,,,,,,,,,,,,,,,,,,,,,,,,,,,,,,,,,,,,,,,,,,,,,,,,,,,,,,,,,,,,,,,,,,,,,,,,,,,,,,,,,,,,,,,,,,,,,,,,,,,,,,,
,8902,CAB,30/06/2004,001,2023-12-02_10h14.47.606,OS3_Mult_verification,2022.2.4,Win32,60.86056844,,,20,1.4168,1,"[""2"",""0"",""return""]","[0.7677000000476824,1.0165000000000077,1.3769000000953895]",1,12,43,10,1,20,,,,,,,,,,,,,,,,,,,,,,,,,,,,,,,,,,,,,,,,,,,,,,,,,,,,,,,,,,,,,,,,,,,,,,,,,,,,,,,,,,,,,,,,,,,,,,,,,,,,,,,,,,,,,,,,,,,,,,,,,,,,,,,,,,,,,,,,,,,,,,,,,,,,,,,,,,,,,,,,,
,8902,CAB,30/06/2004,001,2023-12-02_10h14.47.606,OS3_Mult_verification,2022.2.4,Win32,60.86056844,,,81,1.7031,1,"[""8"",""1"",""return""]","[1.1511999998092506,1.350599999904631,1.6670999999046217]",1,13,44,30,1,81,,,,,,,,,,,,,,,,,,,,,,,,,,,,,,,,,,,,,,,,,,,,,,,,,,,,,,,,,,,,,,,,,,,,,,,,,,,,,,,,,,,,,,,,,,,,,,,,,,,,,,,,,,,,,,,,,,,,,,,,,,,,,,,,,,,,,,,,,,,,,,,,,,,,,,,,,,,,,,,,,
,8902,CAB,30/06/2004,001,2023-12-02_10h14.47.606,OS3_Mult_verification,2022.2.4,Win32,60.86056844,,,6,1.0502,1,"[""6"",""return""]","[0.7676999998092526,1.0080000000000098]",1,14,45,1,1,6,,,,,,,,,,,,,,,,,,,,,,,,,,,,,,,,,,,,,,,,,,,,,,,,,,,,,,,,,,,,,,,,,,,,,,,,,,,,,,,,,,,,,,,,,,,,,,,,,,,,,,,,,,,,,,,,,,,,,,,,,,,,,,,,,,,,,,,,,,,,,,,,,,,,,,,,,,,,,,,,,
,8902,CAB,30/06/2004,001,2023-12-02_10h14.47.606,OS3_Mult_verification,2022.2.4,Win32,60.86056844,,,18,1.5837,1,"[""1"",""8"",""return""]","[0.7708999998569368,1.190599999904606,1.545700000047674]",1,15,46,9,1,18,,,,,,,,,,,,,,,,,,,,,,,,,,,,,,,,,,,,,,,,,,,,,,,,,,,,,,,,,,,,,,,,,,,,,,,,,,,,,,,,,,,,,,,,,,,,,,,,,,,,,,,,,,,,,,,,,,,,,,,,,,,,,,,,,,,,,,,,,,,,,,,,,,,,,,,,,,,,,,,,,
,8902,CAB,30/06/2004,001,2023-12-02_10h14.47.606,OS3_Mult_verification,2022.2.4,Win32,60.86056844,,,28,1.3332,1,"[""2"",""8"",""return""]","[0.6254000000953681,0.9665999999046448,1.290799999952327]",1,16,47,15,1,28,,,,,,,,,,,,,,,,,,,,,,,,,,,,,,,,,,,,,,,,,,,,,,,,,,,,,,,,,,,,,,,,,,,,,,,,,,,,,,,,,,,,,,,,,,,,,,,,,,,,,,,,,,,,,,,,,,,,,,,,,,,,,,,,,,,,,,,,,,,,,,,,,,,,,,,,,,,,,,,,,
,8902,CAB,30/06/2004,001,2023-12-02_10h14.47.606,OS3_Mult_verification,2022.2.4,Win32,60.86056844,,,8,1.1992,1,"[""8"",""return""]","[0.9549999999999841,1.1599000000953765]",1,17,48,2,1,8,,,,,,,,,,,,,,,,,,,,,,,,,,,,,,,,,,,,,,,,,,,,,,,,,,,,,,,,,,,,,,,,,,,,,,,,,,,,,,,,,,,,,,,,,,,,,,,,,,,,,,,,,,,,,,,,,,,,,,,,,,,,,,,,,,,,,,,,,,,,,,,,,,,,,,,,,,,,,,,,,
,8902,CAB,30/06/2004,001,2023-12-02_10h14.47.606,OS3_Mult_verification,2022.2.4,Win32,60.86056844,,,36,1.453,1,"[""3"",""6"",""return""]","[0.9947000000476862,1.2343999998569473,1.4085000000000036]",1,18,49,19,1,36,,,,,,,,,,,,,,,,,,,,,,,,,,,,,,,,,,,,,,,,,,,,,,,,,,,,,,,,,,,,,,,,,,,,,,,,,,,,,,,,,,,,,,,,,,,,,,,,,,,,,,,,,,,,,,,,,,,,,,,,,,,,,,,,,,,,,,,,,,,,,,,,,,,,,,,,,,,,,,,,,
,8902,CAB,30/06/2004,001,2023-12-02_10h14.47.606,OS3_Mult_verification,2022.2.4,Win32,60.86056844,,,40,1.3001,1,"[""4"",""0"",""return""]","[0.7333999998569425,0.9718999998569586,1.252399999856948]",1,19,50,20,1,40,,,,,,,,,,,,,,,,,,,,,,,,,,,,,,,,,,,,,,,,,,,,,,,,,,,,,,,,,,,,,,,,,,,,,,,,,,,,,,,,,,,,,,,,,,,,,,,,,,,,,,,,,,,,,,,,,,,,,,,,,,,,,,,,,,,,,,,,,,,,,,,,,,,,,,,,,,,,,,,,,
,8902,CAB,30/06/2004,001,2023-12-02_10h14.47.606,OS3_Mult_verification,2022.2.4,Win32,60.86056844,,,16,1.3834,1,"[""1"",""6"",""return""]","[0.6270999999046296,1.0802000000476824,1.335400000095376]",1,20,51,8,1,16,,,,,,,,,,,,,,,,,,,,,,,,,,,,,,,,,,,,,,,,,,,,,,,,,,,,,,,,,,,,,,,,,,,,,,,,,,,,,,,,,,,,,,,,,,,,,,,,,,,,,,,,,,,,,,,,,,,,,,,,,,,,,,,,,,,,,,,,,,,,,,,,,,,,,,,,,,,,,,,,,
,8902,CAB,30/06/2004,001,2023-12-02_10h14.47.606,OS3_Mult_verification,2022.2.4,Win32,60.86056844,,,56,1.2831,1,"[""5"",""6"",""return""]","[0.9555999999046207,1.1178999998569452,1.2404999999999973]",1,21,52,26,1,56,,,,,,,,,,,,,,,,,,,,,,,,,,,,,,,,,,,,,,,,,,,,,,,,,,,,,,,,,,,,,,,,,,,,,,,,,,,,,,,,,,,,,,,,,,,,,,,,,,,,,,,,,,,,,,,,,,,,,,,,,,,,,,,,,,,,,,,,,,,,,,,,,,,,,,,,,,,,,,,,,
,8902,CAB,30/06/2004,001,2023-12-02_10h14.47.606,OS3_Mult_verification,2022.2.4,Win32,60.86056844,,,48,2.9332,1,"[""4"",""7"",""8"",""8"",""backspace"",""return""]","[0.8184000000953802,1.1555000000000177,1.1599000000953765,1.233799999952339,2.2394000000953724,2.8840000000000146]",1,22,53,23,1,48,,,,,,,,,,,,,,,,,,,,,,,,,,,,,,,,,,,,,,,,,,,,,,,,,,,,,,,,,,,,,,,,,,,,,,,,,,,,,,,,,,,,,,,,,,,,,,,,,,,,,,,,,,,,,,,,,,,,,,,,,,,,,,,,,,,,,,,,,,,,,,,,,,,,,,,,,,,,,,,,,
,8902,CAB,30/06/2004,001,2023-12-02_10h14.47.606,OS3_Mult_verification,2022.2.4,Win32,60.86056844,,,54,1.2503,1,"[""5"",""4"",""return""]","[0.8740999999046153,1.0582000000476626,1.2012999999523117]",1,23,54,25,1,54,,,,,,,,,,,,,,,,,,,,,,,,,,,,,,,,,,,,,,,,,,,,,,,,,,,,,,,,,,,,,,,,,,,,,,,,,,,,,,,,,,,,,,,,,,,,,,,,,,,,,,,,,,,,,,,,,,,,,,,,,,,,,,,,,,,,,,,,,,,,,,,,,,,,,,,,,,,,,,,,,
,8902,CAB,30/06/2004,001,2023-12-02_10h14.47.606,OS3_Mult_verification,2022.2.4,Win32,60.86056844,,,45,1.1204,1,"[""4"",""5"",""return""]","[0.7379000000953795,0.9014000000953786,1.0838000001907346]",1,24,55,22,1,45,,,,,,,,,,,,,,,,,,,,,,,,,,,,,,,,,,,,,,,,,,,,,,,,,,,,,,,,,,,,,,,,,,,,,,,,,,,,,,,,,,,,,,,,,,,,,,,,,,,,,,,,,,,,,,,,,,,,,,,,,,,,,,,,,,,,,,,,,,,,,,,,,,,,,,,,,,,,,,,,,
,8902,CAB,30/06/2004,001,2023-12-02_10h14.47.606,OS3_Mult_verification,2022.2.4,Win32,60.86056844,,,27,1.3835,1,"[""2"",""7"",""return""]","[0.8440999999046426,1.1435999999046373,1.3438999998569443]",1,25,56,14,1,27,,,,,,,,,,,,,,,,,,,,,,,,,,,,,,,,,,,,,,,,,,,,,,,,,,,,,,,,,,,,,,,,,,,,,,,,,,,,,,,,,,,,,,,,,,,,,,,,,,,,,,,,,,,,,,,,,,,,,,,,,,,,,,,,,,,,,,,,,,,,,,,,,,,,,,,,,,,,,,,,,
,8902,CAB,30/06/2004,001,2023-12-02_10h14.47.606,OS3_Mult_verification,2022.2.4,Win32,60.86056844,,,12,1.1698,1,"[""1"",""2"",""return""]","[0.7557000000477103,0.9351000001430521,1.1348000001907508]",1,26,57,5,1,12,,,,,,,,,,,,,,,,,,,,,,,,,,,,,,,,,,,,,,,,,,,,,,,,,,,,,,,,,,,,,,,,,,,,,,,,,,,,,,,,,,,,,,,,,,,,,,,,,,,,,,,,,,,,,,,,,,,,,,,,,,,,,,,,,,,,,,,,,,,,,,,,,,,,,,,,,,,,,,,,,
,8902,CAB,30/06/2004,001,2023-12-02_10h14.47.606,OS3_Mult_verification,2022.2.4,Win32,60.86056844,,,4,0.9329,1,"[""4"",""return""]","[0.7996999998092633,0.8948999998569604]",1,27,58,0,1,4,,,,,,,,,,,,,,,,,,,,,,,,,,,,,,,,,,,,,,,,,,,,,,,,,,,,,,,,,,,,,,,,,,,,,,,,,,,,,,,,,,,,,,,,,,,,,,,,,,,,,,,,,,,,,,,,,,,,,,,,,,,,,,,,,,,,,,,,,,,,,,,,,,,,,,,,,,,,,,,,,
,8902,CAB,30/06/2004,001,2023-12-02_10h14.47.606,OS3_Mult_verification,2022.2.4,Win32,60.86056844,,,24,1.2,1,"[""2"",""4"",""return""]","[0.7708000001907465,0.9662000000477065,1.150200000047704]",1,28,59,12,1,24,,,,,,,,,,,,,,,,,,,,,,,,,,,,,,,,,,,,,,,,,,,,,,,,,,,,,,,,,,,,,,,,,,,,,,,,,,,,,,,,,,,,,,,,,,,,,,,,,,,,,,,,,,,,,,,,,,,,,,,,,,,,,,,,,,,,,,,,,,,,,,,,,,,,,,,,,,,,,,,,,
,8902,CAB,30/06/2004,001,2023-12-02_10h14.47.606,OS3_Mult_verification,2022.2.4,Win32,60.86056844,,,30,1.4864,1,"[""3"",""0"",""return""]","[0.7599999999999909,1.153700000047678,1.4512999999523117]",1,29,60,16,1,30,,,,,,,,,,,,,,,,,,,,,,,,,,,,,,,,,,,,,,,,,,,,,,,,,,,,,,,,,,,,,,,,,,,,,,,,,,,,,,,,,,,,,,,,,,,,,,,,,,,,,,,,,,,,,,,,,,,,,,,,,,,,,,,,,,,,,,,,,,,,,,,,,,,,,,,,,,,,,,,,,
,8902,CAB,30/06/2004,001,2023-12-02_10h14.47.606,OS3_Mult_verification,2022.2.4,Win32,60.86056844,,,14,1.5002,1,"[""1"",""4"",""return""]","[0.7447000000476862,1.168599999904643,1.4537999999523379]",1,30,61,6,1,14,,,,,,,,,,,,,,,,,,,,,,,,,,,,,,,,,,,,,,,,,,,,,,,,,,,,,,,,,,,,,,,,,,,,,,,,,,,,,,,,,,,,,,,,,,,,,,,,,,,,,,,,,,,,,,,,,,,,,,,,,,,,,,,,,,,,,,,,,,,,,,,,,,,,,,,,,,,,,,,,,
,8902,CAB,30/06/2004,001,2023-12-02_10h14.47.606,OS3_Mult_verification,2022.2.4,Win32,60.86056844,,,,,,,,,,,,,,space,3.2661,,,,,,,,,,,,,,,,,,,,,,,,,,,,,,,,,,,,,,,,,,,,,,,,,,,,,,,,,,,,,,,,,,,,,,,,,,,,,,,,,,,,,,,,,,,,,,,,,,,,,,,,,,,,,,,,,,,,,,,,,,,,,,,,,,,,,,,,,,,,,,,,,,,,,,,,,,,,,,,
,8902,CAB,30/06/2004,001,2023-12-02_10h14.47.606,OS3_Mult_verification,2022.2.4,Win32,60.86056844,,,,,,,,,,,,,,,,,,,,,,,,,,,,,,,,,,,,,,,,,,,,,,,,,,,,,,,,,,,,,,,,,,,,,,,,,,,,,,,,,,,,,,,,,,,,,,,,,,,,,,,,,,,,,,,,,,,,,,,,,,,,,,,,,,,,,,,,,,,,,,,,,,,,,,,,,,,,,,,,,,,,,,,,,,,,,,
,8902,CAB,30/06/2004,001,2023-12-02_10h14.47.606,OS3_Mult_verification,2022.2.4,Win32,60.86056844,,,,,,,,,,,,,,,,space,3.2064,,,,,,,,,,,,,,,,,,,,,,,,,,,,,,,,,,,,,,,,,,,,,,,,,,,,,,,,,,,,,,,,,,,,,,,,,,,,,,,,,,,,,,,,,,,,,,,,,,,,,,,,,,,,,,,,,,,,,,,,,,,,,,,,,,,,,,,,,,,,,,,,,,,,,,,,,,,,,
,8902,CAB,30/06/2004,001,2023-12-02_10h14.47.606,OS3_Mult_verification,2022.2.4,Win32,60.86056844,,,,,,,,,,,,,,,,,,7,2.7269,1,"[""7"",""return""]","[1.6182000000476933,2.4192999999523295]",0,0,0,0,1,1 × 7 =,7,,,,,,,,,,,,,,,,,,,,,,,,,,,,,,,,,,,,,,,,,,,,,,,,,,,,,,,,,,,,,,,,,,,,,,,,,,,,,,,,,,,,,,,,,,,,,,,,,,,,,,,,,,,,,,,,,,,,,,,,,,,,,,,,,,,,,,,,,,,,,,,,,
,8902,CAB,30/06/2004,001,2023-12-02_10h14.47.606,OS3_Mult_verification,2022.2.4,Win32,60.86056844,,,,,,,,,,,,,,,,,,22,2.325,1,"[""2"",""2"",""return""]","[1.4025000000000318,1.7175000000000296,2.0347000000476783]",0,1,1,2,1,2 × 11 =,22,,,,,,,,,,,,,,,,,,,,,,,,,,,,,,,,,,,,,,,,,,,,,,,,,,,,,,,,,,,,,,,,,,,,,,,,,,,,,,,,,,,,,,,,,,,,,,,,,,,,,,,,,,,,,,,,,,,,,,,,,,,,,,,,,,,,,,,,,,,,,,,,,
,8902,CAB,30/06/2004,001,2023-12-02_10h14.47.606,OS3_Mult_verification,2022.2.4,Win32,60.86056844,,,,,,,,,,,,,,,,,,200,2.1062,0,"[""2"",""0"",""0"",""return""]","[0.8769000000953611,1.3450000000000273,1.4944000000953679,1.8092999999523158]",0,2,2,1,1,2 × 10 =,20,,,,,,,,,,,,,,,,,,,,,,,,,,,,,,,,,,,,,,,,,,,,,,,,,,,,,,,,,,,,,,,,,,,,,,,,,,,,,,,,,,,,,,,,,,,,,,,,,,,,,,,,,,,,,,,,,,,,,,,,,,,,,,,,,,,,,,,,,,,,,,,,,
,8902,CAB,30/06/2004,001,2023-12-02_10h14.47.606,OS3_Mult_verification,2022.2.4,Win32,60.86056844,,,,,,,,,,,,,,,,,,,,,,,,,,,,,,,,,,,,,,,,,,,,,,,,,,,,,,,,,,,,,,,,,,,,,,,,,,,,,,,,,,,,,,,,,,,,,,,,,,,,,,,,,,,,,,,,,,,,,,,,,,,,,,,,,,,,,,,,,,,,,,,,,,,,,,,,,,,,,,,,,,,,,,,,,,,,,,
,8902,CAB,30/06/2004,001,2023-12-02_10h14.47.606,OS3_Mult_verification,2022.2.4,Win32,60.86056844,,,,,,,,,,,,,,,,,,,,,,,,,,,,,,,,,,,,,,,,,,,,,,,,,,,,,,,,,,,,,,,,,,,,,,,,,,,,,,,,,,,,,,,,,,,,,,,,,,,,,,,,,,,,,,,,,,,,,,,,,,,,,,,,,,,,,,,,,,,,,,,,,,,,,,,,,,,,,,,,,,,,,,,,,,,,,,
,8902,CAB,30/06/2004,001,2023-12-02_10h14.47.606,OS3_Mult_verification,2022.2.4,Win32,60.86056844,,,,,,,,,,,,,,,,,,6,2.8293,1,"[""6"",""return""]","[1.7509999999999764,2.5186999998092574]",,,,,,2 × 3 =,6,0,0,0,0,1,,,,,,,,,,,,,,,,,,,,,,,,,,,,,,,,,,,,,,,,,,,,,,,,,,,,,,,,,,,,,,,,,,,,,,,,,,,,,,,,,,,,,,,,,,,,,,,,,,,,,,,,,,,,,,,,,,,,,,,,,,,,,,,,,,,,,,,,,,,,
,8902,CAB,30/06/2004,001,2023-12-02_10h14.47.606,OS3_Mult_verification,2022.2.4,Win32,60.86056844,,,,,,,,,,,,,,,,,,40,2.1333,1,"[""4"",""0"",""return""]","[1.2387999999523345,1.5726999998092879,1.8278999998569248]",,,,,,5 × 8 =,40,0,1,1,1,1,,,,,,,,,,,,,,,,,,,,,,,,,,,,,,,,,,,,,,,,,,,,,,,,,,,,,,,,,,,,,,,,,,,,,,,,,,,,,,,,,,,,,,,,,,,,,,,,,,,,,,,,,,,,,,,,,,,,,,,,,,,,,,,,,,,,,,,,,,,,
,8902,CAB,30/06/2004,001,2023-12-02_10h14.47.606,OS3_Mult_verification,2022.2.4,Win32,60.86056844,,,,,,,,,,,,,,,,,,12,1.6868,1,"[""1"",""2"",""return""]","[1.0197999999523404,1.2175000000000296,1.4010000000000105]",,,,,,3 × 4 =,12,0,2,2,2,1,,,,,,,,,,,,,,,,,,,,,,,,,,,,,,,,,,,,,,,,,,,,,,,,,,,,,,,,,,,,,,,,,,,,,,,,,,,,,,,,,,,,,,,,,,,,,,,,,,,,,,,,,,,,,,,,,,,,,,,,,,,,,,,,,,,,,,,,,,,,
,8902,CAB,30/06/2004,001,2023-12-02_10h14.47.606,OS3_Mult_verification,2022.2.4,Win32,60.86056844,,,,,,,,,,,,,,,,,,15,2.0617,1,"[""1"",""5"",""return""]","[1.0502999999523581,1.4005999999046708,1.7503999998569952]",,,,,,5 × 3 =,15,0,3,3,3,1,,,,,,,,,,,,,,,,,,,,,,,,,,,,,,,,,,,,,,,,,,,,,,,,,,,,,,,,,,,,,,,,,,,,,,,,,,,,,,,,,,,,,,,,,,,,,,,,,,,,,,,,,,,,,,,,,,,,,,,,,,,,,,,,,,,,,,,,,,,,
,8902,CAB,30/06/2004,001,2023-12-02_10h14.47.606,OS3_Mult_verification,2022.2.4,Win32,60.86056844,,,,,,,,,,,,,,,,,,8,1.7993,1,"[""8"",""return""]","[1.250600000143038,1.484400000095377]",,,,,,2 × 4 =,8,0,4,4,4,1,,,,,,,,,,,,,,,,,,,,,,,,,,,,,,,,,,,,,,,,,,,,,,,,,,,,,,,,,,,,,,,,,,,,,,,,,,,,,,,,,,,,,,,,,,,,,,,,,,,,,,,,,,,,,,,,,,,,,,,,,,,,,,,,,,,,,,,,,,,,
,8902,CAB,30/06/2004,001,2023-12-02_10h14.47.606,OS3_Mult_verification,2022.2.4,Win32,60.86056844,,,,,,,,,,,,,,,,,,4,2.3192,1,"[""4"",""5"",""backspace"",""return""]","[0.8006000001430493,0.8180000000000405,1.722500000000025,2.017500000000041]",,,,,,2 × 2 =,4,0,5,5,5,1,,,,,,,,,,,,,,,,,,,,,,,,,,,,,,,,,,,,,,,,,,,,,,,,,,,,,,,,,,,,,,,,,,,,,,,,,,,,,,,,,,,,,,,,,,,,,,,,,,,,,,,,,,,,,,,,,,,,,,,,,,,,,,,,,,,,,,,,,,,,
,8902,CAB,30/06/2004,001,2023-12-02_10h14.47.606,OS3_Mult_verification,2022.2.4,Win32,60.86056844,,,,,,,,,,,,,,,,,,20,1.7804,1,"[""2"",""0"",""return""]","[0.8497000000477328,1.2010000000000218,1.4778999998569589]",,,,,,4 × 5 =,20,0,6,6,6,1,,,,,,,,,,,,,,,,,,,,,,,,,,,,,,,,,,,,,,,,,,,,,,,,,,,,,,,,,,,,,,,,,,,,,,,,,,,,,,,,,,,,,,,,,,,,,,,,,,,,,,,,,,,,,,,,,,,,,,,,,,,,,,,,,,,,,,,,,,,,
,8902,CAB,30/06/2004,001,2023-12-02_10h14.47.606,OS3_Mult_verification,2022.2.4,Win32,60.86056844,,,,,,,,,,,,,,,,,,9,1.8186,1,"[""9"",""return""]","[1.2741000001430507,1.5335000000000036]",,,,,,3 × 3 =,9,0,7,7,7,1,,,,,,,,,,,,,,,,,,,,,,,,,,,,,,,,,,,,,,,,,,,,,,,,,,,,,,,,,,,,,,,,,,,,,,,,,,,,,,,,,,,,,,,,,,,,,,,,,,,,,,,,,,,,,,,,,,,,,,,,,,,,,,,,,,,,,,,,,,,,
,8902,CAB,30/06/2004,001,2023-12-02_10h14.47.606,OS3_Mult_verification,2022.2.4,Win32,60.86056844,,,,,,,,,,,,,,,,,,10,1.7139,1,"[""1"",""0"",""return""]","[0.794200000047681,1.2040000000000077,1.3997999999523358]",,,,,,5 × 2 =,10,0,8,8,8,1,,,,,,,,,,,,,,,,,,,,,,,,,,,,,,,,,,,,,,,,,,,,,,,,,,,,,,,,,,,,,,,,,,,,,,,,,,,,,,,,,,,,,,,,,,,,,,,,,,,,,,,,,,,,,,,,,,,,,,,,,,,,,,,,,,,,,,,,,,,,
,8902,CAB,30/06/2004,001,2023-12-02_10h14.47.606,OS3_Mult_verification,2022.2.4,Win32,60.86056844,,,,,,,,,,,,,,,,,,16,1.9022,1,"[""1"",""6"",""return""]","[1.102599999904669,1.4022999999523336,1.6179000000954034]",,,,,,4 × 4 =,16,0,9,9,9,1,,,,,,,,,,,,,,,,,,,,,,,,,,,,,,,,,,,,,,,,,,,,,,,,,,,,,,,,,,,,,,,,,,,,,,,,,,,,,,,,,,,,,,,,,,,,,,,,,,,,,,,,,,,,,,,,,,,,,,,,,,,,,,,,,,,,,,,,,,,,
,8902,CAB,30/06/2004,001,2023-12-02_10h14.47.606,OS3_Mult_verification,2022.2.4,Win32,60.86056844,,,,,,,,,,,,,,,,,,24,2.2967,1,"[""2"",""4"",""return""]","[1.509700000047701,1.7830000000000155,1.9940000000000282]",,,,,,8 × 3 =,24,0,10,10,10,1,,,,,,,,,,,,,,,,,,,,,,,,,,,,,,,,,,,,,,,,,,,,,,,,,,,,,,,,,,,,,,,,,,,,,,,,,,,,,,,,,,,,,,,,,,,,,,,,,,,,,,,,,,,,,,,,,,,,,,,,,,,,,,,,,,,,,,,,,,,,
,8902,CAB,30/06/2004,001,2023-12-02_10h14.47.606,OS3_Mult_verification,2022.2.4,Win32,60.86056844,,,,,,,,,,,,,,,,,,35,2.2388,0,"[""3"",""5"",""return""]","[1.3999000000953856,1.6497999999523358,1.9356000001430402]",,,,,,6 × 5 =,30,0,11,11,11,1,,,,,,,,,,,,,,,,,,,,,,,,,,,,,,,,,,,,,,,,,,,,,,,,,,,,,,,,,,,,,,,,,,,,,,,,,,,,,,,,,,,,,,,,,,,,,,,,,,,,,,,,,,,,,,,,,,,,,,,,,,,,,,,,,,,,,,,,,,,,
,8902,CAB,30/06/2004,001,2023-12-02_10h14.47.606,OS3_Mult_verification,2022.2.4,Win32,60.86056844,,,,,,,,,,,,,,,,,,14,1.7495,1,"[""1"",""4"",""return""]","[1.006200000047727,1.2459000000953893,1.4570000000000505]",,,,,,7 × 2 =,14,0,12,12,12,1,,,,,,,,,,,,,,,,,,,,,,,,,,,,,,,,,,,,,,,,,,,,,,,,,,,,,,,,,,,,,,,,,,,,,,,,,,,,,,,,,,,,,,,,,,,,,,,,,,,,,,,,,,,,,,,,,,,,,,,,,,,,,,,,,,,,,,,,,,,,
,8902,CAB,30/06/2004,001,2023-12-02_10h14.47.606,OS3_Mult_verification,2022.2.4,Win32,60.86056844,,,,,,,,,,,,,,,,,,27,2.5998,1,"[""2"",""7"",""return""]","[1.1927999999522854,2.041799999952275,2.286400000095341]",,,,,,3 × 9 =,27,0,13,13,13,1,,,,,,,,,,,,,,,,,,,,,,,,,,,,,,,,,,,,,,,,,,,,,,,,,,,,,,,,,,,,,,,,,,,,,,,,,,,,,,,,,,,,,,,,,,,,,,,,,,,,,,,,,,,,,,,,,,,,,,,,,,,,,,,,,,,,,,,,,,,,
,8902,CAB,30/06/2004,001,2023-12-02_10h14.47.606,OS3_Mult_verification,2022.2.4,Win32,60.86056844,,,,,,,,,,,,,,,,,,16,2.3856,1,"[""1"",""6"",""return""]","[1.4450999999046417,1.7789999999999964,2.0670000000000073]",,,,,,2 × 8 =,16,0,14,14,14,1,,,,,,,,,,,,,,,,,,,,,,,,,,,,,,,,,,,,,,,,,,,,,,,,,,,,,,,,,,,,,,,,,,,,,,,,,,,,,,,,,,,,,,,,,,,,,,,,,,,,,,,,,,,,,,,,,,,,,,,,,,,,,,,,,,,,,,,,,,,,
,8902,CAB,30/06/2004,001,2023-12-02_10h14.47.606,OS3_Mult_verification,2022.2.4,Win32,60.86056844,,,,,,,,,,,,,,,,,,24,2.0633,1,"[""2"",""4"",""return""]","[1.354299999952275,1.5626999998092401,1.7561999998092688]",,,,,,4 × 6 =,24,0,15,15,15,1,,,,,,,,,,,,,,,,,,,,,,,,,,,,,,,,,,,,,,,,,,,,,,,,,,,,,,,,,,,,,,,,,,,,,,,,,,,,,,,,,,,,,,,,,,,,,,,,,,,,,,,,,,,,,,,,,,,,,,,,,,,,,,,,,,,,,,,,,,,,
,8902,CAB,30/06/2004,001,2023-12-02_10h14.47.606,OS3_Mult_verification,2022.2.4,Win32,60.86056844,,,,,,,,,,,,,,,,,,21,1.6689,1,"[""2"",""1"",""return""]","[0.9340999999046744,1.1210000000000377,1.367700000047705]",,,,,,7 × 3 =,21,0,16,16,16,1,,,,,,,,,,,,,,,,,,,,,,,,,,,,,,,,,,,,,,,,,,,,,,,,,,,,,,,,,,,,,,,,,,,,,,,,,,,,,,,,,,,,,,,,,,,,,,,,,,,,,,,,,,,,,,,,,,,,,,,,,,,,,,,,,,,,,,,,,,,,
,8902,CAB,30/06/2004,001,2023-12-02_10h14.47.606,OS3_Mult_verification,2022.2.4,Win32,60.86056844,,,,,,,,,,,,,,,,,,27,3.747,1,"[""2"",""7"",""return""]","[2.6002999999523126,3.033999999999992,3.4342000000476673]",,,,,,9 × 3 =,27,0,17,17,17,1,,,,,,,,,,,,,,,,,,,,,,,,,,,,,,,,,,,,,,,,,,,,,,,,,,,,,,,,,,,,,,,,,,,,,,,,,,,,,,,,,,,,,,,,,,,,,,,,,,,,,,,,,,,,,,,,,,,,,,,,,,,,,,,,,,,,,,,,,,,,
,8902,CAB,30/06/2004,001,2023-12-02_10h14.47.606,OS3_Mult_verification,2022.2.4,Win32,60.86056844,,,,,,,,,,,,,,,,,,28,2.5059,1,"[""2"",""8"",""return""]","[1.4366000001430166,1.870999999999981,2.211999999999989]",,,,,,4 × 7 =,28,0,18,18,18,1,,,,,,,,,,,,,,,,,,,,,,,,,,,,,,,,,,,,,,,,,,,,,,,,,,,,,,,,,,,,,,,,,,,,,,,,,,,,,,,,,,,,,,,,,,,,,,,,,,,,,,,,,,,,,,,,,,,,,,,,,,,,,,,,,,,,,,,,,,,,
,8902,CAB,30/06/2004,001,2023-12-02_10h14.47.606,OS3_Mult_verification,2022.2.4,Win32,60.86056844,,,,,,,,,,,,,,,,,,18,2.4496,1,"[""1"",""8"",""return""]","[1.350699999809251,1.917299999952263,2.1506999998092624]",,,,,,2 × 9 =,18,0,19,19,19,1,,,,,,,,,,,,,,,,,,,,,,,,,,,,,,,,,,,,,,,,,,,,,,,,,,,,,,,,,,,,,,,,,,,,,,,,,,,,,,,,,,,,,,,,,,,,,,,,,,,,,,,,,,,,,,,,,,,,,,,,,,,,,,,,,,,,,,,,,,,,
,8902,CAB,30/06/2004,001,2023-12-02_10h14.47.606,OS3_Mult_verification,2022.2.4,Win32,60.86056844,,,,,,,,,,,,,,,,,,72,6.0329,1,"[""7"",""2"",""return""]","[5.162900000095362,5.362299999952313,5.7429000000953465]",,,,,,9 × 8 =,72,0,20,20,20,1,,,,,,,,,,,,,,,,,,,,,,,,,,,,,,,,,,,,,,,,,,,,,,,,,,,,,,,,,,,,,,,,,,,,,,,,,,,,,,,,,,,,,,,,,,,,,,,,,,,,,,,,,,,,,,,,,,,,,,,,,,,,,,,,,,,,,,,,,,,,
,8902,CAB,30/06/2004,001,2023-12-02_10h14.47.606,OS3_Mult_verification,2022.2.4,Win32,60.86056844,,,,,,,,,,,,,,,,,,36,3.4556,0,"[""2"",""backspace"",""3"",""6"",""return""]","[1.2054999999999723,1.9340999999046176,2.628299999952276,2.8079999999999927,3.1589000000953433]",,,,,,7 × 6 =,42,0,21,21,21,1,,,,,,,,,,,,,,,,,,,,,,,,,,,,,,,,,,,,,,,,,,,,,,,,,,,,,,,,,,,,,,,,,,,,,,,,,,,,,,,,,,,,,,,,,,,,,,,,,,,,,,,,,,,,,,,,,,,,,,,,,,,,,,,,,,,,,,,,,,,,
,8902,CAB,30/06/2004,001,2023-12-02_10h14.47.606,OS3_Mult_verification,2022.2.4,Win32,60.86056844,,,,,,,,,,,,,,,,,,54,4.1917,1,"[""5"",""4"",""return""]","[3.4832000000477024,3.6329000000953897,3.8994000000953974]",,,,,,6 × 9 =,54,0,22,22,22,1,,,,,,,,,,,,,,,,,,,,,,,,,,,,,,,,,,,,,,,,,,,,,,,,,,,,,,,,,,,,,,,,,,,,,,,,,,,,,,,,,,,,,,,,,,,,,,,,,,,,,,,,,,,,,,,,,,,,,,,,,,,,,,,,,,,,,,,,,,,,
,8902,CAB,30/06/2004,001,2023-12-02_10h14.47.606,OS3_Mult_verification,2022.2.4,Win32,60.86056844,,,,,,,,,,,,,,,,,,45,2.7201,1,"[""4"",""5"",""return""]","[1.6597000000476783,1.7644999999999982,2.4247000000476646]",,,,,,9 × 5 =,45,0,23,23,23,1,,,,,,,,,,,,,,,,,,,,,,,,,,,,,,,,,,,,,,,,,,,,,,,,,,,,,,,,,,,,,,,,,,,,,,,,,,,,,,,,,,,,,,,,,,,,,,,,,,,,,,,,,,,,,,,,,,,,,,,,,,,,,,,,,,,,,,,,,,,,
,8902,CAB,30/06/2004,001,2023-12-02_10h14.47.606,OS3_Mult_verification,2022.2.4,Win32,60.86056844,,,,,,,,,,,,,,,,,,56,6.6327,1,"[""5"",""6"",""return""]","[5.801200000047686,5.994700000047715,6.344799999952329]",,,,,,8 × 7 =,56,0,24,24,24,1,,,,,,,,,,,,,,,,,,,,,,,,,,,,,,,,,,,,,,,,,,,,,,,,,,,,,,,,,,,,,,,,,,,,,,,,,,,,,,,,,,,,,,,,,,,,,,,,,,,,,,,,,,,,,,,,,,,,,,,,,,,,,,,,,,,,,,,,,,,,
,8902,CAB,30/06/2004,001,2023-12-02_10h14.47.606,OS3_Mult_verification,2022.2.4,Win32,60.86056844,,,,,,,,,,,,,,,,,,36,3.175,1,"[""2"",""backspace"",""3"",""6"",""return""]","[1.333799999952305,2.0272999999523336,2.336999999999989,2.5002000000476983,2.877200000047708]",,,,,,6 × 6 =,36,0,25,25,25,1,,,,,,,,,,,,,,,,,,,,,,,,,,,,,,,,,,,,,,,,,,,,,,,,,,,,,,,,,,,,,,,,,,,,,,,,,,,,,,,,,,,,,,,,,,,,,,,,,,,,,,,,,,,,,,,,,,,,,,,,,,,,,,,,,,,,,,,,,,,,
,8902,CAB,30/06/2004,001,2023-12-02_10h14.47.606,OS3_Mult_verification,2022.2.4,Win32,60.86056844,,,,,,,,,,,,,,,,,,35,3.1153,1,"[""3"",""5"",""return""]","[2.024799999952279,2.3543999998569234,2.816799999952309]",,,,,,5 × 7 =,35,0,26,26,26,1,,,,,,,,,,,,,,,,,,,,,,,,,,,,,,,,,,,,,,,,,,,,,,,,,,,,,,,,,,,,,,,,,,,,,,,,,,,,,,,,,,,,,,,,,,,,,,,,,,,,,,,,,,,,,,,,,,,,,,,,,,,,,,,,,,,,,,,,,,,,
,8902,CAB,30/06/2004,001,2023-12-02_10h14.47.606,OS3_Mult_verification,2022.2.4,Win32,60.86056844,,,,,,,,,,,,,,,,,,36,4.3036,1,"[""3"",""6"",""return""]","[3.5009999999999764,3.684600000143064,4.0092999999523045]",,,,,,4 × 9 =,36,0,27,27,27,1,,,,,,,,,,,,,,,,,,,,,,,,,,,,,,,,,,,,,,,,,,,,,,,,,,,,,,,,,,,,,,,,,,,,,,,,,,,,,,,,,,,,,,,,,,,,,,,,,,,,,,,,,,,,,,,,,,,,,,,,,,,,,,,,,,,,,,,,,,,,
,8902,CAB,30/06/2004,001,2023-12-02_10h14.47.606,OS3_Mult_verification,2022.2.4,Win32,60.86056844,,,,,,,,,,,,,,,,,,48,2.9059,1,"[""4"",""8"",""return""]","[1.8353000001907844,2.203400000095371,2.603200000047707]",,,,,,8 × 6 =,48,0,28,28,28,1,,,,,,,,,,,,,,,,,,,,,,,,,,,,,,,,,,,,,,,,,,,,,,,,,,,,,,,,,,,,,,,,,,,,,,,,,,,,,,,,,,,,,,,,,,,,,,,,,,,,,,,,,,,,,,,,,,,,,,,,,,,,,,,,,,,,,,,,,,,,
,8902,CAB,30/06/2004,001,2023-12-02_10h14.47.606,OS3_Mult_verification,2022.2.4,Win32,60.86056844,,,,,,,,,,,,,,,,,,63,4.7033,1,"[""6"",""3"",""return""]","[3.7842999999523386,4.042399999856968,4.401499999999999]",,,,,,9 × 7 =,63,0,29,29,29,1,,,,,,,,,,,,,,,,,,,,,,,,,,,,,,,,,,,,,,,,,,,,,,,,,,,,,,,,,,,,,,,,,,,,,,,,,,,,,,,,,,,,,,,,,,,,,,,,,,,,,,,,,,,,,,,,,,,,,,,,,,,,,,,,,,,,,,,,,,,,
,8902,CAB,30/06/2004,001,2023-12-02_10h14.47.606,OS3_Mult_verification,2022.2.4,Win32,60.86056844,,,,,,,,,,,,,,,,,,12,2.7186,1,"[""1"",""2"",""return""]","[0.9265000000000327,1.5947000000476805,2.429200000047672]",,,,,,4 × 3 =,12,0,30,30,30,1,,,,,,,,,,,,,,,,,,,,,,,,,,,,,,,,,,,,,,,,,,,,,,,,,,,,,,,,,,,,,,,,,,,,,,,,,,,,,,,,,,,,,,,,,,,,,,,,,,,,,,,,,,,,,,,,,,,,,,,,,,,,,,,,,,,,,,,,,,,,
,8902,CAB,30/06/2004,001,2023-12-02_10h14.47.606,OS3_Mult_verification,2022.2.4,Win32,60.86056844,,,,,,,,,,,,,,,,,,25,1.9328,1,"[""2"",""5"",""return""]","[1.0852999999523263,1.3302999999523308,1.6367000000477105]",,,,,,5 × 5 =,25,0,31,31,31,1,,,,,,,,,,,,,,,,,,,,,,,,,,,,,,,,,,,,,,,,,,,,,,,,,,,,,,,,,,,,,,,,,,,,,,,,,,,,,,,,,,,,,,,,,,,,,,,,,,,,,,,,,,,,,,,,,,,,,,,,,,,,,,,,,,,,,,,,,,,,
,8902,CAB,30/06/2004,001,2023-12-02_10h14.47.606,OS3_Mult_verification,2022.2.4,Win32,60.86056844,,,,,,,,,,,,,,,,,,,0.2497,0,,,,,,,,3 × 2 =,6,0,32,32,32,1,,,,,,,,,,,,,,,,,,,,,,,,,,,,,,,,,,,,,,,,,,,,,,,,,,,,,,,,,,,,,,,,,,,,,,,,,,,,,,,,,,,,,,,,,,,,,,,,,,,,,,,,,,,,,,,,,,,,,,,,,,,,,,,,,,,,,,,,,,,,
,8902,CAB,30/06/2004,001,2023-12-02_10h14.47.606,OS3_Mult_verification,2022.2.4,Win32,60.86056844,,,,,,,,,,,,,,,,space,1.9008,,,,,,,,,,,,,,,,,,space,4.6325,911,1.7983,1,"[""9"",""1"",""1"",""return""]","[0.43120000004768144,0.7870999999046262,1.0347000000476783,1.750799999952335]",0,0,0,2,1,3,911,Audio/911.mp3,practice,,,,,,,,,,,,,,,,,,,,,,,,,,,,,,,,,,,,,,,,,,,,,,,,,,,,,,,,,,,,,,,,,,,,,,,,,,,,,,,,,,,,,,,,,,,,,,,,,,,,,,,,,,,,,,,,,,,,,,,,,,,,
,8902,CAB,30/06/2004,001,2023-12-02_10h14.47.606,OS3_Mult_verification,2022.2.4,Win32,60.86056844,,,,,,,,,,,,,,,,,,,,,,,,,,,,,,,,,,,,,123,1.3994,1,"[""1"",""2"",""3"",""return""]","[0.36739999985695704,0.6395999999046467,0.9173999998569684,1.3540000000000418]",0,1,1,0,1,3,123,Audio/123.mp3,practice,,,,,,,,,,,,,,,,,,,,,,,,,,,,,,,,,,,,,,,,,,,,,,,,,,,,,,,,,,,,,,,,,,,,,,,,,,,,,,,,,,,,,,,,,,,,,,,,,,,,,,,,,,,,,,,,,,,,,,,,,,,,
,8902,CAB,30/06/2004,001,2023-12-02_10h14.47.606,OS3_Mult_verification,2022.2.4,Win32,60.86056844,,,,,,,,,,,,,,,,,,,,,,,,,,,,,,,,,,,,,321,1.5166,1,"[""3"",""2"",""1"",""return""]","[0.2884000000953506,0.5694000000953565,0.8138000001907244,1.4683000001907658]",0,2,2,1,1,3,321,Audio/321.mp3,practice,,,,,,,,,,,,,,,,,,,,,,,,,,,,,,,,,,,,,,,,,,,,,,,,,,,,,,,,,,,,,,,,,,,,,,,,,,,,,,,,,,,,,,,,,,,,,,,,,,,,,,,,,,,,,,,,,,,,,,,,,,,,
,8902,CAB,30/06/2004,001,2023-12-02_10h14.47.606,OS3_Mult_verification,2022.2.4,Win32,60.86056844,,,,,,,,,,,,,,,,,,,,,,,,,,,,,,,,,,,,,46,1.2201,1,"[""4"",""6"",""return""]","[0.6347999999522926,0.7630999999046253,1.1852000000476437]",,,,,,2,46,Audio/46.mp3,EGNER,0,0,0,0,1,,,,,,,,,,,,,,,,,,,,,,,,,,,,,,,,,,,,,,,,,,,,,,,,,,,,,,,,,,,,,,,,,,,,,,,,,,,,,,,,,,,,,,,,,,,,,,,,,,,,,,,,,,,,,,,,,,,,,,,
,8902,CAB,30/06/2004,001,2023-12-02_10h14.47.606,OS3_Mult_verification,2022.2.4,Win32,60.86056844,,,,,,,,,,,,,,,,,,,,,,,,,,,,,,,,,,,,,82,1.0831,1,"[""8"",""2"",""return""]","[0.38430000019070576,0.5292000000476946,1.0344000000953315]",,,,,,2,82,Audio/82.mp3,EGNER,0,1,1,1,1,,,,,,,,,,,,,,,,,,,,,,,,,,,,,,,,,,,,,,,,,,,,,,,,,,,,,,,,,,,,,,,,,,,,,,,,,,,,,,,,,,,,,,,,,,,,,,,,,,,,,,,,,,,,,,,,,,,,,,,
,8902,CAB,30/06/2004,001,2023-12-02_10h14.47.606,OS3_Mult_verification,2022.2.4,Win32,60.86056844,,,,,,,,,,,,,,,,,,,,,,,,,,,,,,,,,,,,,,,,,,,,,,,,,,,,,,,,0,0,0,0,1,digitSpan_stim/twoAudio.xlsx,,,,,,,,,,,,,,,,,,,,,,,,,,,,,,,,,,,,,,,,,,,,,,,,,,,,,,,,,,,,,,,,,,,,,,,,,,,,,,,,,,,,,,,,,,,,,,,,,,,,,,,,,,,,,,,,,
,8902,CAB,30/06/2004,001,2023-12-02_10h14.47.606,OS3_Mult_verification,2022.2.4,Win32,60.86056844,,,,,,,,,,,,,,,,,,,,,,,,,,,,,,,,,,,,,157,1.55,1,"[""1"",""5"",""7"",""return""]","[0.6082000000477024,0.8340000000000032,1.0672999999522972,1.505700000047682]",,,,,,3,157,Audio/157.mp3,EGNER,0,0,0,0,1,,,,,,,,,,,,,,,,,,,,,,,,,,,,,,,,,,,,,,,,,,,,,,,,,,,,,,,,,,,,,,,,,,,,,,,,,,,,,,,,,,,,,,,,,,,,,,,,,,,,,,,,,,,,,,,,,,,,,,,
,8902,CAB,30/06/2004,001,2023-12-02_10h14.47.606,OS3_Mult_verification,2022.2.4,Win32,60.86056844,,,,,,,,,,,,,,,,,,,,,,,,,,,,,,,,,,,,,397,1.0665,1,"[""3"",""9"",""7"",""return""]","[0.3324999999999818,0.49370000004768144,0.7668000001906989,1.0288000001906994]",,,,,,3,397,Audio/397.mp3,EGNER,0,1,1,1,1,,,,,,,,,,,,,,,,,,,,,,,,,,,,,,,,,,,,,,,,,,,,,,,,,,,,,,,,,,,,,,,,,,,,,,,,,,,,,,,,,,,,,,,,,,,,,,,,,,,,,,,,,,,,,,,,,,,,,,,
,8902,CAB,30/06/2004,001,2023-12-02_10h14.47.606,OS3_Mult_verification,2022.2.4,Win32,60.86056844,,,,,,,,,,,,,,,,,,,,,,,,,,,,,,,,,,,,,,,,,,,,,,,,,,,,,,,,0,1,1,1,1,digitSpan_stim/threeAudio.xlsx,,,,,,,,,,,,,,,,,,,,,,,,,,,,,,,,,,,,,,,,,,,,,,,,,,,,,,,,,,,,,,,,,,,,,,,,,,,,,,,,,,,,,,,,,,,,,,,,,,,,,,,,,,,,,,,,,
,8902,CAB,30/06/2004,001,2023-12-02_10h14.47.606,OS3_Mult_verification,2022.2.4,Win32,60.86056844,,,,,,,,,,,,,,,,,,,,,,,,,,,,,,,,,,,,,6352,1.6664,1,"[""6"",""3"",""5"",""2"",""return""]","[0.5020000000000095,0.7235000000000014,1.0174000000953924,1.2009000000953733,1.622799999952349]",,,,,,4,6352,Audio/6352.mp3,EGNER,0,0,0,0,1,,,,,,,,,,,,,,,,,,,,,,,,,,,,,,,,,,,,,,,,,,,,,,,,,,,,,,,,,,,,,,,,,,,,,,,,,,,,,,,,,,,,,,,,,,,,,,,,,,,,,,,,,,,,,,,,,,,,,,,
,8902,CAB,30/06/2004,001,2023-12-02_10h14.47.606,OS3_Mult_verification,2022.2.4,Win32,60.86056844,,,,,,,,,,,,,,,,,,,,,,,,,,,,,,,,,,,,,9184,1.6997,1,"[""9"",""1"",""8"",""4"",""return""]","[0.4362000000476769,0.7002000000476869,1.0172000000476942,1.2020999999046467,1.6557000000476592]",,,,,,4,9184,Audio/9184.mp3,EGNER,0,1,1,1,1,,,,,,,,,,,,,,,,,,,,,,,,,,,,,,,,,,,,,,,,,,,,,,,,,,,,,,,,,,,,,,,,,,,,,,,,,,,,,,,,,,,,,,,,,,,,,,,,,,,,,,,,,,,,,,,,,,,,,,,
,8902,CAB,30/06/2004,001,2023-12-02_10h14.47.606,OS3_Mult_verification,2022.2.4,Win32,60.86056844,,,,,,,,,,,,,,,,,,,,,,,,,,,,,,,,,,,,,,,,,,,,,,,,,,,,,,,,0,2,2,2,1,digitSpan_stim/fourAudio.xlsx,,,,,,,,,,,,,,,,,,,,,,,,,,,,,,,,,,,,,,,,,,,,,,,,,,,,,,,,,,,,,,,,,,,,,,,,,,,,,,,,,,,,,,,,,,,,,,,,,,,,,,,,,,,,,,,,,
,8902,CAB,30/06/2004,001,2023-12-02_10h14.47.606,OS3_Mult_verification,2022.2.4,Win32,60.86056844,,,,,,,,,,,,,,,,,,,,,,,,,,,,,,,,,,,,,59281,1.9997,1,"[""5"",""9"",""2"",""8"",""1"",""return""]","[0.497299999952304,0.8075999999045962,1.0415999999046335,1.3128999998569384,1.5012000000476746,1.950999999999965]",,,,,,5,59281,Audio/59281.mp3,EGNER,0,0,0,0,1,,,,,,,,,,,,,,,,,,,,,,,,,,,,,,,,,,,,,,,,,,,,,,,,,,,,,,,,,,,,,,,,,,,,,,,,,,,,,,,,,,,,,,,,,,,,,,,,,,,,,,,,,,,,,,,,,,,,,,,
,8902,CAB,30/06/2004,001,2023-12-02_10h14.47.606,OS3_Mult_verification,2022.2.4,Win32,60.86056844,,,,,,,,,,,,,,,,,,,,,,,,,,,,,,,,,,,,,64738,2.6205,1,"[""6"",""4"",""7"",""3"",""8"",""return""]","[0.6112999999522799,0.9010000000000105,1.2394000000953724,1.5889999999999986,1.878499999999974,2.5697000000476464]",,,,,,5,64738,Audio/64738.mp3,EGNER,0,1,1,1,1,,,,,,,,,,,,,,,,,,,,,,,,,,,,,,,,,,,,,,,,,,,,,,,,,,,,,,,,,,,,,,,,,,,,,,,,,,,,,,,,,,,,,,,,,,,,,,,,,,,,,,,,,,,,,,,,,,,,,,,
,8902,CAB,30/06/2004,001,2023-12-02_10h14.47.606,OS3_Mult_verification,2022.2.4,Win32,60.86056844,,,,,,,,,,,,,,,,,,,,,,,,,,,,,,,,,,,,,,,,,,,,,,,,,,,,,,,,0,3,3,3,1,digitSpan_stim/fiveAudio.xlsx,,,,,,,,,,,,,,,,,,,,,,,,,,,,,,,,,,,,,,,,,,,,,,,,,,,,,,,,,,,,,,,,,,,,,,,,,,,,,,,,,,,,,,,,,,,,,,,,,,,,,,,,,,,,,,,,,
,8902,CAB,30/06/2004,001,2023-12-02_10h14.47.606,OS3_Mult_verification,2022.2.4,Win32,60.86056844,,,,,,,,,,,,,,,,,,,,,,,,,,,,,,,,,,,,,396172,4.4003,1,"[""3"",""9"",""6"",""1"",""7"",""2"",""return""]","[0.5450000000000728,1.3672000000477738,2.551099999904636,2.96709999990469,3.567599999904701,3.7345000000000255,4.3507999999524145]",,,,,,6,396172,Audio/396172.mp3,EGNER,0,0,0,0,1,,,,,,,,,,,,,,,,,,,,,,,,,,,,,,,,,,,,,,,,,,,,,,,,,,,,,,,,,,,,,,,,,,,,,,,,,,,,,,,,,,,,,,,,,,,,,,,,,,,,,,,,,,,,,,,,,,,,,,,
,8902,CAB,30/06/2004,001,2023-12-02_10h14.47.606,OS3_Mult_verification,2022.2.4,Win32,60.86056844,,,,,,,,,,,,,,,,,,,,,,,,,,,,,,,,,,,,,594631,5.7034,1,"[""5"",""9"",""4"",""6"",""3"",""1"",""return""]","[1.0722999999524063,1.8947999999523972,2.534199999809289,3.5674999999999955,4.327299999952402,4.867299999952365,5.66829999995241]",,,,,,6,594631,Audio/594631.mp3,EGNER,0,1,1,1,1,,,,,,,,,,,,,,,,,,,,,,,,,,,,,,,,,,,,,,,,,,,,,,,,,,,,,,,,,,,,,,,,,,,,,,,,,,,,,,,,,,,,,,,,,,,,,,,,,,,,,,,,,,,,,,,,,,,,,,,
,8902,CAB,30/06/2004,001,2023-12-02_10h14.47.606,OS3_Mult_verification,2022.2.4,Win32,60.86056844,,,,,,,,,,,,,,,,,,,,,,,,,,,,,,,,,,,,,,,,,,,,,,,,,,,,,,,,0,4,4,4,1,digitSpan_stim/sixAudio.xlsx,,,,,,,,,,,,,,,,,,,,,,,,,,,,,,,,,,,,,,,,,,,,,,,,,,,,,,,,,,,,,,,,,,,,,,,,,,,,,,,,,,,,,,,,,,,,,,,,,,,,,,,,,,,,,,,,,
,8902,CAB,30/06/2004,001,2023-12-02_10h14.47.606,OS3_Mult_verification,2022.2.4,Win32,60.86056844,,,,,,,,,,,,,,,,,,,,,,,,,,,,,,,,,,,,,8241973,5.7199,1,"[""8"",""2"",""4"",""1"",""9"",""7"",""3"",""return""]","[0.5170999999046444,1.1929999999999836,1.8572999999522608,2.301399999856926,3.235699999809185,4.017599999904633,5.117299999952252,5.668699999809178]",,,,,,7,8241973,Audio/8241973.mp3,EGNER,0,0,0,0,1,,,,,,,,,,,,,,,,,,,,,,,,,,,,,,,,,,,,,,,,,,,,,,,,,,,,,,,,,,,,,,,,,,,,,,,,,,,,,,,,,,,,,,,,,,,,,,,,,,,,,,,,,,,,,,,,,,,,,,,
,8902,CAB,30/06/2004,001,2023-12-02_10h14.47.606,OS3_Mult_verification,2022.2.4,Win32,60.86056844,,,,,,,,,,,,,,,,,,,,,,,,,,,,,,,,,,,,,2814367,4.95,1,"[""2"",""8"",""1"",""4"",""3"",""6"",""7"",""return""]","[0.39449999999999363,0.9120999999046262,1.4834999999999354,2.2465999999046744,3.439599999904658,3.8840000000000146,4.063799999952266,4.900700000047664]",,,,,,7,2814367,Audio/2814367.mp3,EGNER,0,1,1,1,1,,,,,,,,,,,,,,,,,,,,,,,,,,,,,,,,,,,,,,,,,,,,,,,,,,,,,,,,,,,,,,,,,,,,,,,,,,,,,,,,,,,,,,,,,,,,,,,,,,,,,,,,,,,,,,,,,,,,,,,
,8902,CAB,30/06/2004,001,2023-12-02_10h14.47.606,OS3_Mult_verification,2022.2.4,Win32,60.86056844,,,,,,,,,,,,,,,,,,,,,,,,,,,,,,,,,,,,,,,,,,,,,,,,,,,,,,,,0,5,5,5,1,digitSpan_stim/sevenAudio.xlsx,,,,,,,,,,,,,,,,,,,,,,,,,,,,,,,,,,,,,,,,,,,,,,,,,,,,,,,,,,,,,,,,,,,,,,,,,,,,,,,,,,,,,,,,,,,,,,,,,,,,,,,,,,,,,,,,,
,8902,CAB,30/06/2004,001,2023-12-02_10h14.47.606,OS3_Mult_verification,2022.2.4,Win32,60.86056844,,,,,,,,,,,,,,,,,,,,,,,,,,,,,,,,,,,,,53827164,8.0198,1,"[""5"",""3"",""8"",""2"",""7"",""1"",""6"",""4"",""return""]","[0.3125,0.8170999999047126,1.5847000000477465,2.26400000000001,5.64549999999997,6.230000000000018,6.844200000047749,7.151099999904659,7.984799999952315]",,,,,,8,53827164,Audio/53827164.mp3,EGNER,0,0,0,0,1,,,,,,,,,,,,,,,,,,,,,,,,,,,,,,,,,,,,,,,,,,,,,,,,,,,,,,,,,,,,,,,,,,,,,,,,,,,,,,,,,,,,,,,,,,,,,,,,,,,,,,,,,,,,,,,,,,,,,,,
,8902,CAB,30/06/2004,001,2023-12-02_10h14.47.606,OS3_Mult_verification,2022.2.4,Win32,60.86056844,,,,,,,,,,,,,,,,,,,,,,,,,,,,,,,,,,,,,75241638,10.5836,0,"[""7"",""5"",""2"",""4"",""1"",""6"",""3"",""8"",""return""]","[1.4885000000000446,2.667600000143125,3.400400000095374,4.563700000047675,5.268000000000029,6.234299999952327,7.276000000000067,9.80190000009543,10.53820000004771]",,,,,,8,75241739,Audio/75241739.mp3,EGNER,0,1,1,1,1,,,,,,,,,,,,,,,,,,,,,,,,,,,,,,,,,,,,,,,,,,,,,,,,,,,,,,,,,,,,,,,,,,,,,,,,,,,,,,,,,,,,,,,,,,,,,,,,,,,,,,,,,,,,,,,,,,,,,,,
,8902,CAB,30/06/2004,001,2023-12-02_10h14.47.606,OS3_Mult_verification,2022.2.4,Win32,60.86056844,,,,,,,,,,,,,,,,,,,,,,,,,,,,,,,,,,,,,,,,,,,,,,,,,,,,,,,,0,6,6,6,1,digitSpan_stim/eightAudio.xlsx,,,,,,,,,,,,,,,,,,,,,,,,,,,,,,,,,,,,,,,,,,,,,,,,,,,,,,,,,,,,,,,,,,,,,,,,,,,,,,,,,,,,,,,,,,,,,,,,,,,,,,,,,,,,,,,,,
,8902,CAB,30/06/2004,001,2023-12-02_10h14.47.606,OS3_Mult_verification,2022.2.4,Win32,60.86056844,,,,,,,,,,,,,,,,,,,,,,,,,,,,,,,,,,,,,682594316,9.0006,1,"[""6"",""8"",""2"",""5"",""9"",""4"",""3"",""1"",""6"",""return""]","[1.16700000000003,2.0837999999523618,2.8867000000476537,3.533999999999992,5.584399999856942,6.283999999999992,7.284700000047678,7.6235000000000355,8.412000000000035,8.956200000047716]",,,,,,9,682594316,Audio/682594316.mp3,EGNER,0,0,0,0,1,,,,,,,,,,,,,,,,,,,,,,,,,,,,,,,,,,,,,,,,,,,,,,,,,,,,,,,,,,,,,,,,,,,,,,,,,,,,,,,,,,,,,,,,,,,,,,,,,,,,,,,,,,,,,,,,,,,,,,,
,8902,CAB,30/06/2004,001,2023-12-02_10h14.47.606,OS3_Mult_verification,2022.2.4,Win32,60.86056844,,,,,,,,,,,,,,,,,,,,,,,,,,,,,,,,,,,,,142963748,10.98,0,"[""1"",""4"",""2"",""9"",""6"",""3"",""7"",""4"",""8"",""return""]","[1.0638000001907812,1.8977000000477346,2.7116000001431075,3.5,5.301000000000045,6.0338000001908085,7.834100000143053,9.929300000190779,10.500900000095385,10.938400000095385]",,,,,,9,142963758,Audio/142963758.mp3,EGNER,0,1,1,1,1,,,,,,,,,,,,,,,,,,,,,,,,,,,,,,,,,,,,,,,,,,,,,,,,,,,,,,,,,,,,,,,,,,,,,,,,,,,,,,,,,,,,,,,,,,,,,,,,,,,,,,,,,,,,,,,,,,,,,,,
,8902,CAB,30/06/2004,001,2023-12-02_10h14.47.606,OS3_Mult_verification,2022.2.4,Win32,60.86056844,,,,,,,,,,,,,,,,,,,,,,,,,,,,,,,,,,,,,,,,,,,,,,,,,,,,,,,,0,7,7,7,1,digitSpan_stim/nineAudio.xlsx,,,,,,,,,,,,,,,,,,,,,,,,,,,,,,,,,,,,,,,,,,,,,,,,,,,,,,,,,,,,,,,,,,,,,,,,,,,,,,,,,,,,,,,,,,,,,,,,,,,,,,,,,,,,,,,,,
,8902,CAB,30/06/2004,001,2023-12-02_10h14.47.606,OS3_Mult_verification,2022.2.4,Win32,60.86056844,,,,,,,,,,,,,,,,,,,,,,,,,,,,,,,,,,,,,,,,,,,,,,,Egner,,,,,,,,,,,,,,,0,0,0,0,1,digitSpan_stim/Egner.xlsx,,,,,,,,,,,,,,,,,,,,,,,,,,,,,,,,,,,,,,,,,,,,,,,,,,,,,,,,,,,,,,,,,,,,,,,,,,,,,,,,,,,,,,,,,,,,,,,,,,,,,,,,,,,
,8902,CAB,30/06/2004,001,2023-12-02_10h14.47.606,OS3_Mult_verification,2022.2.4,Win32,60.86056844,,,,,,,,,,,,,,,,,,,,,,,,,,,,,,,,,,,,,97,2.033,1,"[""9"",""7"",""return""]","[1.3034000000953938,1.5197999999523972,1.9931000001431585]",,,,,,2,97,Audio/97.mp3,WAIS,0,0,0,0,1,,,,,,,,,,,,,,,,,,,,,,,,,,,,,,,,,,,,,,,,,,,,,,,,,,,,,,,,,,,,,,,,,,,,,,,,,,,,,,,,,,,,,,,,,,,,,,,,,,,,,,,,,,,,,,,,,,,,,,,
,8902,CAB,30/06/2004,001,2023-12-02_10h14.47.606,OS3_Mult_verification,2022.2.4,Win32,60.86056844,,,,,,,,,,,,,,,,,,,,,,,,,,,,,,,,,,,,,63,1.0166,1,"[""6"",""3"",""return""]","[0.35169999980917055,0.5712999999523163,0.9688999998569443]",,,,,,2,63,Audio/63.mp3,WAIS,0,1,1,1,1,,,,,,,,,,,,,,,,,,,,,,,,,,,,,,,,,,,,,,,,,,,,,,,,,,,,,,,,,,,,,,,,,,,,,,,,,,,,,,,,,,,,,,,,,,,,,,,,,,,,,,,,,,,,,,,,,,,,,,,
,8902,CAB,30/06/2004,001,2023-12-02_10h14.47.606,OS3_Mult_verification,2022.2.4,Win32,60.86056844,,,,,,,,,,,,,,,,,,,,,,,,,,,,,,,,,,,,,,,,,,,,,,,,,,,,,,,,0,0,0,0,1,digitSpan_stim/twoWAIS.xlsx,,,,,,,,,,,,,,,,,,,,,,,,,,,,,,,,,,,,,,,,,,,,,,,,,,,,,,,,,,,,,,,,,,,,,,,,,,,,,,,,,,,,,,,,,,,,,,,,,,,,,,,,,,,,,,,,,
,8902,CAB,30/06/2004,001,2023-12-02_10h14.47.606,OS3_Mult_verification,2022.2.4,Win32,60.86056844,,,,,,,,,,,,,,,,,,,,,,,,,,,,,,,,,,,,,582,1.333,1,"[""5"",""8"",""2"",""return""]","[0.38400000000001455,0.588400000095362,0.8509000000954074,1.294999999999959]",,,,,,3,582,Audio/582.mp3,WAIS,0,0,0,0,1,,,,,,,,,,,,,,,,,,,,,,,,,,,,,,,,,,,,,,,,,,,,,,,,,,,,,,,,,,,,,,,,,,,,,,,,,,,,,,,,,,,,,,,,,,,,,,,,,,,,,,,,,,,,,,,,,,,,,,,
,8902,CAB,30/06/2004,001,2023-12-02_10h14.47.606,OS3_Mult_verification,2022.2.4,Win32,60.86056844,,,,,,,,,,,,,,,,,,,,,,,,,,,,,,,,,,,,,694,1.383,1,"[""6"",""9"",""4"",""return""]","[0.39229999995234266,0.7010999999046135,0.9840999999046289,1.339700000047742]",,,,,,3,694,Audio/694.mp3,WAIS,0,1,1,1,1,,,,,,,,,,,,,,,,,,,,,,,,,,,,,,,,,,,,,,,,,,,,,,,,,,,,,,,,,,,,,,,,,,,,,,,,,,,,,,,,,,,,,,,,,,,,,,,,,,,,,,,,,,,,,,,,,,,,,,,
,8902,CAB,30/06/2004,001,2023-12-02_10h14.47.606,OS3_Mult_verification,2022.2.4,Win32,60.86056844,,,,,,,,,,,,,,,,,,,,,,,,,,,,,,,,,,,,,,,,,,,,,,,,,,,,,,,,0,1,1,1,1,digitSpan_stim/threeWAIS.xlsx,,,,,,,,,,,,,,,,,,,,,,,,,,,,,,,,,,,,,,,,,,,,,,,,,,,,,,,,,,,,,,,,,,,,,,,,,,,,,,,,,,,,,,,,,,,,,,,,,,,,,,,,,,,,,,,,,
,8902,CAB,30/06/2004,001,2023-12-02_10h14.47.606,OS3_Mult_verification,2022.2.4,Win32,60.86056844,,,,,,,,,,,,,,,,,,,,,,,,,,,,,,,,,,,,,7286,2.5831,1,"[""7"",""2"",""8"",""6"",""return""]","[0.6715999999046289,0.9839000000954456,1.2670999999046444,1.8270999999047035,2.5450999999046644]",,,,,,4,7286,Audio/7286.mp3,WAIS,0,0,0,0,1,,,,,,,,,,,,,,,,,,,,,,,,,,,,,,,,,,,,,,,,,,,,,,,,,,,,,,,,,,,,,,,,,,,,,,,,,,,,,,,,,,,,,,,,,,,,,,,,,,,,,,,,,,,,,,,,,,,,,,,
,8902,CAB,30/06/2004,001,2023-12-02_10h14.47.606,OS3_Mult_verification,2022.2.4,Win32,60.86056844,,,,,,,,,,,,,,,,,,,,,,,,,,,,,,,,,,,,,6439,2.3001,1,"[""6"",""4"",""3"",""9"",""return""]","[0.4516999998091933,0.9336999998091642,1.2670999999045307,1.5920999999045762,2.2508999998568697]",,,,,,4,6439,Audio/6439.mp3,WAIS,0,1,1,1,1,,,,,,,,,,,,,,,,,,,,,,,,,,,,,,,,,,,,,,,,,,,,,,,,,,,,,,,,,,,,,,,,,,,,,,,,,,,,,,,,,,,,,,,,,,,,,,,,,,,,,,,,,,,,,,,,,,,,,,,
,8902,CAB,30/06/2004,001,2023-12-02_10h14.47.606,OS3_Mult_verification,2022.2.4,Win32,60.86056844,,,,,,,,,,,,,,,,,,,,,,,,,,,,,,,,,,,,,,,,,,,,,,,,,,,,,,,,0,2,2,2,1,digitSpan_stim/fourWAIS.xlsx,,,,,,,,,,,,,,,,,,,,,,,,,,,,,,,,,,,,,,,,,,,,,,,,,,,,,,,,,,,,,,,,,,,,,,,,,,,,,,,,,,,,,,,,,,,,,,,,,,,,,,,,,,,,,,,,,
,8902,CAB,30/06/2004,001,2023-12-02_10h14.47.606,OS3_Mult_verification,2022.2.4,Win32,60.86056844,,,,,,,,,,,,,,,,,,,,,,,,,,,,,,,,,,,,,42731,2.6304,1,"[""4"",""2"",""7"",""3"",""1"",""return""]","[0.4244000000953747,0.6672000000477283,1.183999999999969,1.8909999999999627,2.091299999952298,2.591000000000008]",,,,,,5,42731,Audio/42731.mp3,WAIS,0,0,0,0,1,,,,,,,,,,,,,,,,,,,,,,,,,,,,,,,,,,,,,,,,,,,,,,,,,,,,,,,,,,,,,,,,,,,,,,,,,,,,,,,,,,,,,,,,,,,,,,,,,,,,,,,,,,,,,,,,,,,,,,,
,8902,CAB,30/06/2004,001,2023-12-02_10h14.47.606,OS3_Mult_verification,2022.2.4,Win32,60.86056844,,,,,,,,,,,,,,,,,,,,,,,,,,,,,,,,,,,,,75836,3.3157,1,"[""7"",""5"",""8"",""3"",""6"",""return""]","[0.3999000000953856,0.8544000000953247,1.843499999999949,2.35290000009536,2.783099999904607,3.2674999999999272]",,,,,,5,75836,Audio/75836.mp3,WAIS,0,1,1,1,1,,,,,,,,,,,,,,,,,,,,,,,,,,,,,,,,,,,,,,,,,,,,,,,,,,,,,,,,,,,,,,,,,,,,,,,,,,,,,,,,,,,,,,,,,,,,,,,,,,,,,,,,,,,,,,,,,,,,,,,
,8902,CAB,30/06/2004,001,2023-12-02_10h14.47.606,OS3_Mult_verification,2022.2.4,Win32,60.86056844,,,,,,,,,,,,,,,,,,,,,,,,,,,,,,,,,,,,,,,,,,,,,,,,,,,,,,,,0,3,3,3,1,digitSpan_stim/fiveWAIS.xlsx,,,,,,,,,,,,,,,,,,,,,,,,,,,,,,,,,,,,,,,,,,,,,,,,,,,,,,,,,,,,,,,,,,,,,,,,,,,,,,,,,,,,,,,,,,,,,,,,,,,,,,,,,,,,,,,,,
,8902,CAB,30/06/2004,001,2023-12-02_10h14.47.606,OS3_Mult_verification,2022.2.4,Win32,60.86056844,,,,,,,,,,,,,,,,,,,,,,,,,,,,,,,,,,,,,392487,3.9657,1,"[""3"",""9"",""2"",""4"",""8"",""7"",""return""]","[0.45050000000003365,0.9367000000477219,1.8855999999045707,2.3170000000000073,3.217200000047683,3.401299999952357,3.918900000095391]",,,,,,6,392487,Audio/392487.mp3,WAIS,0,0,0,0,1,,,,,,,,,,,,,,,,,,,,,,,,,,,,,,,,,,,,,,,,,,,,,,,,,,,,,,,,,,,,,,,,,,,,,,,,,,,,,,,,,,,,,,,,,,,,,,,,,,,,,,,,,,,,,,,,,,,,,,,
,8902,CAB,30/06/2004,001,2023-12-02_10h14.47.606,OS3_Mult_verification,2022.2.4,Win32,60.86056844,,,,,,,,,,,,,,,,,,,,,,,,,,,,,,,,,,,,,619473,4.4833,1,"[""6"",""1"",""9"",""4"",""7"",""3"",""return""]","[0.50750000000005,0.8702000000477028,1.3450000000000273,2.6288999998569125,3.100500000000011,3.6175999999046553,4.442099999904599]",,,,,,6,619473,Audio/619473.mp3,WAIS,0,1,1,1,1,,,,,,,,,,,,,,,,,,,,,,,,,,,,,,,,,,,,,,,,,,,,,,,,,,,,,,,,,,,,,,,,,,,,,,,,,,,,,,,,,,,,,,,,,,,,,,,,,,,,,,,,,,,,,,,,,,,,,,,
,8902,CAB,30/06/2004,001,2023-12-02_10h14.47.606,OS3_Mult_verification,2022.2.4,Win32,60.86056844,,,,,,,,,,,,,,,,,,,,,,,,,,,,,,,,,,,,,,,,,,,,,,,,,,,,,,,,0,4,4,4,1,digitSpan_stim/sixWAIS.xlsx,,,,,,,,,,,,,,,,,,,,,,,,,,,,,,,,,,,,,,,,,,,,,,,,,,,,,,,,,,,,,,,,,,,,,,,,,,,,,,,,,,,,,,,,,,,,,,,,,,,,,,,,,,,,,,,,,
,8902,CAB,30/06/2004,001,2023-12-02_10h14.47.606,OS3_Mult_verification,2022.2.4,Win32,60.86056844,,,,,,,,,,,,,,,,,,,,,,,,,,,,,,,,,,,,,6917428,5.8022,1,"[""6"",""9"",""1"",""7"",""4"",""2"",""8"",""return""]","[0.9505999999046253,1.526099999904659,2.4170999999046217,3.050700000047641,4.050499999999943,4.263399999856915,4.702700000047685,5.767599999904633]",,,,,,7,6917428,Audio/6917428.mp3,WAIS,0,0,0,0,1,,,,,,,,,,,,,,,,,,,,,,,,,,,,,,,,,,,,,,,,,,,,,,,,,,,,,,,,,,,,,,,,,,,,,,,,,,,,,,,,,,,,,,,,,,,,,,,,,,,,,,,,,,,,,,,,,,,,,,,
,8902,CAB,30/06/2004,001,2023-12-02_10h14.47.606,OS3_Mult_verification,2022.2.4,Win32,60.86056844,,,,,,,,,,,,,,,,,,,,,,,,,,,,,,,,,,,,,4179386,7.4667,1,"[""4"",""1"",""7"",""9"",""3"",""8"",""6"",""return""]","[1.4844000000954338,1.9327999999522945,2.566200000047729,3.9019000000953383,4.974400000095443,5.83299999999997,6.4232000000477,7.422099999904617]",,,,,,7,4179386,Audio/4179386.mp3,WAIS,0,1,1,1,1,,,,,,,,,,,,,,,,,,,,,,,,,,,,,,,,,,,,,,,,,,,,,,,,,,,,,,,,,,,,,,,,,,,,,,,,,,,,,,,,,,,,,,,,,,,,,,,,,,,,,,,,,,,,,,,,,,,,,,,
,8902,CAB,30/06/2004,001,2023-12-02_10h14.47.606,OS3_Mult_verification,2022.2.4,Win32,60.86056844,,,,,,,,,,,,,,,,,,,,,,,,,,,,,,,,,,,,,,,,,,,,,,,,,,,,,,,,0,5,5,5,1,digitSpan_stim/sevenWAIS.xlsx,,,,,,,,,,,,,,,,,,,,,,,,,,,,,,,,,,,,,,,,,,,,,,,,,,,,,,,,,,,,,,,,,,,,,,,,,,,,,,,,,,,,,,,,,,,,,,,,,,,,,,,,,,,,,,,,,
,8902,CAB,30/06/2004,001,2023-12-02_10h14.47.606,OS3_Mult_verification,2022.2.4,Win32,60.86056844,,,,,,,,,,,,,,,,,,,,,,,,,,,,,,,,,,,,,38296174,7.9004,1,"[""3"",""8"",""2"",""9"",""6"",""1"",""7"",""4"",""return""]","[0.9880000000000564,1.7608999998569743,2.984299999952327,3.963799999952357,4.323099999904684,6.325699999809331,6.950599999904625,7.300899999856938,7.854699999809327]",,,,,,8,38296174,Audio/38296174.mp3,WAIS,0,0,0,0,1,,,,,,,,,,,,,,,,,,,,,,,,,,,,,,,,,,,,,,,,,,,,,,,,,,,,,,,,,,,,,,,,,,,,,,,,,,,,,,,,,,,,,,,,,,,,,,,,,,,,,,,,,,,,,,,,,,,,,,,
,8902,CAB,30/06/2004,001,2023-12-02_10h14.47.606,OS3_Mult_verification,2022.2.4,Win32,60.86056844,,,,,,,,,,,,,,,,,,,,,,,,,,,,,,,,,,,,,58132647,7.5368,1,"[""5"",""8"",""1"",""3"",""2"",""6"",""4"",""7"",""return""]","[1.5180999999046207,1.9930999999046435,2.6355999999046844,3.634099999904606,3.8435999999046544,4.907599999904619,5.33400000000006,6.690500000000043,7.4952999999522945]",,,,,,8,58132647,Audio/58132647.mp3,WAIS,0,1,1,1,1,,,,,,,,,,,,,,,,,,,,,,,,,,,,,,,,,,,,,,,,,,,,,,,,,,,,,,,,,,,,,,,,,,,,,,,,,,,,,,,,,,,,,,,,,,,,,,,,,,,,,,,,,,,,,,,,,,,,,,,
,8902,CAB,30/06/2004,001,2023-12-02_10h14.47.606,OS3_Mult_verification,2022.2.4,Win32,60.86056844,,,,,,,,,,,,,,,,,,,,,,,,,,,,,,,,,,,,,,,,,,,,,,,,,,,,,,,,0,6,6,6,1,digitSpan_stim/eightWAIS.xlsx,,,,,,,,,,,,,,,,,,,,,,,,,,,,,,,,,,,,,,,,,,,,,,,,,,,,,,,,,,,,,,,,,,,,,,,,,,,,,,,,,,,,,,,,,,,,,,,,,,,,,,,,,,,,,,,,,
,8902,CAB,30/06/2004,001,2023-12-02_10h14.47.606,OS3_Mult_verification,2022.2.4,Win32,60.86056844,,,,,,,,,,,,,,,,,,,,,,,,,,,,,,,,,,,,,275836294,12.5533,0,"[""2"",""7"",""5"",""8"",""3"",""6"",""2"",""9"",""4"",""return""]","[1.3075999999045962,2.219500000000039,3.2034999999999627,4.9024000000953265,8.118099999904643,8.73840000009534,10.201099999904613,10.760400000095387,11.995400000095401,12.503599999904623]",,,,,,9,275863194,Audio/275863194.mp3,WAIS,0,0,0,0,1,,,,,,,,,,,,,,,,,,,,,,,,,,,,,,,,,,,,,,,,,,,,,,,,,,,,,,,,,,,,,,,,,,,,,,,,,,,,,,,,,,,,,,,,,,,,,,,,,,,,,,,,,,,,,,,,,,,,,,,
,8902,CAB,30/06/2004,001,2023-12-02_10h14.47.606,OS3_Mult_verification,2022.2.4,Win32,60.86056844,,,,,,,,,,,,,,,,,,,,,,,,,,,,,,,,,,,,,713942668,10.853,0,"[""7"",""1"",""3"",""9"",""4"",""2"",""6"",""6"",""8"",""return""]","[0.8493000001907376,1.2670000000000528,1.6968000001908194,3.5548000001907667,4.282900000095424,6.3218000001908194,7.490800000190802,9.878100000143036,10.2839000000954,10.817100000143114]",,,,,,9,713942568,Audio/713942568.mp3,WAIS,0,1,1,1,1,,,,,,,,,,,,,,,,,,,,,,,,,,,,,,,,,,,,,,,,,,,,,,,,,,,,,,,,,,,,,,,,,,,,,,,,,,,,,,,,,,,,,,,,,,,,,,,,,,,,,,,,,,,,,,,,,,,,,,,
,8902,CAB,30/06/2004,001,2023-12-02_10h14.47.606,OS3_Mult_verification,2022.2.4,Win32,60.86056844,,,,,,,,,,,,,,,,,,,,,,,,,,,,,,,,,,,,,,,,,,,,,,,WAIS,,,,,,,,,,,,,,,0,1,1,1,1,digitSpan_stim/WAIS.xlsx,,,,,,,,,,,,,,,,,,,,,,,,,,,,,,,,,,,,,,,,,,,,,,,,,,,,,,,,,,,,,,,,,,,,,,,,,,,,,,,,,,,,,,,,,,,,,,,,,,,,,,,,,,,
,8902,CAB,30/06/2004,001,2023-12-02_10h14.47.606,OS3_Mult_verification,2022.2.4,Win32,60.86056844,,,,,,,,,,,,,,,,,,,,,,,,,,,,,,,,,,,,,,,,,,,,,,,,,,,,,,,,,,,,,,,,,,,,0,0,0,0,1,,,,,,,,,,,,,,,,,,,,,,,,,,,,,,,,,,,,,,,,,,,,,,,,,,,,,,,,,,,,,,,,,,,,,,,,,,,,,,,,,,,,,,,,,,,,,,,,,,,,,,
,8902,CAB,30/06/2004,001,2023-12-02_10h14.47.606,OS3_Mult_verification,2022.2.4,Win32,60.86056844,,,,,,,,,,,,,,,,,,,,,,,,,,,,,,,,,,,,,,,,,,,,,,,,,,,,,,,,,,,,,,,,,,,,,,,,,0,0,0,0,1,0,0,1,,,,,,,,,,,,,,,,,,,,,,,,,,,,,,,,,,,,,,,,,,,,,,,,,,,,,,,,,,,,,,,,,,,,,,,,,,,,,,,,,,,,,,,,,,,,,,
,8902,CAB,30/06/2004,001,2023-12-02_10h14.47.606,OS3_Mult_verification,2022.2.4,Win32,60.86056844,,,,,,,,,,,,,,,,space,1.501,,,,,,,,,,,,,,,,,,,,,,,,,,,,,,,,,,,,,,,,,,,,,,,,,,,,,,,,,,,,,,,,right,1,0.5261,0,0,0,0,1,practice,1,2,1 | 2,1,0.05,0.065,congruent,right,,,,,,,,,,,,,,,,,,,,,,,,,,,,,,,,,,,,,,,,,,,,,,,,,,,,,,,,,,,,,,,,,,,,,,,,,,,,,
,8902,CAB,30/06/2004,001,2023-12-02_10h14.47.606,OS3_Mult_verification,2022.2.4,Win32,60.86056844,,,,,,,,,,,,,,,,,,,,,,,,,,,,,,,,,,,,,,,,,,,,,,,,,,,,,,,,,,,,,,,,,,,,,,,,,,,,,,,,,left,0,0.4509,0,1,1,1,1,practice,7,8,7 | 8,1,0.065,0.05,incongruent,right,,,,,,,,,,,,,,,,,,,,,,,,,,,,,,,,,,,,,,,,,,,,,,,,,,,,,,,,,,,,,,,,,,,,,,,,,,,,,
,8902,CAB,30/06/2004,001,2023-12-02_10h14.47.606,OS3_Mult_verification,2022.2.4,Win32,60.86056844,,,,,,,,,,,,,,,,,,,,,,,,,,,,,,,,,,,,,,,,,,,,,,,,,,,,,,,,,,,,,,,,,,,,,,,,,,,,,,,,,right,1,0.761,0,2,2,2,1,practice,4,9,4 | 9,5,0.06,0.06,neutral,right,,,,,,,,,,,,,,,,,,,,,,,,,,,,,,,,,,,,,,,,,,,,,,,,,,,,,,,,,,,,,,,,,,,,,,,,,,,,,
,8902,CAB,30/06/2004,001,2023-12-02_10h14.47.606,OS3_Mult_verification,2022.2.4,Win32,60.86056844,,,,,,,,,,,,,,,,,,,,,,,,,,,,,,,,,,,,,,,,,,,,,,,,,,,,,,,,,,,,,,,,,,,,,,,,,,,,,,,,,right,1,1.0865,,,,,,magnitude,3,4,3 | 4,1,0.06,0.06,neutral,right,0,0,0,49,1,,,,,,,,,,,,,,,,,,,,,,,,,,,,,,,,,,,,,,,,,,,,,,,,,,,,,,,,,,,,,,,,,,,,,,,,
,8902,CAB,30/06/2004,001,2023-12-02_10h14.47.606,OS3_Mult_verification,2022.2.4,Win32,60.86056844,,,,,,,,,,,,,,,,,,,,,,,,,,,,,,,,,,,,,,,,,,,,,,,,,,,,,,,,,,,,,,,,,,,,,,,,,,,,,,,,,left,1,0.5916,,,,,,magnitude,8,3,8 | 3,5,0.065,0.05,congruent,left,0,1,1,22,1,,,,,,,,,,,,,,,,,,,,,,,,,,,,,,,,,,,,,,,,,,,,,,,,,,,,,,,,,,,,,,,,,,,,,,,,
,8902,CAB,30/06/2004,001,2023-12-02_10h14.47.606,OS3_Mult_verification,2022.2.4,Win32,60.86056844,,,,,,,,,,,,,,,,,,,,,,,,,,,,,,,,,,,,,,,,,,,,,,,,,,,,,,,,,,,,,,,,,,,,,,,,,,,,,,,,,left,1,0.8093,,,,,,magnitude,6,1,6 | 1,5,0.06,0.06,neutral,left,0,2,2,68,1,,,,,,,,,,,,,,,,,,,,,,,,,,,,,,,,,,,,,,,,,,,,,,,,,,,,,,,,,,,,,,,,,,,,,,,,
,8902,CAB,30/06/2004,001,2023-12-02_10h14.47.606,OS3_Mult_verification,2022.2.4,Win32,60.86056844,,,,,,,,,,,,,,,,,,,,,,,,,,,,,,,,,,,,,,,,,,,,,,,,,,,,,,,,,,,,,,,,,,,,,,,,,,,,,,,,,left,1,0.5768,,,,,,magnitude,3,1,3 | 1,2,0.06,0.06,neutral,left,0,3,3,60,1,,,,,,,,,,,,,,,,,,,,,,,,,,,,,,,,,,,,,,,,,,,,,,,,,,,,,,,,,,,,,,,,,,,,,,,,
,8902,CAB,30/06/2004,001,2023-12-02_10h14.47.606,OS3_Mult_verification,2022.2.4,Win32,60.86056844,,,,,,,,,,,,,,,,,,,,,,,,,,,,,,,,,,,,,,,,,,,,,,,,,,,,,,,,,,,,,,,,,,,,,,,,,,,,,,,,,right,1,0.6594,,,,,,magnitude,2,7,2 | 7,5,0.06,0.06,neutral,right,0,4,4,65,1,,,,,,,,,,,,,,,,,,,,,,,,,,,,,,,,,,,,,,,,,,,,,,,,,,,,,,,,,,,,,,,,,,,,,,,,
,8902,CAB,30/06/2004,001,2023-12-02_10h14.47.606,OS3_Mult_verification,2022.2.4,Win32,60.86056844,,,,,,,,,,,,,,,,,,,,,,,,,,,,,,,,,,,,,,,,,,,,,,,,,,,,,,,,,,,,,,,,,,,,,,,,,,,,,,,,,left,1,0.5917,,,,,,magnitude,4,3,4 | 3,1,0.06,0.06,neutral,left,0,5,5,53,1,,,,,,,,,,,,,,,,,,,,,,,,,,,,,,,,,,,,,,,,,,,,,,,,,,,,,,,,,,,,,,,,,,,,,,,,
,8902,CAB,30/06/2004,001,2023-12-02_10h14.47.606,OS3_Mult_verification,2022.2.4,Win32,60.86056844,,,,,,,,,,,,,,,,,,,,,,,,,,,,,,,,,,,,,,,,,,,,,,,,,,,,,,,,,,,,,,,,,,,,,,,,,,,,,,,,,left,1,0.6035,,,,,,magnitude,2,1,2 | 1,1,0.065,0.05,congruent,left,0,6,6,4,1,,,,,,,,,,,,,,,,,,,,,,,,,,,,,,,,,,,,,,,,,,,,,,,,,,,,,,,,,,,,,,,,,,,,,,,,
,8902,CAB,30/06/2004,001,2023-12-02_10h14.47.606,OS3_Mult_verification,2022.2.4,Win32,60.86056844,,,,,,,,,,,,,,,,,,,,,,,,,,,,,,,,,,,,,,,,,,,,,,,,,,,,,,,,,,,,,,,,,,,,,,,,,,,,,,,,,left,1,1.2445,,,,,,magnitude,9,4,9 | 4,5,0.06,0.06,neutral,left,0,7,7,71,1,,,,,,,,,,,,,,,,,,,,,,,,,,,,,,,,,,,,,,,,,,,,,,,,,,,,,,,,,,,,,,,,,,,,,,,,
,8902,CAB,30/06/2004,001,2023-12-02_10h14.47.606,OS3_Mult_verification,2022.2.4,Win32,60.86056844,,,,,,,,,,,,,,,,,,,,,,,,,,,,,,,,,,,,,,,,,,,,,,,,,,,,,,,,,,,,,,,,,,,,,,,,,,,,,,,,,right,0,0.7512,,,,,,magnitude,3,1,3 | 1,2,0.05,0.065,incongruent,left,0,8,8,36,1,,,,,,,,,,,,,,,,,,,,,,,,,,,,,,,,,,,,,,,,,,,,,,,,,,,,,,,,,,,,,,,,,,,,,,,,
,8902,CAB,30/06/2004,001,2023-12-02_10h14.47.606,OS3_Mult_verification,2022.2.4,Win32,60.86056844,,,,,,,,,,,,,,,,,,,,,,,,,,,,,,,,,,,,,,,,,,,,,,,,,,,,,,,,,,,,,,,,,,,,,,,,,,,,,,,,,right,0,1.2678,,,,,,magnitude,4,2,4 | 2,2,0.06,0.06,neutral,left,0,9,9,61,1,,,,,,,,,,,,,,,,,,,,,,,,,,,,,,,,,,,,,,,,,,,,,,,,,,,,,,,,,,,,,,,,,,,,,,,,
,8902,CAB,30/06/2004,001,2023-12-02_10h14.47.606,OS3_Mult_verification,2022.2.4,Win32,60.86056844,,,,,,,,,,,,,,,,,,,,,,,,,,,,,,,,,,,,,,,,,,,,,,,,,,,,,,,,,,,,,,,,,,,,,,,,,,,,,,,,,left,1,0.5146,,,,,,magnitude,8,6,8 | 6,2,0.065,0.05,congruent,left,0,10,10,14,1,,,,,,,,,,,,,,,,,,,,,,,,,,,,,,,,,,,,,,,,,,,,,,,,,,,,,,,,,,,,,,,,,,,,,,,,
,8902,CAB,30/06/2004,001,2023-12-02_10h14.47.606,OS3_Mult_verification,2022.2.4,Win32,60.86056844,,,,,,,,,,,,,,,,,,,,,,,,,,,,,,,,,,,,,,,,,,,,,,,,,,,,,,,,,,,,,,,,,,,,,,,,,,,,,,,,,right,1,0.481,,,,,,magnitude,1,3,1 | 3,2,0.05,0.065,congruent,right,0,11,11,8,1,,,,,,,,,,,,,,,,,,,,,,,,,,,,,,,,,,,,,,,,,,,,,,,,,,,,,,,,,,,,,,,,,,,,,,,,
,8902,CAB,30/06/2004,001,2023-12-02_10h14.47.606,OS3_Mult_verification,2022.2.4,Win32,60.86056844,,,,,,,,,,,,,,,,,,,,,,,,,,,,,,,,,,,,,,,,,,,,,,,,,,,,,,,,,,,,,,,,,,,,,,,,,,,,,,,,,right,0,0.6296,,,,,,magnitude,2,1,2 | 1,1,0.05,0.065,incongruent,left,0,12,12,28,1,,,,,,,,,,,,,,,,,,,,,,,,,,,,,,,,,,,,,,,,,,,,,,,,,,,,,,,,,,,,,,,,,,,,,,,,
,8902,CAB,30/06/2004,001,2023-12-02_10h14.47.606,OS3_Mult_verification,2022.2.4,Win32,60.86056844,,,,,,,,,,,,,,,,,,,,,,,,,,,,,,,,,,,,,,,,,,,,,,,,,,,,,,,,,,,,,,,,,,,,,,,,,,,,,,,,,left,0,0.5785,,,,,,magnitude,6,8,6 | 8,2,0.06,0.06,neutral,right,0,13,13,58,1,,,,,,,,,,,,,,,,,,,,,,,,,,,,,,,,,,,,,,,,,,,,,,,,,,,,,,,,,,,,,,,,,,,,,,,,
,8902,CAB,30/06/2004,001,2023-12-02_10h14.47.606,OS3_Mult_verification,2022.2.4,Win32,60.86056844,,,,,,,,,,,,,,,,,,,,,,,,,,,,,,,,,,,,,,,,,,,,,,,,,,,,,,,,,,,,,,,,,,,,,,,,,,,,,,,,,left,1,0.5323,,,,,,magnitude,9,7,9 | 7,2,0.065,0.05,congruent,left,0,14,14,15,1,,,,,,,,,,,,,,,,,,,,,,,,,,,,,,,,,,,,,,,,,,,,,,,,,,,,,,,,,,,,,,,,,,,,,,,,
,8902,CAB,30/06/2004,001,2023-12-02_10h14.47.606,OS3_Mult_verification,2022.2.4,Win32,60.86056844,,,,,,,,,,,,,,,,,,,,,,,,,,,,,,,,,,,,,,,,,,,,,,,,,,,,,,,,,,,,,,,,,,,,,,,,,,,,,,,,,left,1,0.5439,,,,,,magnitude,2,1,2 | 1,1,0.06,0.06,neutral,left,0,15,15,52,1,,,,,,,,,,,,,,,,,,,,,,,,,,,,,,,,,,,,,,,,,,,,,,,,,,,,,,,,,,,,,,,,,,,,,,,,
,8902,CAB,30/06/2004,001,2023-12-02_10h14.47.606,OS3_Mult_verification,2022.2.4,Win32,60.86056844,,,,,,,,,,,,,,,,,,,,,,,,,,,,,,,,,,,,,,,,,,,,,,,,,,,,,,,,,,,,,,,,,,,,,,,,,,,,,,,,,left,1,0.5586,,,,,,magnitude,4,2,4 | 2,2,0.065,0.05,congruent,left,0,16,16,13,1,,,,,,,,,,,,,,,,,,,,,,,,,,,,,,,,,,,,,,,,,,,,,,,,,,,,,,,,,,,,,,,,,,,,,,,,
,8902,CAB,30/06/2004,001,2023-12-02_10h14.47.606,OS3_Mult_verification,2022.2.4,Win32,60.86056844,,,,,,,,,,,,,,,,,,,,,,,,,,,,,,,,,,,,,,,,,,,,,,,,,,,,,,,,,,,,,,,,,,,,,,,,,,,,,,,,,right,1,0.4791,,,,,,magnitude,6,7,6 | 7,1,0.05,0.065,congruent,right,0,17,17,2,1,,,,,,,,,,,,,,,,,,,,,,,,,,,,,,,,,,,,,,,,,,,,,,,,,,,,,,,,,,,,,,,,,,,,,,,,
,8902,CAB,30/06/2004,001,2023-12-02_10h14.47.606,OS3_Mult_verification,2022.2.4,Win32,60.86056844,,,,,,,,,,,,,,,,,,,,,,,,,,,,,,,,,,,,,,,,,,,,,,,,,,,,,,,,,,,,,,,,,,,,,,,,,,,,,,,,,left,0,0.5539,,,,,,magnitude,1,6,1 | 6,5,0.065,0.05,incongruent,right,0,18,18,40,1,,,,,,,,,,,,,,,,,,,,,,,,,,,,,,,,,,,,,,,,,,,,,,,,,,,,,,,,,,,,,,,,,,,,,,,,
,8902,CAB,30/06/2004,001,2023-12-02_10h14.47.606,OS3_Mult_verification,2022.2.4,Win32,60.86056844,,,,,,,,,,,,,,,,,,,,,,,,,,,,,,,,,,,,,,,,,,,,,,,,,,,,,,,,,,,,,,,,,,,,,,,,,,,,,,,,,right,1,0.5911,,,,,,magnitude,3,4,3 | 4,1,0.05,0.065,congruent,right,0,19,19,1,1,,,,,,,,,,,,,,,,,,,,,,,,,,,,,,,,,,,,,,,,,,,,,,,,,,,,,,,,,,,,,,,,,,,,,,,,
,8902,CAB,30/06/2004,001,2023-12-02_10h14.47.606,OS3_Mult_verification,2022.2.4,Win32,60.86056844,,,,,,,,,,,,,,,,,,,,,,,,,,,,,,,,,,,,,,,,,,,,,,,,,,,,,,,,,,,,,,,,,,,,,,,,,,,,,,,,,left,1,0.5747,,,,,,magnitude,7,2,7 | 2,5,0.065,0.05,congruent,left,0,20,20,21,1,,,,,,,,,,,,,,,,,,,,,,,,,,,,,,,,,,,,,,,,,,,,,,,,,,,,,,,,,,,,,,,,,,,,,,,,
,8902,CAB,30/06/2004,001,2023-12-02_10h14.47.606,OS3_Mult_verification,2022.2.4,Win32,60.86056844,,,,,,,,,,,,,,,,,,,,,,,,,,,,,,,,,,,,,,,,,,,,,,,,,,,,,,,,,,,,,,,,,,,,,,,,,,,,,,,,,right,0,0.7083,,,,,,magnitude,8,3,8 | 3,5,0.05,0.065,incongruent,left,0,21,21,46,1,,,,,,,,,,,,,,,,,,,,,,,,,,,,,,,,,,,,,,,,,,,,,,,,,,,,,,,,,,,,,,,,,,,,,,,,
,8902,CAB,30/06/2004,001,2023-12-02_10h14.47.606,OS3_Mult_verification,2022.2.4,Win32,60.86056844,,,,,,,,,,,,,,,,,,,,,,,,,,,,,,,,,,,,,,,,,,,,,,,,,,,,,,,,,,,,,,,,,,,,,,,,,,,,,,,,,left,0,0.6091,,,,,,magnitude,6,7,6 | 7,1,0.065,0.05,incongruent,right,0,22,22,26,1,,,,,,,,,,,,,,,,,,,,,,,,,,,,,,,,,,,,,,,,,,,,,,,,,,,,,,,,,,,,,,,,,,,,,,,,
,8902,CAB,30/06/2004,001,2023-12-02_10h14.47.606,OS3_Mult_verification,2022.2.4,Win32,60.86056844,,,,,,,,,,,,,,,,,,,,,,,,,,,,,,,,,,,,,,,,,,,,,,,,,,,,,,,,,,,,,,,,,,,,,,,,,,,,,,,,,right,1,1.0874,,,,,,magnitude,4,9,4 | 9,5,0.06,0.06,neutral,right,0,23,23,67,1,,,,,,,,,,,,,,,,,,,,,,,,,,,,,,,,,,,,,,,,,,,,,,,,,,,,,,,,,,,,,,,,,,,,,,,,
,8902,CAB,30/06/2004,001,2023-12-02_10h14.47.606,OS3_Mult_verification,2022.2.4,Win32,60.86056844,,,,,,,,,,,,,,,,,,,,,,,,,,,,,,,,,,,,,,,,,,,,,,,,,,,,,,,,,,,,,,,,,,,,,,,,,,,,,,,,,right,1,1.058,,,,,,magnitude,1,2,1 | 2,1,0.06,0.06,neutral,right,0,24,24,48,1,,,,,,,,,,,,,,,,,,,,,,,,,,,,,,,,,,,,,,,,,,,,,,,,,,,,,,,,,,,,,,,,,,,,,,,,
,8902,CAB,30/06/2004,001,2023-12-02_10h14.47.606,OS3_Mult_verification,2022.2.4,Win32,60.86056844,,,,,,,,,,,,,,,,,,,,,,,,,,,,,,,,,,,,,,,,,,,,,,,,,,,,,,,,,,,,,,,,,,,,,,,,,,,,,,,,,left,1,0.7418,,,,,,magnitude,4,3,4 | 3,1,0.065,0.05,congruent,left,0,25,25,5,1,,,,,,,,,,,,,,,,,,,,,,,,,,,,,,,,,,,,,,,,,,,,,,,,,,,,,,,,,,,,,,,,,,,,,,,,
,8902,CAB,30/06/2004,001,2023-12-02_10h14.47.606,OS3_Mult_verification,2022.2.4,Win32,60.86056844,,,,,,,,,,,,,,,,,,,,,,,,,,,,,,,,,,,,,,,,,,,,,,,,,,,,,,,,,,,,,,,,,,,,,,,,,,,,,,,,,left,1,0.5795,,,,,,magnitude,7,6,7 | 6,1,0.065,0.05,congruent,left,0,26,26,6,1,,,,,,,,,,,,,,,,,,,,,,,,,,,,,,,,,,,,,,,,,,,,,,,,,,,,,,,,,,,,,,,,,,,,,,,,
,8902,CAB,30/06/2004,001,2023-12-02_10h14.47.606,OS3_Mult_verification,2022.2.4,Win32,60.86056844,,,,,,,,,,,,,,,,,,,,,,,,,,,,,,,,,,,,,,,,,,,,,,,,,,,,,,,,,,,,,,,,,,,,,,,,,,,,,,,,,right,1,0.577,,,,,,magnitude,3,8,3 | 8,5,0.06,0.06,neutral,right,0,27,27,66,1,,,,,,,,,,,,,,,,,,,,,,,,,,,,,,,,,,,,,,,,,,,,,,,,,,,,,,,,,,,,,,,,,,,,,,,,
,8902,CAB,30/06/2004,001,2023-12-02_10h14.47.606,OS3_Mult_verification,2022.2.4,Win32,60.86056844,,,,,,,,,,,,,,,,,,,,,,,,,,,,,,,,,,,,,,,,,,,,,,,,,,,,,,,,,,,,,,,,,,,,,,,,,,,,,,,,,right,0,0.6011,,,,,,magnitude,6,1,6 | 1,5,0.05,0.065,incongruent,left,0,28,28,44,1,,,,,,,,,,,,,,,,,,,,,,,,,,,,,,,,,,,,,,,,,,,,,,,,,,,,,,,,,,,,,,,,,,,,,,,,
,8902,CAB,30/06/2004,001,2023-12-02_10h14.47.606,OS3_Mult_verification,2022.2.4,Win32,60.86056844,,,,,,,,,,,,,,,,,,,,,,,,,,,,,,,,,,,,,,,,,,,,,,,,,,,,,,,,,,,,,,,,,,,,,,,,,,,,,,,,,left,1,0.5191,,,,,,magnitude,8,3,8 | 3,5,0.06,0.06,neutral,left,0,29,29,70,1,,,,,,,,,,,,,,,,,,,,,,,,,,,,,,,,,,,,,,,,,,,,,,,,,,,,,,,,,,,,,,,,,,,,,,,,
,8902,CAB,30/06/2004,001,2023-12-02_10h14.47.606,OS3_Mult_verification,2022.2.4,Win32,60.86056844,,,,,,,,,,,,,,,,,,,,,,,,,,,,,,,,,,,,,,,,,,,,,,,,,,,,,,,,,,,,,,,,,,,,,,,,,,,,,,,,,right,1,0.5346,,,,,,magnitude,6,8,6 | 8,2,0.05,0.065,congruent,right,0,30,30,10,1,,,,,,,,,,,,,,,,,,,,,,,,,,,,,,,,,,,,,,,,,,,,,,,,,,,,,,,,,,,,,,,,,,,,,,,,
,8902,CAB,30/06/2004,001,2023-12-02_10h14.47.606,OS3_Mult_verification,2022.2.4,Win32,60.86056844,,,,,,,,,,,,,,,,,,,,,,,,,,,,,,,,,,,,,,,,,,,,,,,,,,,,,,,,,,,,,,,,,,,,,,,,,,,,,,,,,left,0,0.5408,,,,,,magnitude,3,4,3 | 4,1,0.065,0.05,incongruent,right,0,31,31,25,1,,,,,,,,,,,,,,,,,,,,,,,,,,,,,,,,,,,,,,,,,,,,,,,,,,,,,,,,,,,,,,,,,,,,,,,,
,8902,CAB,30/06/2004,001,2023-12-02_10h14.47.606,OS3_Mult_verification,2022.2.4,Win32,60.86056844,,,,,,,,,,,,,,,,,,,,,,,,,,,,,,,,,,,,,,,,,,,,,,,,,,,,,,,,,,,,,,,,,,,,,,,,,,,,,,,,,right,1,0.4759,,,,,,magnitude,2,4,2 | 4,2,0.06,0.06,neutral,right,0,32,32,57,1,,,,,,,,,,,,,,,,,,,,,,,,,,,,,,,,,,,,,,,,,,,,,,,,,,,,,,,,,,,,,,,,,,,,,,,,
,8902,CAB,30/06/2004,001,2023-12-02_10h14.47.606,OS3_Mult_verification,2022.2.4,Win32,60.86056844,,,,,,,,,,,,,,,,,,,,,,,,,,,,,,,,,,,,,,,,,,,,,,,,,,,,,,,,,,,,,,,,,,,,,,,,,,,,,,,,,left,0,0.4969,,,,,,magnitude,2,4,2 | 4,2,0.065,0.05,incongruent,right,0,33,33,33,1,,,,,,,,,,,,,,,,,,,,,,,,,,,,,,,,,,,,,,,,,,,,,,,,,,,,,,,,,,,,,,,,,,,,,,,,
,8902,CAB,30/06/2004,001,2023-12-02_10h14.47.606,OS3_Mult_verification,2022.2.4,Win32,60.86056844,,,,,,,,,,,,,,,,,,,,,,,,,,,,,,,,,,,,,,,,,,,,,,,,,,,,,,,,,,,,,,,,,,,,,,,,,,,,,,,,,right,1,0.5112,,,,,,magnitude,1,6,1 | 6,5,0.05,0.065,congruent,right,0,34,34,16,1,,,,,,,,,,,,,,,,,,,,,,,,,,,,,,,,,,,,,,,,,,,,,,,,,,,,,,,,,,,,,,,,,,,,,,,,
,8902,CAB,30/06/2004,001,2023-12-02_10h14.47.606,OS3_Mult_verification,2022.2.4,Win32,60.86056844,,,,,,,,,,,,,,,,,,,,,,,,,,,,,,,,,,,,,,,,,,,,,,,,,,,,,,,,,,,,,,,,,,,,,,,,,,,,,,,,,right,1,0.4639,,,,,,magnitude,2,7,2 | 7,5,0.05,0.065,congruent,right,0,35,35,17,1,,,,,,,,,,,,,,,,,,,,,,,,,,,,,,,,,,,,,,,,,,,,,,,,,,,,,,,,,,,,,,,,,,,,,,,,
,8902,CAB,30/06/2004,001,2023-12-02_10h14.47.606,OS3_Mult_verification,2022.2.4,Win32,60.86056844,,,,,,,,,,,,,,,,,,,,,,,,,,,,,,,,,,,,,,,,,,,,,,,,,,,,,,,,,,,,,,,,,,,,,,,,,,,,,,,,,left,1,0.5559,,,,,,magnitude,9,7,9 | 7,2,0.06,0.06,neutral,left,0,36,36,63,1,,,,,,,,,,,,,,,,,,,,,,,,,,,,,,,,,,,,,,,,,,,,,,,,,,,,,,,,,,,,,,,,,,,,,,,,
,8902,CAB,30/06/2004,001,2023-12-02_10h14.47.606,OS3_Mult_verification,2022.2.4,Win32,60.86056844,,,,,,,,,,,,,,,,,,,,,,,,,,,,,,,,,,,,,,,,,,,,,,,,,,,,,,,,,,,,,,,,,,,,,,,,,,,,,,,,,left,1,0.4762,,,,,,magnitude,9,4,9 | 4,5,0.065,0.05,congruent,left,0,37,37,23,1,,,,,,,,,,,,,,,,,,,,,,,,,,,,,,,,,,,,,,,,,,,,,,,,,,,,,,,,,,,,,,,,,,,,,,,,
,8902,CAB,30/06/2004,001,2023-12-02_10h14.47.606,OS3_Mult_verification,2022.2.4,Win32,60.86056844,,,,,,,,,,,,,,,,,,,,,,,,,,,,,,,,,,,,,,,,,,,,,,,,,,,,,,,,,,,,,,,,,,,,,,,,,,,,,,,,,right,0,0.5875,,,,,,magnitude,8,6,8 | 6,2,0.05,0.065,incongruent,left,0,38,38,38,1,,,,,,,,,,,,,,,,,,,,,,,,,,,,,,,,,,,,,,,,,,,,,,,,,,,,,,,,,,,,,,,,,,,,,,,,
,8902,CAB,30/06/2004,001,2023-12-02_10h14.47.606,OS3_Mult_verification,2022.2.4,Win32,60.86056844,,,,,,,,,,,,,,,,,,,,,,,,,,,,,,,,,,,,,,,,,,,,,,,,,,,,,,,,,,,,,,,,,,,,,,,,,,,,,,,,,left,1,0.5265,,,,,,magnitude,9,8,9 | 8,1,0.065,0.05,congruent,left,0,39,39,7,1,,,,,,,,,,,,,,,,,,,,,,,,,,,,,,,,,,,,,,,,,,,,,,,,,,,,,,,,,,,,,,,,,,,,,,,,
,8902,CAB,30/06/2004,001,2023-12-02_10h14.47.606,OS3_Mult_verification,2022.2.4,Win32,60.86056844,,,,,,,,,,,,,,,,,,,,,,,,,,,,,,,,,,,,,,,,,,,,,,,,,,,,,,,,,,,,,,,,,,,,,,,,,,,,,,,,,left,0,0.8032,,,,,,magnitude,3,8,3 | 8,5,0.065,0.05,incongruent,right,0,40,40,42,1,,,,,,,,,,,,,,,,,,,,,,,,,,,,,,,,,,,,,,,,,,,,,,,,,,,,,,,,,,,,,,,,,,,,,,,,
,8902,CAB,30/06/2004,001,2023-12-02_10h14.47.606,OS3_Mult_verification,2022.2.4,Win32,60.86056844,,,,,,,,,,,,,,,,,,,,,,,,,,,,,,,,,,,,,,,,,,,,,,,,,,,,,,,,,,,,,,,,,,,,,,,,,,,,,,,,,right,0,0.6033,,,,,,magnitude,7,2,7 | 2,5,0.05,0.065,incongruent,left,0,41,41,45,1,,,,,,,,,,,,,,,,,,,,,,,,,,,,,,,,,,,,,,,,,,,,,,,,,,,,,,,,,,,,,,,,,,,,,,,,
,8902,CAB,30/06/2004,001,2023-12-02_10h14.47.606,OS3_Mult_verification,2022.2.4,Win32,60.86056844,,,,,,,,,,,,,,,,,,,,,,,,,,,,,,,,,,,,,,,,,,,,,,,,,,,,,,,,,,,,,,,,,,,,,,,,,,,,,,,,,left,1,0.5585,,,,,,magnitude,6,1,6 | 1,5,0.065,0.05,congruent,left,0,42,42,20,1,,,,,,,,,,,,,,,,,,,,,,,,,,,,,,,,,,,,,,,,,,,,,,,,,,,,,,,,,,,,,,,,,,,,,,,,
,8902,CAB,30/06/2004,001,2023-12-02_10h14.47.606,OS3_Mult_verification,2022.2.4,Win32,60.86056844,,,,,,,,,,,,,,,,,,,,,,,,,,,,,,,,,,,,,,,,,,,,,,,,,,,,,,,,,,,,,,,,,,,,,,,,,,,,,,,,,right,1,0.6373,,,,,,magnitude,1,3,1 | 3,2,0.06,0.06,neutral,right,0,43,43,56,1,,,,,,,,,,,,,,,,,,,,,,,,,,,,,,,,,,,,,,,,,,,,,,,,,,,,,,,,,,,,,,,,,,,,,,,,
,8902,CAB,30/06/2004,001,2023-12-02_10h14.47.606,OS3_Mult_verification,2022.2.4,Win32,60.86056844,,,,,,,,,,,,,,,,,,,,,,,,,,,,,,,,,,,,,,,,,,,,,,,,,,,,,,,,,,,,,,,,,,,,,,,,,,,,,,,,,left,0,0.713,,,,,,magnitude,1,3,1 | 3,2,0.065,0.05,incongruent,right,0,44,44,32,1,,,,,,,,,,,,,,,,,,,,,,,,,,,,,,,,,,,,,,,,,,,,,,,,,,,,,,,,,,,,,,,,,,,,,,,,
,8902,CAB,30/06/2004,001,2023-12-02_10h14.47.606,OS3_Mult_verification,2022.2.4,Win32,60.86056844,,,,,,,,,,,,,,,,,,,,,,,,,,,,,,,,,,,,,,,,,,,,,,,,,,,,,,,,,,,,,,,,,,,,,,,,,,,,,,,,,left,1,0.5438,,,,,,magnitude,3,1,3 | 1,2,0.065,0.05,congruent,left,0,45,45,12,1,,,,,,,,,,,,,,,,,,,,,,,,,,,,,,,,,,,,,,,,,,,,,,,,,,,,,,,,,,,,,,,,,,,,,,,,
,8902,CAB,30/06/2004,001,2023-12-02_10h14.47.606,OS3_Mult_verification,2022.2.4,Win32,60.86056844,,,,,,,,,,,,,,,,,,,,,,,,,,,,,,,,,,,,,,,,,,,,,,,,,,,,,,,,,,,,,,,,,,,,,,,,,,,,,,,,,left,0,0.5523,,,,,,magnitude,2,7,2 | 7,5,0.065,0.05,incongruent,right,0,46,46,41,1,,,,,,,,,,,,,,,,,,,,,,,,,,,,,,,,,,,,,,,,,,,,,,,,,,,,,,,,,,,,,,,,,,,,,,,,
,8902,CAB,30/06/2004,001,2023-12-02_10h14.47.606,OS3_Mult_verification,2022.2.4,Win32,60.86056844,,,,,,,,,,,,,,,,,,,,,,,,,,,,,,,,,,,,,,,,,,,,,,,,,,,,,,,,,,,,,,,,,,,,,,,,,,,,,,,,,left,1,1.1641,,,,,,magnitude,9,8,9 | 8,1,0.06,0.06,neutral,left,0,47,47,55,1,,,,,,,,,,,,,,,,,,,,,,,,,,,,,,,,,,,,,,,,,,,,,,,,,,,,,,,,,,,,,,,,,,,,,,,,
,8902,CAB,30/06/2004,001,2023-12-02_10h14.47.606,OS3_Mult_verification,2022.2.4,Win32,60.86056844,,,,,,,,,,,,,,,,,,,,,,,,,,,,,,,,,,,,,,,,,,,,,,,,,,,,,,,,,,,,,,,,,,,,,,,,,,,,,,,,,left,1,1.3044,,,,,,magnitude,7,6,7 | 6,1,0.06,0.06,neutral,left,0,48,48,54,1,,,,,,,,,,,,,,,,,,,,,,,,,,,,,,,,,,,,,,,,,,,,,,,,,,,,,,,,,,,,,,,,,,,,,,,,
,8902,CAB,30/06/2004,001,2023-12-02_10h14.47.606,OS3_Mult_verification,2022.2.4,Win32,60.86056844,,,,,,,,,,,,,,,,,,,,,,,,,,,,,,,,,,,,,,,,,,,,,,,,,,,,,,,,,,,,,,,,,,,,,,,,,,,,,,,,,left,0,0.6489,,,,,,magnitude,6,7,6 | 7,1,0.06,0.06,neutral,right,0,49,49,50,1,,,,,,,,,,,,,,,,,,,,,,,,,,,,,,,,,,,,,,,,,,,,,,,,,,,,,,,,,,,,,,,,,,,,,,,,
,8902,CAB,30/06/2004,001,2023-12-02_10h14.47.606,OS3_Mult_verification,2022.2.4,Win32,60.86056844,,,,,,,,,,,,,,,,,,,,,,,,,,,,,,,,,,,,,,,,,,,,,,,,,,,,,,,,,,,,,,,,,,,,,,,,,,,,,,,,,right,1,0.5623,,,,,,magnitude,8,9,8 | 9,1,0.05,0.065,congruent,right,0,50,50,3,1,,,,,,,,,,,,,,,,,,,,,,,,,,,,,,,,,,,,,,,,,,,,,,,,,,,,,,,,,,,,,,,,,,,,,,,,
,8902,CAB,30/06/2004,001,2023-12-02_10h14.47.606,OS3_Mult_verification,2022.2.4,Win32,60.86056844,,,,,,,,,,,,,,,,,,,,,,,,,,,,,,,,,,,,,,,,,,,,,,,,,,,,,,,,,,,,,,,,,,,,,,,,,,,,,,,,,right,0,0.6179,,,,,,magnitude,9,8,9 | 8,1,0.05,0.065,incongruent,left,0,51,51,31,1,,,,,,,,,,,,,,,,,,,,,,,,,,,,,,,,,,,,,,,,,,,,,,,,,,,,,,,,,,,,,,,,,,,,,,,,
,8902,CAB,30/06/2004,001,2023-12-02_10h14.47.606,OS3_Mult_verification,2022.2.4,Win32,60.86056844,,,,,,,,,,,,,,,,,,,,,,,,,,,,,,,,,,,,,,,,,,,,,,,,,,,,,,,,,,,,,,,,,,,,,,,,,,,,,,,,,left,0,0.6272,,,,,,magnitude,4,9,4 | 9,5,0.065,0.05,incongruent,right,0,52,52,43,1,,,,,,,,,,,,,,,,,,,,,,,,,,,,,,,,,,,,,,,,,,,,,,,,,,,,,,,,,,,,,,,,,,,,,,,,
,8902,CAB,30/06/2004,001,2023-12-02_10h14.47.606,OS3_Mult_verification,2022.2.4,Win32,60.86056844,,,,,,,,,,,,,,,,,,,,,,,,,,,,,,,,,,,,,,,,,,,,,,,,,,,,,,,,,,,,,,,,,,,,,,,,,,,,,,,,,left,0,0.6265,,,,,,magnitude,1,6,1 | 6,5,0.06,0.06,neutral,right,0,53,53,64,1,,,,,,,,,,,,,,,,,,,,,,,,,,,,,,,,,,,,,,,,,,,,,,,,,,,,,,,,,,,,,,,,,,,,,,,,
,8902,CAB,30/06/2004,001,2023-12-02_10h14.47.606,OS3_Mult_verification,2022.2.4,Win32,60.86056844,,,,,,,,,,,,,,,,,,,,,,,,,,,,,,,,,,,,,,,,,,,,,,,,,,,,,,,,,,,,,,,,,,,,,,,,,,,,,,,,,left,0,0.5362,,,,,,magnitude,7,9,7 | 9,2,0.06,0.06,neutral,right,0,54,54,59,1,,,,,,,,,,,,,,,,,,,,,,,,,,,,,,,,,,,,,,,,,,,,,,,,,,,,,,,,,,,,,,,,,,,,,,,,
,8902,CAB,30/06/2004,001,2023-12-02_10h14.47.606,OS3_Mult_verification,2022.2.4,Win32,60.86056844,,,,,,,,,,,,,,,,,,,,,,,,,,,,,,,,,,,,,,,,,,,,,,,,,,,,,,,,,,,,,,,,,,,,,,,,,,,,,,,,,right,1,0.6455,,,,,,magnitude,4,9,4 | 9,5,0.05,0.065,congruent,right,0,55,55,19,1,,,,,,,,,,,,,,,,,,,,,,,,,,,,,,,,,,,,,,,,,,,,,,,,,,,,,,,,,,,,,,,,,,,,,,,,
,8902,CAB,30/06/2004,001,2023-12-02_10h14.47.606,OS3_Mult_verification,2022.2.4,Win32,60.86056844,,,,,,,,,,,,,,,,,,,,,,,,,,,,,,,,,,,,,,,,,,,,,,,,,,,,,,,,,,,,,,,,,,,,,,,,,,,,,,,,,right,0,0.8166,,,,,,magnitude,7,6,7 | 6,1,0.05,0.065,incongruent,left,0,56,56,30,1,,,,,,,,,,,,,,,,,,,,,,,,,,,,,,,,,,,,,,,,,,,,,,,,,,,,,,,,,,,,,,,,,,,,,,,,
,8902,CAB,30/06/2004,001,2023-12-02_10h14.47.606,OS3_Mult_verification,2022.2.4,Win32,60.86056844,,,,,,,,,,,,,,,,,,,,,,,,,,,,,,,,,,,,,,,,,,,,,,,,,,,,,,,,,,,,,,,,,,,,,,,,,,,,,,,,,left,0,0.5906,,,,,,magnitude,6,8,6 | 8,2,0.065,0.05,incongruent,right,0,57,57,34,1,,,,,,,,,,,,,,,,,,,,,,,,,,,,,,,,,,,,,,,,,,,,,,,,,,,,,,,,,,,,,,,,,,,,,,,,
,8902,CAB,30/06/2004,001,2023-12-02_10h14.47.606,OS3_Mult_verification,2022.2.4,Win32,60.86056844,,,,,,,,,,,,,,,,,,,,,,,,,,,,,,,,,,,,,,,,,,,,,,,,,,,,,,,,,,,,,,,,,,,,,,,,,,,,,,,,,right,1,0.5146,,,,,,magnitude,2,4,2 | 4,2,0.05,0.065,congruent,right,0,58,58,9,1,,,,,,,,,,,,,,,,,,,,,,,,,,,,,,,,,,,,,,,,,,,,,,,,,,,,,,,,,,,,,,,,,,,,,,,,
,8902,CAB,30/06/2004,001,2023-12-02_10h14.47.606,OS3_Mult_verification,2022.2.4,Win32,60.86056844,,,,,,,,,,,,,,,,,,,,,,,,,,,,,,,,,,,,,,,,,,,,,,,,,,,,,,,,,,,,,,,,,,,,,,,,,,,,,,,,,left,0,0.5385,,,,,,magnitude,7,9,7 | 9,2,0.065,0.05,incongruent,right,0,59,59,35,1,,,,,,,,,,,,,,,,,,,,,,,,,,,,,,,,,,,,,,,,,,,,,,,,,,,,,,,,,,,,,,,,,,,,,,,,
,8902,CAB,30/06/2004,001,2023-12-02_10h14.47.606,OS3_Mult_verification,2022.2.4,Win32,60.86056844,,,,,,,,,,,,,,,,,,,,,,,,,,,,,,,,,,,,,,,,,,,,,,,,,,,,,,,,,,,,,,,,,,,,,,,,,,,,,,,,,left,0,0.5961,,,,,,magnitude,8,9,8 | 9,1,0.065,0.05,incongruent,right,0,60,60,27,1,,,,,,,,,,,,,,,,,,,,,,,,,,,,,,,,,,,,,,,,,,,,,,,,,,,,,,,,,,,,,,,,,,,,,,,,
,8902,CAB,30/06/2004,001,2023-12-02_10h14.47.606,OS3_Mult_verification,2022.2.4,Win32,60.86056844,,,,,,,,,,,,,,,,,,,,,,,,,,,,,,,,,,,,,,,,,,,,,,,,,,,,,,,,,,,,,,,,,,,,,,,,,,,,,,,,,left,0,0.6463,,,,,,magnitude,1,2,1 | 2,1,0.065,0.05,incongruent,right,0,61,61,24,1,,,,,,,,,,,,,,,,,,,,,,,,,,,,,,,,,,,,,,,,,,,,,,,,,,,,,,,,,,,,,,,,,,,,,,,,
,8902,CAB,30/06/2004,001,2023-12-02_10h14.47.606,OS3_Mult_verification,2022.2.4,Win32,60.86056844,,,,,,,,,,,,,,,,,,,,,,,,,,,,,,,,,,,,,,,,,,,,,,,,,,,,,,,,,,,,,,,,,,,,,,,,,,,,,,,,,right,1,0.5087,,,,,,magnitude,3,8,3 | 8,5,0.05,0.065,congruent,right,0,62,62,18,1,,,,,,,,,,,,,,,,,,,,,,,,,,,,,,,,,,,,,,,,,,,,,,,,,,,,,,,,,,,,,,,,,,,,,,,,
,8902,CAB,30/06/2004,001,2023-12-02_10h14.47.606,OS3_Mult_verification,2022.2.4,Win32,60.86056844,,,,,,,,,,,,,,,,,,,,,,,,,,,,,,,,,,,,,,,,,,,,,,,,,,,,,,,,,,,,,,,,,,,,,,,,,,,,,,,,,right,0,0.6411,,,,,,magnitude,4,3,4 | 3,1,0.05,0.065,incongruent,left,0,63,63,29,1,,,,,,,,,,,,,,,,,,,,,,,,,,,,,,,,,,,,,,,,,,,,,,,,,,,,,,,,,,,,,,,,,,,,,,,,
,8902,CAB,30/06/2004,001,2023-12-02_10h14.47.606,OS3_Mult_verification,2022.2.4,Win32,60.86056844,,,,,,,,,,,,,,,,,,,,,,,,,,,,,,,,,,,,,,,,,,,,,,,,,,,,,,,,,,,,,,,,,,,,,,,,,,,,,,,,,right,1,0.6757,,,,,,magnitude,7,9,7 | 9,2,0.05,0.065,congruent,right,0,64,64,11,1,,,,,,,,,,,,,,,,,,,,,,,,,,,,,,,,,,,,,,,,,,,,,,,,,,,,,,,,,,,,,,,,,,,,,,,,
,8902,CAB,30/06/2004,001,2023-12-02_10h14.47.606,OS3_Mult_verification,2022.2.4,Win32,60.86056844,,,,,,,,,,,,,,,,,,,,,,,,,,,,,,,,,,,,,,,,,,,,,,,,,,,,,,,,,,,,,,,,,,,,,,,,,,,,,,,,,right,0,0.8561,,,,,,magnitude,4,2,4 | 2,2,0.05,0.065,incongruent,left,0,65,65,37,1,,,,,,,,,,,,,,,,,,,,,,,,,,,,,,,,,,,,,,,,,,,,,,,,,,,,,,,,,,,,,,,,,,,,,,,,
,8902,CAB,30/06/2004,001,2023-12-02_10h14.47.606,OS3_Mult_verification,2022.2.4,Win32,60.86056844,,,,,,,,,,,,,,,,,,,,,,,,,,,,,,,,,,,,,,,,,,,,,,,,,,,,,,,,,,,,,,,,,,,,,,,,,,,,,,,,,right,0,0.5513,,,,,,magnitude,9,7,9 | 7,2,0.05,0.065,incongruent,left,0,66,66,39,1,,,,,,,,,,,,,,,,,,,,,,,,,,,,,,,,,,,,,,,,,,,,,,,,,,,,,,,,,,,,,,,,,,,,,,,,
,8902,CAB,30/06/2004,001,2023-12-02_10h14.47.606,OS3_Mult_verification,2022.2.4,Win32,60.86056844,,,,,,,,,,,,,,,,,,,,,,,,,,,,,,,,,,,,,,,,,,,,,,,,,,,,,,,,,,,,,,,,,,,,,,,,,,,,,,,,,left,1,0.5536,,,,,,magnitude,7,2,7 | 2,5,0.06,0.06,neutral,left,0,67,67,69,1,,,,,,,,,,,,,,,,,,,,,,,,,,,,,,,,,,,,,,,,,,,,,,,,,,,,,,,,,,,,,,,,,,,,,,,,
,8902,CAB,30/06/2004,001,2023-12-02_10h14.47.606,OS3_Mult_verification,2022.2.4,Win32,60.86056844,,,,,,,,,,,,,,,,,,,,,,,,,,,,,,,,,,,,,,,,,,,,,,,,,,,,,,,,,,,,,,,,,,,,,,,,,,,,,,,,,right,1,0.5774,,,,,,magnitude,1,2,1 | 2,1,0.05,0.065,congruent,right,0,68,68,0,1,,,,,,,,,,,,,,,,,,,,,,,,,,,,,,,,,,,,,,,,,,,,,,,,,,,,,,,,,,,,,,,,,,,,,,,,
,8902,CAB,30/06/2004,001,2023-12-02_10h14.47.606,OS3_Mult_verification,2022.2.4,Win32,60.86056844,,,,,,,,,,,,,,,,,,,,,,,,,,,,,,,,,,,,,,,,,,,,,,,,,,,,,,,,,,,,,,,,,,,,,,,,,,,,,,,,,left,1,0.5096,,,,,,magnitude,8,6,8 | 6,2,0.06,0.06,neutral,left,0,69,69,62,1,,,,,,,,,,,,,,,,,,,,,,,,,,,,,,,,,,,,,,,,,,,,,,,,,,,,,,,,,,,,,,,,,,,,,,,,
,8902,CAB,30/06/2004,001,2023-12-02_10h14.47.606,OS3_Mult_verification,2022.2.4,Win32,60.86056844,,,,,,,,,,,,,,,,,,,,,,,,,,,,,,,,,,,,,,,,,,,,,,,,,,,,,,,,,,,,,,,,,,,,,,,,,,,,,,,,,left,0,0.7858,,,,,,magnitude,8,9,8 | 9,1,0.06,0.06,neutral,right,0,70,70,51,1,,,,,,,,,,,,,,,,,,,,,,,,,,,,,,,,,,,,,,,,,,,,,,,,,,,,,,,,,,,,,,,,,,,,,,,,
,8902,CAB,30/06/2004,001,2023-12-02_10h14.47.606,OS3_Mult_verification,2022.2.4,Win32,60.86056844,,,,,,,,,,,,,,,,,,,,,,,,,,,,,,,,,,,,,,,,,,,,,,,,,,,,,,,,,,,,,,,,,,,,,,,,,,,,,,,,,right,0,0.6448,,,,,,magnitude,9,4,9 | 4,5,0.05,0.065,incongruent,left,0,71,71,47,1,,,,,,,,,,,,,,,,,,,,,,,,,,,,,,,,,,,,,,,,,,,,,,,,,,,,,,,,,,,,,,,,,,,,,,,,
,8902,CAB,30/06/2004,001,2023-12-02_10h14.47.606,OS3_Mult_verification,2022.2.4,Win32,60.86056844,,,,,,,,,,,,,,,,,,,,,,,,,,,,,,,,,,,,,,,,,,,,,,,,,,,,,,,,,,,,,,,,,,,,,,,,,,,,,,,,,,,,,,,,,,,,,,,,,,,,,,,0,0,0,0,1,stroop_stim/magnitude.xlsx,stroop_stim/prac_magnitude.xlsx,NUMERICALLY larger (larger coefficient).,images/numericallyLarger.png,,,,,,,,,,,,,,,,,,,,,,,,,,,,,,,,,,,,,,,,,,,,,,,,,,,,,,,,,,,,,,,
,8902,CAB,30/06/2004,001,2023-12-02_10h14.47.606,OS3_Mult_verification,2022.2.4,Win32,60.86056844,,,,,,,,,,,,,,,,space,0.8521,,,,,,,,,,,,,,,,,,,,,,,,,,,,,,,,,,,,,,,,,,,,,,,,,,,,,,,,,,,,,,,,left,1,0.9443,0,0,0,0,1,practice,9,8,9 | 8,1,0.065,0.05,congruent,left,,,,,,,,,,,,,,,,,,,,,,,,,,,,,,,,,,,,,,,,,,,,,,,,,,,,,,,,,,,,,,,,,,,,,,,,,,,,,
,8902,CAB,30/06/2004,001,2023-12-02_10h14.47.606,OS3_Mult_verification,2022.2.4,Win32,60.86056844,,,,,,,,,,,,,,,,,,,,,,,,,,,,,,,,,,,,,,,,,,,,,,,,,,,,,,,,,,,,,,,,,,,,,,,,,,,,,,,,,right,1,0.8455,0,1,1,1,1,practice,4,3,4 | 3,1,0.05,0.065,incongruent,right,,,,,,,,,,,,,,,,,,,,,,,,,,,,,,,,,,,,,,,,,,,,,,,,,,,,,,,,,,,,,,,,,,,,,,,,,,,,,
,8902,CAB,30/06/2004,001,2023-12-02_10h14.47.606,OS3_Mult_verification,2022.2.4,Win32,60.86056844,,,,,,,,,,,,,,,,,,,,,,,,,,,,,,,,,,,,,,,,,,,,,,,,,,,,,,,,,,,,,,,,,,,,,,,,,,,,,,,,,right,1,0.7674,0,2,2,2,1,practice,9,9,9 | 9,0,0.05,0.065,neutral,right,,,,,,,,,,,,,,,,,,,,,,,,,,,,,,,,,,,,,,,,,,,,,,,,,,,,,,,,,,,,,,,,,,,,,,,,,,,,,
,8902,CAB,30/06/2004,001,2023-12-02_10h14.47.606,OS3_Mult_verification,2022.2.4,Win32,60.86056844,,,,,,,,,,,,,,,,,,,,,,,,,,,,,,,,,,,,,,,,,,,,,,,,,,,,,,,,,,,,,,,,,,,,,,,,,,,,,,,,,left,1,0.5303,,,,,,physical,3,3,3 | 3,0,0.065,0.05,neutral,left,0,0,0,49,1,,,,,,,,,,,,,,,,,,,,,,,,,,,,,,,,,,,,,,,,,,,,,,,,,,,,,,,,,,,,,,,,,,,,,,,,
,8902,CAB,30/06/2004,001,2023-12-02_10h14.47.606,OS3_Mult_verification,2022.2.4,Win32,60.86056844,,,,,,,,,,,,,,,,,,,,,,,,,,,,,,,,,,,,,,,,,,,,,,,,,,,,,,,,,,,,,,,,,,,,,,,,,,,,,,,,,right,1,0.4795,,,,,,physical,3,4,3 | 4,1,0.05,0.065,congruent,right,0,1,1,1,1,,,,,,,,,,,,,,,,,,,,,,,,,,,,,,,,,,,,,,,,,,,,,,,,,,,,,,,,,,,,,,,,,,,,,,,,
,8902,CAB,30/06/2004,001,2023-12-02_10h14.47.606,OS3_Mult_verification,2022.2.4,Win32,60.86056844,,,,,,,,,,,,,,,,,,,,,,,,,,,,,,,,,,,,,,,,,,,,,,,,,,,,,,,,,,,,,,,,,,,,,,,,,,,,,,,,,left,1,0.5239,,,,,,physical,4,2,4 | 2,2,0.065,0.05,congruent,left,0,2,2,13,1,,,,,,,,,,,,,,,,,,,,,,,,,,,,,,,,,,,,,,,,,,,,,,,,,,,,,,,,,,,,,,,,,,,,,,,,
,8902,CAB,30/06/2004,001,2023-12-02_10h14.47.606,OS3_Mult_verification,2022.2.4,Win32,60.86056844,,,,,,,,,,,,,,,,,,,,,,,,,,,,,,,,,,,,,,,,,,,,,,,,,,,,,,,,,,,,,,,,,,,,,,,,,,,,,,,,,right,1,0.4173,,,,,,physical,8,8,8 | 8,0,0.05,0.065,neutral,right,0,3,3,62,1,,,,,,,,,,,,,,,,,,,,,,,,,,,,,,,,,,,,,,,,,,,,,,,,,,,,,,,,,,,,,,,,,,,,,,,,
,8902,CAB,30/06/2004,001,2023-12-02_10h14.47.606,OS3_Mult_verification,2022.2.4,Win32,60.86056844,,,,,,,,,,,,,,,,,,,,,,,,,,,,,,,,,,,,,,,,,,,,,,,,,,,,,,,,,,,,,,,,,,,,,,,,,,,,,,,,,left,1,0.4837,,,,,,physical,1,3,1 | 3,2,0.065,0.05,incongruent,left,0,4,4,32,1,,,,,,,,,,,,,,,,,,,,,,,,,,,,,,,,,,,,,,,,,,,,,,,,,,,,,,,,,,,,,,,,,,,,,,,,
,8902,CAB,30/06/2004,001,2023-12-02_10h14.47.606,OS3_Mult_verification,2022.2.4,Win32,60.86056844,,,,,,,,,,,,,,,,,,,,,,,,,,,,,,,,,,,,,,,,,,,,,,,,,,,,,,,,,,,,,,,,,,,,,,,,,,,,,,,,,left,1,0.8136,,,,,,physical,6,6,6 | 6,0,0.065,0.05,neutral,left,0,5,5,50,1,,,,,,,,,,,,,,,,,,,,,,,,,,,,,,,,,,,,,,,,,,,,,,,,,,,,,,,,,,,,,,,,,,,,,,,,
,8902,CAB,30/06/2004,001,2023-12-02_10h14.47.606,OS3_Mult_verification,2022.2.4,Win32,60.86056844,,,,,,,,,,,,,,,,,,,,,,,,,,,,,,,,,,,,,,,,,,,,,,,,,,,,,,,,,,,,,,,,,,,,,,,,,,,,,,,,,left,1,0.5085,,,,,,physical,7,7,7 | 7,0,0.065,0.05,neutral,left,0,6,6,54,1,,,,,,,,,,,,,,,,,,,,,,,,,,,,,,,,,,,,,,,,,,,,,,,,,,,,,,,,,,,,,,,,,,,,,,,,
,8902,CAB,30/06/2004,001,2023-12-02_10h14.47.606,OS3_Mult_verification,2022.2.4,Win32,60.86056844,,,,,,,,,,,,,,,,,,,,,,,,,,,,,,,,,,,,,,,,,,,,,,,,,,,,,,,,,,,,,,,,,,,,,,,,,,,,,,,,,right,1,0.4581,,,,,,physical,3,8,3 | 8,5,0.05,0.065,congruent,right,0,7,7,18,1,,,,,,,,,,,,,,,,,,,,,,,,,,,,,,,,,,,,,,,,,,,,,,,,,,,,,,,,,,,,,,,,,,,,,,,,
,8902,CAB,30/06/2004,001,2023-12-02_10h14.47.606,OS3_Mult_verification,2022.2.4,Win32,60.86056844,,,,,,,,,,,,,,,,,,,,,,,,,,,,,,,,,,,,,,,,,,,,,,,,,,,,,,,,,,,,,,,,,,,,,,,,,,,,,,,,,right,1,0.5516,,,,,,physical,4,3,4 | 3,1,0.05,0.065,incongruent,right,0,8,8,29,1,,,,,,,,,,,,,,,,,,,,,,,,,,,,,,,,,,,,,,,,,,,,,,,,,,,,,,,,,,,,,,,,,,,,,,,,
,8902,CAB,30/06/2004,001,2023-12-02_10h14.47.606,OS3_Mult_verification,2022.2.4,Win32,60.86056844,,,,,,,,,,,,,,,,,,,,,,,,,,,,,,,,,,,,,,,,,,,,,,,,,,,,,,,,,,,,,,,,,,,,,,,,,,,,,,,,,left,1,0.6024,,,,,,physical,3,8,3 | 8,5,0.065,0.05,incongruent,left,0,9,9,42,1,,,,,,,,,,,,,,,,,,,,,,,,,,,,,,,,,,,,,,,,,,,,,,,,,,,,,,,,,,,,,,,,,,,,,,,,
,8902,CAB,30/06/2004,001,2023-12-02_10h14.47.606,OS3_Mult_verification,2022.2.4,Win32,60.86056844,,,,,,,,,,,,,,,,,,,,,,,,,,,,,,,,,,,,,,,,,,,,,,,,,,,,,,,,,,,,,,,,,,,,,,,,,,,,,,,,,left,1,0.5799,,,,,,physical,1,1,1 | 1,0,0.065,0.05,neutral,left,0,10,10,64,1,,,,,,,,,,,,,,,,,,,,,,,,,,,,,,,,,,,,,,,,,,,,,,,,,,,,,,,,,,,,,,,,,,,,,,,,
,8902,CAB,30/06/2004,001,2023-12-02_10h14.47.606,OS3_Mult_verification,2022.2.4,Win32,60.86056844,,,,,,,,,,,,,,,,,,,,,,,,,,,,,,,,,,,,,,,,,,,,,,,,,,,,,,,,,,,,,,,,,,,,,,,,,,,,,,,,,right,1,0.4407,,,,,,physical,1,6,1 | 6,5,0.05,0.065,congruent,right,0,11,11,16,1,,,,,,,,,,,,,,,,,,,,,,,,,,,,,,,,,,,,,,,,,,,,,,,,,,,,,,,,,,,,,,,,,,,,,,,,
,8902,CAB,30/06/2004,001,2023-12-02_10h14.47.606,OS3_Mult_verification,2022.2.4,Win32,60.86056844,,,,,,,,,,,,,,,,,,,,,,,,,,,,,,,,,,,,,,,,,,,,,,,,,,,,,,,,,,,,,,,,,,,,,,,,,,,,,,,,,right,1,0.7264,,,,,,physical,6,1,6 | 1,5,0.05,0.065,incongruent,right,0,12,12,44,1,,,,,,,,,,,,,,,,,,,,,,,,,,,,,,,,,,,,,,,,,,,,,,,,,,,,,,,,,,,,,,,,,,,,,,,,
,8902,CAB,30/06/2004,001,2023-12-02_10h14.47.606,OS3_Mult_verification,2022.2.4,Win32,60.86056844,,,,,,,,,,,,,,,,,,,,,,,,,,,,,,,,,,,,,,,,,,,,,,,,,,,,,,,,,,,,,,,,,,,,,,,,,,,,,,,,,right,1,0.5466,,,,,,physical,9,8,9 | 8,1,0.05,0.065,incongruent,right,0,13,13,31,1,,,,,,,,,,,,,,,,,,,,,,,,,,,,,,,,,,,,,,,,,,,,,,,,,,,,,,,,,,,,,,,,,,,,,,,,
,8902,CAB,30/06/2004,001,2023-12-02_10h14.47.606,OS3_Mult_verification,2022.2.4,Win32,60.86056844,,,,,,,,,,,,,,,,,,,,,,,,,,,,,,,,,,,,,,,,,,,,,,,,,,,,,,,,,,,,,,,,,,,,,,,,,,,,,,,,,right,1,0.5583,,,,,,physical,1,1,1 | 1,0,0.05,0.065,neutral,right,0,14,14,56,1,,,,,,,,,,,,,,,,,,,,,,,,,,,,,,,,,,,,,,,,,,,,,,,,,,,,,,,,,,,,,,,,,,,,,,,,
,8902,CAB,30/06/2004,001,2023-12-02_10h14.47.606,OS3_Mult_verification,2022.2.4,Win32,60.86056844,,,,,,,,,,,,,,,,,,,,,,,,,,,,,,,,,,,,,,,,,,,,,,,,,,,,,,,,,,,,,,,,,,,,,,,,,,,,,,,,,left,1,0.4902,,,,,,physical,9,9,9 | 9,0,0.065,0.05,neutral,left,0,15,15,55,1,,,,,,,,,,,,,,,,,,,,,,,,,,,,,,,,,,,,,,,,,,,,,,,,,,,,,,,,,,,,,,,,,,,,,,,,
,8902,CAB,30/06/2004,001,2023-12-02_10h14.47.606,OS3_Mult_verification,2022.2.4,Win32,60.86056844,,,,,,,,,,,,,,,,,,,,,,,,,,,,,,,,,,,,,,,,,,,,,,,,,,,,,,,,,,,,,,,,,,,,,,,,,,,,,,,,,right,1,0.4738,,,,,,physical,8,9,8 | 9,1,0.05,0.065,congruent,right,0,16,16,3,1,,,,,,,,,,,,,,,,,,,,,,,,,,,,,,,,,,,,,,,,,,,,,,,,,,,,,,,,,,,,,,,,,,,,,,,,
,8902,CAB,30/06/2004,001,2023-12-02_10h14.47.606,OS3_Mult_verification,2022.2.4,Win32,60.86056844,,,,,,,,,,,,,,,,,,,,,,,,,,,,,,,,,,,,,,,,,,,,,,,,,,,,,,,,,,,,,,,,,,,,,,,,,,,,,,,,,left,1,0.4805,,,,,,physical,8,8,8 | 8,0,0.065,0.05,neutral,left,0,17,17,51,1,,,,,,,,,,,,,,,,,,,,,,,,,,,,,,,,,,,,,,,,,,,,,,,,,,,,,,,,,,,,,,,,,,,,,,,,
,8902,CAB,30/06/2004,001,2023-12-02_10h14.47.606,OS3_Mult_verification,2022.2.4,Win32,60.86056844,,,,,,,,,,,,,,,,,,,,,,,,,,,,,,,,,,,,,,,,,,,,,,,,,,,,,,,,,,,,,,,,,,,,,,,,,,,,,,,,,left,1,0.5122,,,,,,physical,9,8,9 | 8,1,0.065,0.05,congruent,left,0,18,18,7,1,,,,,,,,,,,,,,,,,,,,,,,,,,,,,,,,,,,,,,,,,,,,,,,,,,,,,,,,,,,,,,,,,,,,,,,,
,8902,CAB,30/06/2004,001,2023-12-02_10h14.47.606,OS3_Mult_verification,2022.2.4,Win32,60.86056844,,,,,,,,,,,,,,,,,,,,,,,,,,,,,,,,,,,,,,,,,,,,,,,,,,,,,,,,,,,,,,,,,,,,,,,,,,,,,,,,,right,1,0.5004,,,,,,physical,4,2,4 | 2,2,0.05,0.065,incongruent,right,0,19,19,37,1,,,,,,,,,,,,,,,,,,,,,,,,,,,,,,,,,,,,,,,,,,,,,,,,,,,,,,,,,,,,,,,,,,,,,,,,
,8902,CAB,30/06/2004,001,2023-12-02_10h14.47.606,OS3_Mult_verification,2022.2.4,Win32,60.86056844,,,,,,,,,,,,,,,,,,,,,,,,,,,,,,,,,,,,,,,,,,,,,,,,,,,,,,,,,,,,,,,,,,,,,,,,,,,,,,,,,left,1,0.5062,,,,,,physical,7,6,7 | 6,1,0.065,0.05,congruent,left,0,20,20,6,1,,,,,,,,,,,,,,,,,,,,,,,,,,,,,,,,,,,,,,,,,,,,,,,,,,,,,,,,,,,,,,,,,,,,,,,,
,8902,CAB,30/06/2004,001,2023-12-02_10h14.47.606,OS3_Mult_verification,2022.2.4,Win32,60.86056844,,,,,,,,,,,,,,,,,,,,,,,,,,,,,,,,,,,,,,,,,,,,,,,,,,,,,,,,,,,,,,,,,,,,,,,,,,,,,,,,,left,1,0.6189,,,,,,physical,2,7,2 | 7,5,0.065,0.05,incongruent,left,0,21,21,41,1,,,,,,,,,,,,,,,,,,,,,,,,,,,,,,,,,,,,,,,,,,,,,,,,,,,,,,,,,,,,,,,,,,,,,,,,
,8902,CAB,30/06/2004,001,2023-12-02_10h14.47.606,OS3_Mult_verification,2022.2.4,Win32,60.86056844,,,,,,,,,,,,,,,,,,,,,,,,,,,,,,,,,,,,,,,,,,,,,,,,,,,,,,,,,,,,,,,,,,,,,,,,,,,,,,,,,right,1,0.502,,,,,,physical,6,8,6 | 8,2,0.05,0.065,congruent,right,0,22,22,10,1,,,,,,,,,,,,,,,,,,,,,,,,,,,,,,,,,,,,,,,,,,,,,,,,,,,,,,,,,,,,,,,,,,,,,,,,
,8902,CAB,30/06/2004,001,2023-12-02_10h14.47.606,OS3_Mult_verification,2022.2.4,Win32,60.86056844,,,,,,,,,,,,,,,,,,,,,,,,,,,,,,,,,,,,,,,,,,,,,,,,,,,,,,,,,,,,,,,,,,,,,,,,,,,,,,,,,right,1,0.5003,,,,,,physical,7,7,7 | 7,0,0.05,0.065,neutral,right,0,23,23,59,1,,,,,,,,,,,,,,,,,,,,,,,,,,,,,,,,,,,,,,,,,,,,,,,,,,,,,,,,,,,,,,,,,,,,,,,,
,8902,CAB,30/06/2004,001,2023-12-02_10h14.47.606,OS3_Mult_verification,2022.2.4,Win32,60.86056844,,,,,,,,,,,,,,,,,,,,,,,,,,,,,,,,,,,,,,,,,,,,,,,,,,,,,,,,,,,,,,,,,,,,,,,,,,,,,,,,,left,1,0.5352,,,,,,physical,6,7,6 | 7,1,0.065,0.05,incongruent,left,0,24,24,26,1,,,,,,,,,,,,,,,,,,,,,,,,,,,,,,,,,,,,,,,,,,,,,,,,,,,,,,,,,,,,,,,,,,,,,,,,
,8902,CAB,30/06/2004,001,2023-12-02_10h14.47.606,OS3_Mult_verification,2022.2.4,Win32,60.86056844,,,,,,,,,,,,,,,,,,,,,,,,,,,,,,,,,,,,,,,,,,,,,,,,,,,,,,,,,,,,,,,,,,,,,,,,,,,,,,,,,left,1,0.6172,,,,,,physical,1,1,1 | 1,0,0.065,0.05,neutral,left,0,25,25,48,1,,,,,,,,,,,,,,,,,,,,,,,,,,,,,,,,,,,,,,,,,,,,,,,,,,,,,,,,,,,,,,,,,,,,,,,,
